timestamp,accel_x,accel_y,accel_z,rotation_x,rotation_y,rotation_z, pitch,roll,yaw
0.03788113594055176,0.033592164516448975,0.006486296653747559,0.012834012508392334,-0.026982592418789864,-0.033145420253276825,0.004804712720215321,-0.043316652009862414,0.18098771627937596,0.003931236283905032
0.05390024185180664,0.028140828013420105,-0.009965144097805023,0.010788798332214355,-0.011596179567277431,-0.04929909110069275,0.0077158138155937195,-0.04350239842399776,0.18094662253210286,0.004071048465544545
0.0663290023803711,0.027505308389663696,0.0003766082227230072,0.007143795490264893,-0.007462836802005768,-0.04583374038338661,0.0058958097361028194,-0.043735205988859174,0.18088091828784691,0.004157155838910729
0.07359910011291504,0.03443284332752228,0.008230958133935928,0.007956624031066895,-0.00913104135543108,-0.0415620282292366,0.013574502430856228,-0.04392241532548796,0.18089791985331483,0.004288511374902737
0.0756690502166748,0.029990479350090027,0.002369031310081482,0.00781327486038208,-0.009610992856323719,-0.03636215999722481,0.00944409891963005,-0.04407771213202875,0.1809788884362667,0.004453925336261748
0.07801294326782227,0.028805449604988098,0.004929404705762863,0.0085984468460083,-0.01625744439661503,-0.031411077827215195,0.010360226035118103,-0.04434046421151968,0.18113104384439666,0.004583698185642567
0.08740901947021484,0.0317506343126297,0.002719622105360031,0.011167347431182861,-0.025924785062670708,-0.018516940996050835,0.006468921899795532,-0.04464320465948249,0.18136620724069968,0.004727601617883864
0.09484624862670898,0.028122469782829285,0.0015233531594276428,0.015100479125976562,-0.031998924911022186,-0.01283854991197586,0.006719525903463364,-0.04497004403427699,0.18164493689874514,0.0048648996882433085
0.10504913330078125,0.027190282940864563,0.0005376376211643219,0.01990830898284912,-0.026393085718154907,-0.009777732193470001,0.0013253461802378297,-0.04531524257291853,0.1819753664203119,0.004971933451019032
0.1152811050415039,0.028530403971672058,0.00416463240981102,0.02293294668197632,-0.017650194466114044,-0.003939551766961813,-0.0025636679492890835,-0.04539621906194067,0.18227383629098104,0.005022831482038881
0.12504911422729492,0.02598440647125244,0.004939902573823929,0.022792935371398926,-0.006332574877887964,0.0005685142241418362,-0.0016421079635620117,-0.045506072003623964,0.1825986600336359,0.005039780298790767
0.1350421905517578,0.026341542601585388,0.007093016058206558,0.02295219898223877,0.0059714955277740955,0.006455698050558567,-0.0025486480444669724,-0.045596097470007174,0.18304360573130368,0.005033205897186615
0.14507293701171875,0.027082979679107666,0.011962007731199265,0.02181905508041382,0.010515913367271423,0.01609545387327671,-0.0062134768813848495,-0.04553355545690175,0.1834999454309079,0.004992071578819482
0.15546894073486328,0.025027617812156677,0.008282974362373352,0.020911812782287598,0.012756165117025375,0.02668258361518383,-0.005570323672145605,-0.04547412255366629,0.18405408180248356,0.004924883712386242
0.1652231216430664,0.022132545709609985,0.0022674016654491425,0.01916515827178955,0.012667598202824593,0.02950584515929222,-0.004271499812602997,-0.045370817674836264,0.1847016368526526,0.004875537185501763
0.17530512809753418,0.020252257585525513,0.0026039741933345795,0.018135488033294678,0.009618544951081276,0.03340178355574608,-0.0036152969114482403,-0.04529356410753363,0.18534160773474045,0.004830108973952393
0.18536806106567383,0.020858794450759888,0.00018525496125221252,0.017650604248046875,0.005486317910254002,0.034520309418439865,-0.003517399076372385,-0.04524030304017564,0.18599780310844832,0.004790865418665243
0.19533705711364746,0.01857544481754303,-0.004355426877737045,0.014432907104492188,0.008050675503909588,0.029637672007083893,-0.002217243891209364,-0.04524913259379363,0.1866451360876507,0.004757130242751608
0.20528006553649902,0.0172586590051651,-0.0016784295439720154,0.012806892395019531,0.013342559337615967,0.024160128086805344,0.0009685357799753547,-0.04521186300851156,0.18719349951338238,0.004744888917703763
0.2151651382446289,0.019851699471473694,0.0006944872438907623,0.012072741985321045,0.014136713929474354,0.02454788237810135,0.007246138993650675,-0.04515823409782827,0.18770705712139527,0.0047630433791198655
0.22516608238220215,0.02001023292541504,0.0012777000665664673,0.01097339391708374,0.0074324896559119225,0.02258952707052231,0.0072108786553144455,-0.04517012997981245,0.18819864626940244,0.004828074903457999
0.2353651523590088,0.017922118306159973,0.0006788074970245361,0.008779287338256836,0.0014425073750317097,0.02248646318912506,0.008840999566018581,-0.04520447948016922,0.18866304988237262,0.004914872318549828
0.24518108367919922,0.020014122128486633,-0.001178596168756485,0.006251633167266846,-0.00799468718469143,0.023260243237018585,0.011556465178728104,-0.04524613321550933,0.1891127944782313,0.005021797250678115
0.25518012046813965,0.01708318293094635,-0.002522151917219162,0.0053282976150512695,-0.01205733884125948,0.0206463523209095,0.016562674194574356,-0.04535383366543869,0.18953491288420996,0.00517955809637296
0.2652301788330078,0.01430492103099823,-0.0023123398423194885,0.0041335225105285645,-0.012458493933081627,0.015305870212614536,0.021030182018876076,-0.045449300424170024,0.18994134555167821,0.005403901220211463
0.27545905113220215,0.01803705096244812,-0.0022316500544548035,0.0021672844886779785,-0.01458795741200447,0.0027477340772747993,0.028136294335126877,-0.045490719284120705,0.19024364018892462,0.005668340455076977
0.28536319732666016,0.021685481071472168,-0.0012395717203617096,0.001995086669921875,-0.015079610049724579,-0.009238798171281815,0.036069586873054504,-0.04555156228809884,0.19041367461954195,0.006017713915001504
0.2955200672149658,0.024901673197746277,-0.00020259246230125427,0.0017524361610412598,-0.018425872549414635,-0.026453204452991486,0.04164997115731239,-0.04564382955172223,0.1904646371244929,0.006451056316008639
0.30546092987060547,0.02924846112728119,0.0010545291006565094,0.0038054585456848145,-0.034725166857242584,-0.03762592002749443,0.0417204387485981,-0.04583649207367371,0.19037499762782667,0.006920295833747992
0.31531715393066406,0.031072691082954407,-0.0012386254966259003,0.004037797451019287,-0.04762924835085869,-0.04038761928677559,0.04256652668118477,-0.04616160427270682,0.19019816992553196,0.007432483987276039
0.3254101276397705,0.028939485549926758,-0.0034895315766334534,0.008680105209350586,-0.05583124980330467,-0.04748307913541794,0.04184321314096451,-0.04658191036964734,0.18999661816801444,0.007962704751911662
0.3353300094604492,0.024893686175346375,-0.0019495896995067596,0.011242091655731201,-0.05520248040556908,-0.04486306011676788,0.039226923137903214,-0.04701082066886128,0.1897382975754719,0.008475830606361647
0.34537506103515625,0.02393198013305664,0.0028907842934131622,0.013727366924285889,-0.04439157620072365,-0.03978157043457031,0.0376458577811718,-0.04738937357949757,0.18949327903808064,0.008960763549037774
0.35543107986450195,0.018824145197868347,0.00601939857006073,0.013022541999816895,-0.02863285504281521,-0.03002215176820755,0.03469054773449898,-0.047633224338045434,0.1893671129107507,0.009396600499087871
0.36591506004333496,0.015483930706977844,0.009578987956047058,0.014604747295379639,-0.016648313030600548,-0.02206254005432129,0.02963906154036522,-0.04773586500624557,0.18936657460611456,0.009768804944651313
0.3755149841308594,0.013560816645622253,0.009068582206964493,0.0169336199760437,-0.012789924629032612,-0.01550823450088501,0.02478145621716976,-0.047803846172648566,0.18946105143435915,0.01006819764164584
0.38561201095581055,0.01072123646736145,0.007942553609609604,0.020505845546722412,-0.009966325014829636,-0.0072046322748064995,0.018785510212183,-0.0478618269759811,0.18968082628480762,0.010321871296810264
0.3955860137939453,0.009504005312919617,0.00662945955991745,0.020797312259674072,-0.009254462085664272,0.0012197457253932953,0.013542810454964638,-0.04789321624170278,0.18998869842213548,0.01051585428526678
0.40577006340026855,0.01187068223953247,0.004891302436590195,0.020940065383911133,-0.008840439841151237,0.008730304427444935,0.011612764559686184,-0.04790714368565478,0.19036058973821318,0.01068149373953294
0.4157431125640869,0.013986051082611084,0.0050927698612213135,0.01970517635345459,-0.0038691177032887936,0.01504865474998951,0.011755243875086308,-0.047919313117080815,0.19075534468271982,0.010826217804586485
0.4255552291870117,0.0168754905462265,0.0045564547181129456,0.017102837562561035,0.00635022995993495,0.019162526354193687,0.012390993535518646,-0.047921575284294665,0.19120095027713868,0.01095751099595619
0.4355611801147461,0.020132556557655334,0.008777409791946411,0.013707339763641357,0.016764521598815918,0.01605328731238842,0.013023761101067066,-0.04785093113216597,0.19158221931746788,0.011068782822413607
0.44561100006103516,0.021020278334617615,0.009921971708536148,0.011316239833831787,0.009576999582350254,0.013048041611909866,0.007709528785198927,-0.04780494456105954,0.1918902626677843,0.011152364971599776
0.4555091857910156,0.022625014185905457,0.00797521322965622,0.011429250240325928,0.0005789774004369974,0.0129495058208704,0.004830119200050831,-0.04784440460169208,0.19216813679121966,0.011217012175089643
0.46569299697875977,0.021421685814857483,0.0036574900150299072,0.010922908782958984,-0.0018745929701253772,0.008024077862501144,0.003930556587874889,-0.04793554559141268,0.1924002863826947,0.011265394634389837
0.4755830764770508,0.021875441074371338,0.002345539629459381,0.009940385818481445,-0.010667018592357635,0.0040660882368683815,0.0013952272711321712,-0.04805745474309698,0.19256115602242002,0.011311635831266396
0.48567914962768555,0.02113044261932373,0.0008267387747764587,0.010094165802001953,-0.01529985386878252,0.006256360560655594,0.003339388407766819,-0.048248964368899944,0.19274698705928076,0.01136125843248793
0.49557018280029297,0.019041210412979126,-0.0011673569679260254,0.012198388576507568,-0.010344244539737701,0.004889360163360834,0.007604706566780806,-0.04842746132066078,0.19294976256399557,0.01144525538264517
0.5057711601257324,0.016968369483947754,-0.00018901750445365906,0.010272085666656494,-0.006057204212993383,0.009005763567984104,0.012134743854403496,-0.04853262502551013,0.19318184791886056,0.011568316055949419
0.5156459808349609,0.016150057315826416,0.001289084553718567,0.00878673791885376,-0.002159934025257826,0.014165105298161507,0.019125275313854218,-0.04862629020544868,0.19350388146179767,0.011739927358242436
0.5256490707397461,0.01610080897808075,-0.001264430582523346,0.008530795574188232,-1.5140743926167488e-05,0.013226296752691269,0.023419089615345,-0.04869269677406039,0.19386612229855638,0.011965328874105284
0.535797119140625,0.014825776219367981,-0.0014835111796855927,0.010004043579101562,0.0041420538909733295,0.01127925980836153,0.021154602989554405,-0.04869816534706082,0.19421740162467518,0.012194215625119412
0.5470840930938721,0.016801893711090088,0.0016525723040103912,0.011596083641052246,0.004462082404643297,0.0071984538808465,0.022669730708003044,-0.04864429550785798,0.1945204211345024,0.012409844760410954
0.5559029579162598,0.01547655463218689,0.0008568018674850464,0.013206958770751953,-0.002114593982696533,0.006254896055907011,0.016763903200626373,-0.04861605803705395,0.19479820913713167,0.012605426360336253
0.565892219543457,0.014391571283340454,1.7527490854263306e-05,0.012310922145843506,-0.010449022054672241,0.008211785927414894,0.013646034523844719,-0.0486619310303176,0.19508058023161715,0.012769290208350076
0.5756771564483643,0.012602031230926514,-0.0007847324013710022,0.010394513607025146,-0.009011182934045792,0.007803523913025856,0.013619136065244675,-0.048716572736608975,0.1953501774582422,0.012936639967889003
0.5858020782470703,0.011282920837402344,0.00166214257478714,0.008823752403259277,-0.000546508003026247,0.003983885515481234,0.01121270377188921,-0.04874164686506708,0.1955754351066103,0.013070224882253725
0.5972371101379395,0.012490779161453247,0.0049085840582847595,0.006501197814941406,0.006754015572369099,0.001500487793236971,0.011712845414876938,-0.04869950621980316,0.19575947412991684,0.01317881611520597
0.6057839393615723,0.01384018361568451,0.006286650896072388,0.005101442337036133,0.010355507954955101,0.0011416710913181305,0.013036010786890984,-0.04858778289977144,0.1959229344967593,0.013287508698806452
0.6158571243286133,0.013556525111198425,0.005623131990432739,0.0034011006355285645,0.011741682887077332,-0.001641332171857357,0.011237045750021935,-0.048442419825533274,0.19607090164291346,0.013390188388264961
0.6258640289306641,0.013267427682876587,0.005226194858551025,0.002345442771911621,0.011778001673519611,-0.005139305721968412,0.009726820513606071,-0.048320412422346366,0.19619349315267567,0.0134781911978618
0.6358380317687988,0.012144714593887329,0.005045875906944275,0.003195345401763916,0.012573221698403358,0.0008472143672406673,0.008844515308737755,-0.04819540704686343,0.19632589079222168,0.013548061147646931
0.6480250358581543,0.011208534240722656,0.004077263176441193,0.0057062506675720215,0.014205106534063816,-0.001963930670171976,0.009148009121418,-0.048065238456292195,0.1964703482361639,0.01361759554785631
0.6559720039367676,0.00913994014263153,0.002651020884513855,0.002320408821105957,0.022585008293390274,0.0018537109717726707,0.007279002573341131,-0.04787383095253571,0.19658638674162507,0.013667799060428452
0.6670610904693604,0.00976233184337616,0.005770854651927948,0.0016851425170898438,0.030790843069553375,-0.0022701937705278397,0.011060691438615322,-0.04762236217768804,0.1966963071560261,0.013709874371266037
0.6760549545288086,0.00971481204032898,0.008088864386081696,0.0014089345932006836,0.03533978760242462,-0.006537643261253834,0.007593788206577301,-0.04733344260711652,0.19677324428800302,0.01373634714137059
0.6863081455230713,0.008922800421714783,0.010095424950122833,0.0027229785919189453,0.02242455445230007,-0.009386781603097916,0.0029848150443285704,-0.047111914454134506,0.19681640807244988,0.01373801098808852
0.6979770660400391,0.011068016290664673,0.0055680833756923676,0.0052165985107421875,0.010125012136995792,-0.01759837195277214,-0.00023254990810528398,-0.04701573652058032,0.19680633541109638,0.013723826613853449
0.7060110569000244,0.010944396257400513,0.0036239102482795715,0.004057109355926514,-0.006402782630175352,-0.023477522656321526,-0.007333176210522652,-0.04706788341801427,0.19671494755224642,0.013695570756315006
0.7159171104431152,0.010485231876373291,0.0017891786992549896,0.004721403121948242,-0.0186232291162014,-0.029564177617430687,-0.01279478706419468,-0.0472701458886482,0.19654693093840928,0.013633173597933392
0.7259459495544434,0.012515127658843994,-0.0019061043858528137,0.006808221340179443,-0.021271660923957825,-0.03157792612910271,-0.011965212412178516,-0.047532497612762376,0.1963464513546226,0.01355587489375069
0.7359752655029297,0.011764243245124817,-0.0005732253193855286,0.006453871726989746,-0.016687827184796333,-0.03946567699313164,-0.009929492138326168,-0.047771544397599494,0.1960716448142543,0.013482233401116601
0.7472131252288818,0.011805325746536255,0.00191405788064003,0.0064855217933654785,-0.010430281050503254,-0.03655320033431053,-0.004704156890511513,-0.04797003293206835,0.19578241327466145,0.013423575404751314
0.7559731006622314,0.012946829199790955,0.0026474371552467346,0.006789088249206543,-0.00286131096072495,-0.03575931116938591,0.002113002585247159,-0.048106562399604424,0.19552191860811496,0.01342369137511198
0.7663040161132812,0.012803822755813599,0.0020794905722141266,0.007247328758239746,0.0006846548058092594,-0.03460145741701126,0.007171996869146824,-0.0481863226730045,0.1952637379265068,0.01347425697228233
0.7760872840881348,0.012324795126914978,0.0035722218453884125,0.009010255336761475,-0.0059785740450024605,-0.03170953318476677,0.00964926928281784,-0.04823478220368509,0.1950523248395774,0.013569936920870686
0.7864611148834229,0.012312129139900208,-0.0008613243699073792,0.010276496410369873,-0.01954434998333454,-0.03027612715959549,0.009582210332155228,-0.048365499375734075,0.1948640486788092,0.01370026741595934
0.7978971004486084,0.011832699179649353,-0.005109161138534546,0.01208573579788208,-0.02803077921271324,-0.03004230186343193,0.011173183098435402,-0.04858528114843202,0.19468586258475887,0.013854593113820753
0.8062691688537598,0.014721840620040894,-0.006388142704963684,0.01161879301071167,-0.0327254980802536,-0.0329623706638813,0.009622850455343723,-0.048842227216205965,0.19451170157140177,0.014022597184292497
0.8160772323608398,0.016891926527023315,-0.0021662041544914246,0.014787137508392334,-0.03249194100499153,-0.034177571535110474,0.00788593664765358,-0.049137243446803654,0.1943087386175595,0.014178337557178905
0.8260312080383301,0.018825694918632507,0.00041836127638816833,0.01551741361618042,-0.03406846523284912,-0.036096468567848206,0.005967182572931051,-0.04945223319074768,0.1940824106516139,0.014318798471189366
0.8360562324523926,0.019509747624397278,-0.000578712671995163,0.014401018619537354,-0.03356938809156418,-0.03647144138813019,0.0051021878607571125,-0.04977831866452546,0.19385468841023645,0.01444864913248805
0.8476042747497559,0.021152108907699585,0.0006082318723201752,0.015907645225524902,-0.03814714774489403,-0.037403058260679245,0.006538270972669125,-0.05011767754396493,0.19363018975280813,0.01458159444647707
0.8560400009155273,0.01941417157649994,0.0002689175307750702,0.016788184642791748,-0.04804398491978645,-0.038313593715429306,0.005426134914159775,-0.05054908907614555,0.19338375224917245,0.014733005157628508
0.8661580085754395,0.019918963313102722,-0.002115365117788315,0.018530547618865967,-0.05360483005642891,-0.034156929701566696,0.007364809513092041,-0.05101135999158305,0.193169114241147,0.014903506952707729
0.8760299682617188,0.01784767210483551,-0.004643656313419342,0.01996028423309326,-0.052499085664749146,-0.029393333941698074,0.010578712448477745,-0.051449769219715315,0.19299828379107858,0.015106327947122397
0.8861980438232422,0.012419566512107849,-0.003978557884693146,0.02153158187866211,-0.051518045365810394,-0.02293650060892105,0.014384528622031212,-0.051868605450457066,0.19288943039330594,0.01533297114070687
0.8978500366210938,0.012286081910133362,-0.0012469775974750519,0.020630061626434326,-0.04052078723907471,-0.01919795572757721,0.018123608082532883,-0.05225033595499939,0.19287382555487248,0.015591659254071969
0.9064421653747559,0.011766225099563599,-0.0011745505034923553,0.019549012184143066,-0.03022594004869461,-0.021850375458598137,0.019483523443341255,-0.052544524616666075,0.19286234960611565,0.01585199444291584
0.916323184967041,0.010769844055175781,0.0017234422266483307,0.01666247844696045,-0.023620236665010452,-0.021906035020947456,0.02342580072581768,-0.05274434353445296,0.19282234035508053,0.016110029776895865
0.9263861179351807,0.01152801513671875,0.0026421397924423218,0.014705479145050049,-0.021779092028737068,-0.023093361407518387,0.024619536474347115,-0.05290925403290805,0.19279777933846223,0.01638948719052998
0.9361791610717773,0.01470319926738739,0.0007823817431926727,0.013924658298492432,-0.034332700073719025,-0.03395772725343704,0.017418349161744118,-0.05312135948356613,0.19267404098010513,0.016653631182122573
0.9473280906677246,0.015305489301681519,-0.0004817694425582886,0.014855027198791504,-0.062253378331661224,-0.03583143651485443,0.014436833560466766,-0.05353159983036074,0.19248415603726016,0.016909884945378578
0.956524133682251,0.017279818654060364,-0.00935479998588562,0.012900590896606445,-0.09150421619415283,-0.033210355788469315,0.01482299156486988,-0.054226929791393194,0.19229856890054858,0.01721147523385869
0.9673130512237549,0.01564730703830719,-0.016207680106163025,0.011995851993560791,-0.10839169472455978,-0.04396308958530426,0.016309622675180435,-0.05516079206104036,0.192059246836261,0.017550913442908725
0.9760422706604004,0.014117598533630371,-0.014685101807117462,0.012689173221588135,-0.11574521660804749,-0.06450538337230682,0.017564503476023674,-0.056172737121558125,0.1916537531864564,0.01794579933082073
0.9863052368164062,0.018787696957588196,-0.014066904783248901,0.009814858436584473,-0.15633666515350342,-0.06146116927266121,-0.002693310845643282,-0.05743340951804046,0.19115298451925683,0.018276361031831067
0.9975790977478027,0.022342190146446228,-0.01804833486676216,0.01632589101791382,-0.16757307946681976,-0.025978010147809982,0.010202780365943909,-0.059113616482463126,0.19083028090244797,0.01860021622904647
1.0062980651855469,0.015066206455230713,-0.03174123540520668,0.029016733169555664,-0.1478000432252884,-0.061770446598529816,0.012193121016025543,-0.06051043356840501,0.1905014203169639,0.019058414663038536
1.0163822174072266,0.010779932141304016,-0.032536640763282776,0.022602200508117676,-0.2292991727590561,-0.062491632997989655,-0.0379512757062912,-0.062301035515005716,0.18996066373903683,0.01927108562356665
1.0262970924377441,0.024462640285491943,-0.02770072966814041,0.03725564479827881,-0.37132832407951355,-0.07722219824790955,-0.004221645649522543,-0.06523781272563639,0.18936284212051993,0.019517902940041004
1.0363481044769287,0.028919339179992676,-0.044330015778541565,0.04230153560638428,-0.49196818470954895,-0.13568897545337677,-0.025434521958231926,-0.06942541132788753,0.18848144484544888,0.02032047820466722
1.0472650527954102,0.03503294289112091,-0.014827646315097809,0.025175154209136963,-0.610399603843689,-0.1568053513765335,-0.08588657528162003,-0.07483397312690071,0.18711278555894187,0.02078593032150798
1.0563750267028809,0.043681323528289795,-0.05501512438058853,0.005651891231536865,-0.6117828488349915,-0.1772533655166626,-0.09210265427827835,-0.08093656024004063,0.18561735400587498,0.02103902599414041
1.0665020942687988,0.03564585745334625,-0.08590991050004959,-0.009021878242492676,-0.5395020842552185,-0.18784432113170624,-0.1175575777888298,-0.08653663794639739,0.1839077272500393,0.021127401481076842
1.076348066329956,0.02396869659423828,0.0014918819069862366,-0.016419947147369385,-0.6356651186943054,-0.1752196103334427,-0.16351495683193207,-0.09211363138786803,0.182290637847148,0.020789481738755656
1.086379051208496,0.02029871940612793,0.023218154907226562,-0.01407480239868164,-0.9034149050712585,-0.1725529283285141,-0.19065538048744202,-0.09993390356693219,0.1805042672601525,0.02042442875562025
1.098182201385498,0.01950456202030182,-0.029789313673973083,0.0011726021766662598,-1.2940561771392822,-0.20119842886924744,-0.2890426516532898,-0.11108756857619698,0.17861406954198264,0.02006567366987667
1.1065402030944824,0.012484818696975708,-0.09040655195713043,-0.0013418793678283691,-1.6991019248962402,-0.1865532547235489,-0.3651193678379059,-0.12651031918694705,0.176603252571161,0.019401659500710215
1.117332935333252,0.013127163052558899,-0.1435358226299286,-0.001072227954864502,-1.9355964660644531,-0.2222936749458313,-0.33529701828956604,-0.1451589314102489,0.17451992483170364,0.01912998994748627
1.1264441013336182,0.018766343593597412,-0.15320554375648499,-0.01762866973876953,-1.9956008195877075,-0.2877875566482544,-0.31300249695777893,-0.16520164615170693,0.17201788841579854,0.019366160066883197
1.1365962028503418,0.01836642622947693,-0.10662427544593811,-0.031089305877685547,-1.9031853675842285,-0.3787044286727905,-0.2678680419921875,-0.18499387251938787,0.16877120862653464,0.019804777132635912
1.1481471061706543,0.02751965820789337,-0.067067950963974,-0.04733836650848389,-1.73151433467865,-0.47498267889022827,-0.22358563542366028,-0.2033854050705078,0.1646034863624203,0.020406372847064955
1.1566071510314941,0.03806981444358826,-0.028759106993675232,-0.05643492937088013,-1.4809985160827637,-0.6121330857276917,-0.1715618520975113,-0.21957563985602982,0.15931369518708716,0.021071864257892634
1.1665420532226562,0.044732362031936646,-0.0035899877548217773,-0.06159389019012451,-1.2177245616912842,-0.7510681748390198,-0.16976378858089447,-0.23319092629017818,0.15258445184620323,0.021533117760312536
1.177870273590088,0.03888946771621704,-0.017257779836654663,-0.05973583459854126,-0.9837546348571777,-0.8760772347450256,-0.1920187622308731,-0.24430537792248241,0.14439715765580075,0.021357439236574658
1.1876721382141113,0.03772996366024017,-0.025862902402877808,-0.06394124031066895,-0.9146637320518494,-0.9335132837295532,-0.2626408040523529,-0.25394035737644705,0.13494723272586467,0.0203903897844071
1.1972970962524414,0.030804187059402466,-0.006694406270980835,-0.06265401840209961,-0.9355178475379944,-0.904464602470398,-0.29121971130371094,-0.2634230287672717,0.12534053462576733,0.018766764508147165
1.2065210342407227,-0.00370170921087265,-0.0392175018787384,-0.05812406539916992,-1.0184000730514526,-0.8832653760910034,-0.34479978680610657,-0.27347915273505463,0.1158138824879647,0.01671840814195637
1.2165250778198242,-0.024572812020778656,-0.05728864669799805,-0.07623493671417236,-1.0051425695419312,-0.793196976184845,-0.3703874349594116,-0.2841181597704169,0.10669642530469856,0.014148412602883315
1.2265052795410156,-0.017956435680389404,-0.03832152485847473,-0.08491837978363037,-0.6634671688079834,-0.6775305867195129,-0.32581090927124023,-0.29303120129544463,0.09857446333666732,0.011431202650006732
1.2367651462554932,-0.023775383830070496,0.009284436702728271,-0.11253005266189575,0.04447716102004051,-0.5589067339897156,-0.299821138381958,-0.2965888840705241,0.09153853908814512,0.008539186907231645
1.2473361492156982,-0.036831118166446686,0.14279276132583618,-0.1333330273628235,0.9969775080680847,-0.4024115204811096,-0.3156352937221527,-0.29181206460335,0.08554556668213235,0.004877316323619495
1.2565300464630127,-0.05826040357351303,0.23970326781272888,-0.13709861040115356,2.2802140712738037,-0.13403119146823883,-0.3379107713699341,-0.2760577352913603,0.08154582234787555,0.00010686781831091357
1.2665910720825195,-0.0961272269487381,0.26990896463394165,-0.13905781507492065,3.9319801330566406,-0.09588266164064407,-0.3384134769439697,-0.24539434858452755,0.07893323624990571,-0.005938512953055765
1.2765650749206543,-0.11667005717754364,0.402039110660553,-0.1468612551689148,5.4537577629089355,-0.04211317002773285,-0.46180039644241333,-0.19867630182187965,0.07642181581120999,-0.013728854532897983
1.2866671085357666,-0.08166404813528061,0.5858853459358215,-0.08050084114074707,6.710723876953125,0.12038861960172653,-0.5362342000007629,-0.13814057557805615,0.07518714143027035,-0.02349890860784214
1.2985670566558838,-0.07483081519603729,0.6104930639266968,-0.024814248085021973,7.646461009979248,0.326734334230423,-0.6969200372695923,-0.06672620049303077,0.07612630190715958,-0.03507939573787295
1.306732177734375,-0.08650874346494675,0.5884097814559937,-0.02790313959121704,8.243721961975098,0.5549630522727966,-0.8740444779396057,0.012192437020869435,0.08003870485225552,-0.04914505190161749
1.3168210983276367,-0.08325235545635223,0.5738590359687805,0.017022907733917236,8.627293586730957,0.7304110527038574,-1.0258874893188477,0.09562642129318157,0.08739379688500463,-0.06569251903398111
1.3267359733581543,-0.06944222003221512,0.5457682609558105,0.06058001518249512,8.992238998413086,0.8502696752548218,-1.1076935529708862,0.18235156628227053,0.098000314975074,-0.084771804677647
1.3373050689697266,-0.04292408376932144,0.5859975814819336,0.08356982469558716,9.110038757324219,1.133277177810669,-1.1867252588272095,0.2714161571299716,0.11262975251689551,-0.10616803747252404
1.347433090209961,0.002132825553417206,0.7208285331726074,0.07949471473693848,8.997299194335938,1.5684545040130615,-1.279307246208191,0.3601234961572383,0.13393895713089493,-0.13079291969456383
1.3566851615905762,0.029146432876586914,0.8365610837936401,1.609325408935547e-05,8.482331275939941,1.97224760055542,-1.451372504234314,0.44492192039448847,0.1629505798362057,-0.15944896692761976
1.3667330741882324,0.025414198637008667,0.7805001735687256,-0.05067068338394165,7.6492109298706055,2.3446829319000244,-1.7913422584533691,0.5215184533882686,0.20052584701317505,-0.19377582716519645
1.3767709732055664,0.04155997931957245,0.7394779324531555,0.037212371826171875,6.875657558441162,2.7288548946380615,-2.1617789268493652,0.587885097452937,0.2481742536673105,-0.2355632533931616
1.3867969512939453,0.022516384720802307,0.6379535794258118,0.1636512279510498,6.134474754333496,3.006267547607422,-2.433924436569214,0.6442895909033144,0.3051533379568853,-0.2844902456068803
1.3976490497589111,-0.005095243453979492,0.5149550437927246,0.31918203830718994,5.458731651306152,3.313080310821533,-2.556372880935669,0.6907123418630488,0.3706166203785263,-0.33912858927556305
1.4068479537963867,-0.005525708198547363,0.37116295099258423,0.4520021080970764,5.117341995239258,3.5785672664642334,-2.6227519512176514,0.7287836480367591,0.4436299283039504,-0.3979665074750594
1.417013168334961,0.031319379806518555,0.29114627838134766,0.5347400903701782,5.062691688537598,3.655144691467285,-2.739192485809326,0.7613356943276393,0.5236277908288304,-0.4623532589424782
1.4271049499511719,0.07169559597969055,0.29174214601516724,0.6155294179916382,5.12365198135376,3.420945167541504,-2.7595760822296143,0.7895644794514624,0.6089154497352189,-0.5333313709441381
1.4373502731323242,0.14187508821487427,0.28814613819122314,0.6845191121101379,5.302030086517334,3.134730815887451,-2.692268133163452,0.8144155394373651,0.6970132886435799,-0.6101144349567607
1.4476451873779297,0.20719704031944275,0.30447304248809814,0.7551249265670776,5.525691032409668,2.9060821533203125,-2.6158978939056396,0.8363499434663288,0.7880587804076817,-0.6930769960313299
1.4568800926208496,0.2737399935722351,0.21011477708816528,0.7468611001968384,5.478105545043945,2.826052188873291,-2.645009756088257,0.8539896425104154,0.8828236526039361,-0.781474156500875
1.4668350219726562,0.22545266151428223,0.025513052940368652,0.7084140777587891,5.093560218811035,2.7572712898254395,-2.5624964237213135,0.8647855486397917,0.9783553330062897,-0.870676310501935
1.4768619537353516,0.10145896673202515,-0.2504810094833374,0.6367881298065186,4.42263126373291,2.649365186691284,-2.434919834136963,0.8682132859754408,1.0687916513942801,-0.9538716883324473
1.4869730472564697,0.04262948036193848,-0.5112475752830505,0.5455846190452576,3.617569923400879,2.584052562713623,-2.211852550506592,0.865252802624356,1.1495854070067413,-1.0255163961007656
1.497711181640625,-0.012697815895080566,-0.6993355751037598,0.4068184494972229,2.840705156326294,2.5369279384613037,-1.8521549701690674,0.8585132575540777,1.2190988138731755,-1.0833719224516418
1.5070719718933105,-0.08205437660217285,-0.8195383548736572,0.21224328875541687,2.182055711746216,2.5366599559783936,-1.3474987745285034,0.8512222574973518,1.2777843901907462,-1.1274053833187851
1.5171689987182617,-0.15235596895217896,-0.8458425998687744,0.04594184458255768,1.7654874324798584,2.485024929046631,-0.7641535997390747,0.8462151905498796,1.3275395824258567,-1.160253612900469
1.5269100666046143,-0.19831526279449463,-0.8205016255378723,-0.06218765676021576,1.6670178174972534,2.395575523376465,-0.21284915506839752,0.8452199648646211,1.371973064434494,-1.1869033813475505
1.5370612144470215,-0.2123923897743225,-0.6359643936157227,-0.12536078691482544,1.7494988441467285,2.2841436862945557,0.216249480843544,0.848302951233006,1.4144154518822412,-1.2122528307409097
1.548079013824463,-0.19999200105667114,-0.40501123666763306,-0.1386762261390686,1.7989473342895508,2.066742420196533,0.5519008636474609,0.8546425442032971,1.4558454324110555,-1.2382813379570203
1.5571041107177734,-0.16014891862869263,-0.20912325382232666,-0.11519645899534225,1.7596510648727417,1.870335578918457,0.6254701614379883,0.862363592754711,1.4954097001185203,-1.2646010833229646
1.5670421123504639,-0.09190130233764648,-0.07207131385803223,-0.07081717252731323,1.5767008066177368,1.7118867635726929,0.5194990634918213,0.8691408948706417,1.5328004619913436,-1.290048449687914
1.5769262313842773,-0.03880453109741211,-0.023722529411315918,-0.08554345369338989,1.2688056230545044,1.553090214729309,0.2727840542793274,0.873444661958256,1.5660482924743493,-1.3122112668311237
1.5870862007141113,0.021023988723754883,0.022291839122772217,-0.1147005558013916,0.8500581979751587,1.4204474687576294,-0.05629699304699898,0.8745284684880195,1.593590661013884,-1.32873224409213
1.5972940921783447,0.09533470869064331,0.041857779026031494,-0.14765000343322754,0.5071293711662292,1.263440728187561,-0.36578959226608276,0.8721118014243621,1.6150866731056883,-1.3391174648189843
1.607147216796875,0.147030770778656,0.02584785223007202,-0.18748962879180908,0.27454736828804016,1.0180343389511108,-0.5712963342666626,0.8671629126532105,1.630719973437431,-1.3445706935182786
1.6170549392700195,0.19756805896759033,0.03631913661956787,-0.2179563045501709,0.24637645483016968,0.772513747215271,-0.6377405524253845,0.8608714572703585,1.6421431069272765,-1.3478126748581778
1.627073049545288,0.2479308843612671,0.05191701650619507,-0.2442464828491211,0.2816811800003052,0.5374763011932373,-0.5655739307403564,0.8546019948075233,1.651205762324568,-1.3510808672717176
1.6373891830444336,0.25715547800064087,0.08636164665222168,-0.29668569564819336,0.26282307505607605,0.29490652680397034,-0.43554773926734924,0.849327251640189,1.6580624746495098,-1.3546781159351269
1.6477510929107666,0.23816341161727905,0.021804749965667725,-0.3146364688873291,0.1479896754026413,0.07633163034915924,-0.27292895317077637,0.8455971329565156,1.661906947965975,-1.3573362967686455
1.6570720672607422,0.2037726640701294,-0.1392781138420105,-0.3146200180053711,-0.012396792881190777,-0.09449630230665207,-0.09153811633586884,0.8437420560285355,1.6623369050524797,-1.3581289287457323
1.6672029495239258,0.15930253267288208,-0.256450355052948,-0.3133270740509033,-0.18820036947727203,-0.22226828336715698,0.08461900800466537,0.8437879275372732,1.659627637649871,-1.3566318265311343
1.6770882606506348,0.09253370761871338,-0.3155757784843445,-0.2842741012573242,-0.31459295749664307,-0.361951619386673,0.24733443558216095,0.8456758816690536,1.6540206380087004,-1.3530226130136682
1.687190055847168,0.03500533103942871,-0.3223513960838318,-0.2288675308227539,-0.330172061920166,-0.484397292137146,0.358853816986084,0.848994105497499,1.6462696171324687,-1.3483929888192572
1.6973509788513184,0.016581416130065918,-0.2562183737754822,-0.1634601354598999,-0.27835866808891296,-0.5328918099403381,0.43440771102905273,0.8531861670140267,1.6379888089716705,-1.344205961954937
1.707289218902588,-0.005525469779968262,-0.14901787042617798,-0.12224018573760986,-0.23737949132919312,-0.5410597920417786,0.4800795614719391,0.857944381601699,1.6299797082730956,-1.3407353798248853
1.7171649932861328,-0.03393644094467163,-0.05067867040634155,-0.08659041672945023,-0.1609174758195877,-0.4671158194541931,0.49241265654563904,0.8629225092196087,1.622864849219485,-1.3380617087766986
1.727248191833496,-0.03035879135131836,0.026257097721099854,-0.052135467529296875,-0.07795257866382599,-0.4208167493343353,0.46370989084243774,0.8678193249932107,1.6173511783330123,-1.3366230566857025
1.7373299598693848,-0.02049410343170166,0.11721020936965942,-0.04537928104400635,-0.056708015501499176,-0.3826342225074768,0.35379695892333984,0.8719765493317323,1.6127906221964978,-1.3359190457188936
1.7474899291992188,0.0018742680549621582,0.17371946573257446,-0.008385177701711655,-0.10036507993936539,-0.37957248091697693,0.20812459290027618,0.8748371671378998,1.6082076196321986,-1.3349310520210642
1.7572081089019775,0.014372050762176514,0.1326923370361328,0.02434825710952282,-0.16733293235301971,-0.3647085726261139,0.06610886752605438,0.8762241321222887,1.602921456972534,-1.3328914454037417
1.7672240734100342,0.02331596612930298,0.09378314018249512,0.04803454875946045,-0.20693713426589966,-0.33301207423210144,-0.038709741085767746,0.876368417487114,1.5971230593913244,-1.3298968214859501
1.7771739959716797,0.019816696643829346,0.07435095310211182,0.062285661697387695,-0.1869487762451172,-0.3307398557662964,-0.0903572216629982,0.8757606166528641,1.5912895528612387,-1.3266893192994382
1.7872600555419922,0.019929826259613037,0.07457828521728516,0.07392549514770508,-0.14517076313495636,-0.2638934552669525,-0.11795220524072647,0.8747103098394821,1.5863173507823387,-1.324097155736673
1.7974519729614258,0.020849227905273438,0.09737181663513184,0.07906627655029297,-0.1393086165189743,-0.21973851323127747,-0.10651952028274536,0.8735878157771156,1.582210904264337,-1.321874313211464
1.807603120803833,-0.0023056864738464355,0.07297390699386597,0.071067214012146,-0.1179884821176529,-0.19727545976638794,-0.09397981315851212,0.872591705970107,1.5785945404015391,-1.319850866417331
1.820702075958252,-0.0037398338317871094,0.04681575298309326,0.07837140560150146,-0.08021154254674911,-0.17854304611682892,-0.10659919679164886,0.8716119760747711,1.5754871712546956,-1.3182791076329157
1.827890157699585,-0.008885383605957031,0.04357492923736572,0.08757567405700684,-0.08808962255716324,-0.14892829954624176,-0.13170082867145538,0.870418373889013,1.5728948436342973,-1.3170418014784773
1.838149070739746,-0.018556594848632812,0.03233844041824341,0.08219176530838013,-0.16193535923957825,-0.08912461996078491,-0.1580653339624405,0.8689659098926666,1.5702167877340016,-1.3151177863914376
1.8483052253723145,-0.020644724369049072,-0.003819704055786133,0.07088041305541992,-0.20795150101184845,-0.02648112364113331,-0.1594190001487732,0.8673447855340267,1.567417845309981,-1.3121731900841354
1.8573522567749023,-0.020788967609405518,-0.0364338755607605,0.059783101081848145,-0.17050479352474213,-0.022079983726143837,-0.11123150587081909,0.8659445471446747,1.5649570448252184,-1.3091811774901665
1.8674860000610352,-0.006621420383453369,-0.00232541561126709,0.04818081855773926,-0.06022842973470688,-0.07973138242959976,-0.06738708168268204,0.8650814442021656,1.5630423911307096,-1.3073696448782954
1.877380132675171,0.017761826515197754,0.05992549657821655,0.05404478311538696,0.018887959420681,-0.09598013013601303,-0.06922386586666107,0.8643917815556016,1.5619836990093137,-1.3071642418630718
1.8873991966247559,0.025386154651641846,0.06848466396331787,0.053338587284088135,-0.02509036660194397,-0.0879502147436142,-0.05903131142258644,0.8637558188980791,1.5610571933225494,-1.3071880291418219
1.8977200984954834,0.016097068786621094,0.002913534641265869,0.02449047565460205,-0.08255285769701004,-0.062116220593452454,-0.0567774772644043,0.8631859280037908,1.55966896799902,-1.3063542409592048
1.9075140953063965,0.024632632732391357,-0.04165834188461304,0.011990666389465332,-0.10798807442188263,-0.04420654475688934,-0.05928287282586098,0.8625743643113142,1.5580391801754365,-1.3048804898212407
1.9177069664001465,0.030014336109161377,-0.03828626871109009,-0.000254213809967041,-0.1255098134279251,-0.06183107569813728,-0.05617256835103035,0.8619879963500503,1.5565118828645792,-1.303358710895158
1.92808198928833,0.0340304970741272,-0.022367358207702637,-0.0012654075399041176,-0.13226279616355896,-0.07207439839839935,-0.07202130556106567,0.861385039979665,1.5546774334214482,-1.3016404534690151
1.9379100799560547,0.0319749116897583,-0.018884360790252686,0.005904315039515495,-0.15502935647964478,-0.08230919390916824,-0.0738769918680191,0.8607355211603639,1.5525387839284364,-1.2996826919437596
1.947801113128662,0.02197861671447754,-0.029476642608642578,-0.0010931510478258133,-0.1622852236032486,-0.10824025422334671,-0.041148874908685684,0.8601464128164495,1.549968052374042,-1.297410944950726
1.9574511051177979,0.02500319480895996,-0.03760480880737305,-0.008173229172825813,-0.13263945281505585,-0.12088122218847275,-0.02169581688940525,0.8596392960311291,1.547431580756218,-1.2954013321033389
1.9674749374389648,0.03309422731399536,-0.018433094024658203,-0.01741337589919567,-0.14389292895793915,-0.1306464523077011,-0.01826651766896248,0.8592284758232235,1.5449314626010402,-1.2936022406596277
1.977445125579834,0.03303283452987671,-0.016339004039764404,-0.029972493648529053,-0.22587966918945312,-0.14182667434215546,-0.03097512200474739,0.8589071028938908,1.5416014109327658,-1.2909273850528153
1.9875271320343018,0.026993751525878906,-0.054973304271698,-0.02567809633910656,-0.30865880846977234,-0.14946745336055756,-0.04026731848716736,0.8584881828836163,1.5371440334633342,-1.2869148157923247
1.9980592727661133,0.021383225917816162,-0.08729064464569092,-0.02027392014861107,-0.3493092954158783,-0.16673192381858826,-0.03233163058757782,0.8580224300278271,1.531764531882633,-1.2818764490660048
2.0075831413269043,0.015471935272216797,-0.08069318532943726,-0.01731085777282715,-0.33342114090919495,-0.16614896059036255,-0.012308601289987564,0.8576112929441844,1.5261997542647632,-1.2767065565702567
2.017449140548706,0.006216466426849365,-0.053857624530792236,-0.014240622520446777,-0.32440075278282166,-0.17997609078884125,0.041486985981464386,0.8575810031587231,1.5208029575545703,-1.2717721738015593
2.0274341106414795,0.0020064711570739746,-0.035862624645233154,-0.02591640129685402,-0.3143787384033203,-0.19130118191242218,0.08635618537664413,0.858078443740897,1.5152870432439507,-1.266898301544084
2.037442207336426,0.006623029708862305,-0.036364078521728516,-0.028621193021535873,-0.3085898458957672,-0.1947696954011917,0.1183793693780899,0.8589218689327899,1.5097637664813353,-1.262104999344571
2.048356056213379,0.005523979663848877,-0.043583691120147705,-0.031809743493795395,-0.3383543789386749,-0.2155711054801941,0.13055534660816193,0.8599702107977255,1.503900210392683,-1.257069983040605
2.0574941635131836,0.0030289292335510254,-0.0401497483253479,-0.02588074654340744,-0.3806086480617523,-0.22783176600933075,0.1368771493434906,0.861000888836516,1.497422220878916,-1.251417663943649
2.0675549507141113,0.0030326247215270996,-0.05631822347640991,-0.009327411651611328,-0.40165773034095764,-0.2445676028728485,0.13964231312274933,0.862087825971163,1.4903021455620606,-1.2452019108267893
2.0775489807128906,-0.0022370219230651855,-0.061685025691986084,0.0010406896471977234,-0.37297323346138,-0.23443450033664703,0.16216173768043518,0.8632440908513094,1.4832318012158099,-1.2390269796811724
2.087630271911621,-0.0005415081977844238,-0.032347142696380615,0.0029149651527404785,-0.3225938677787781,-0.2325676679611206,0.18198269605636597,0.8646462742213905,1.4766216839390225,-1.2334361609523317
2.097841262817383,0.0037300586700439453,0.009551763534545898,-0.0050986409187316895,-0.2576223313808441,-0.2260863482952118,0.20377106964588165,0.8662911970973337,1.4707384524105045,-1.2286782006587131
2.107685089111328,0.010860621929168701,0.03439676761627197,0.001403212547302246,-0.202057346701622,-0.2417672872543335,0.19867324829101562,0.8680657439355878,1.4654228167492787,-1.224816227169187
2.117741107940674,0.014011502265930176,0.05379968881607056,0.010925531387329102,-0.1731354147195816,-0.25234055519104004,0.17754186689853668,0.8697577153494218,1.460522034275005,-1.2216420849030767
2.1276450157165527,0.013703882694244385,0.0518193244934082,0.025862395763397217,-0.20617574453353882,-0.24621649086475372,0.1317332684993744,0.8711123123362696,1.4556007883733642,-1.218493293817522
2.1380252838134766,-0.0033459067344665527,0.03235518932342529,0.03716730326414108,-0.2728967070579529,-0.2317454218864441,0.10659222304821014,0.8719753096515729,1.4502302864870666,-1.2145831006854146
2.1479411125183105,-0.01336205005645752,-0.019235610961914062,0.036301083862781525,-0.268598735332489,-0.21622984111309052,0.09403232485055923,0.8726381955136479,1.4445318110154792,-1.2101066336650337
2.157701015472412,-0.010223627090454102,-0.017997026443481445,0.03336985409259796,-0.20120452344417572,-0.18272940814495087,0.10032191127538681,0.8732833282348822,1.439621626120174,-1.2062816932558174
2.1677379608154297,-0.0028034448623657227,0.04119002819061279,0.025394022464752197,-0.15919212996959686,-0.16653232276439667,0.09678278863430023,0.8740412191566331,1.435584671840873,-1.2033074844977183
2.1782212257385254,0.001943826675415039,0.06480419635772705,0.022064685821533203,-0.1453641951084137,-0.14824359118938446,0.08870408684015274,0.8747448691907814,1.4320875680574876,-1.2007876871595606
2.187753200531006,0.0108681321144104,0.04582834243774414,0.027297981083393097,-0.15166056156158447,-0.14720545709133148,0.06875014305114746,0.875325557459492,1.4286962708732314,-1.1983095441391396
2.1979212760925293,0.012335777282714844,0.03393584489822388,0.021254420280456543,-0.15378762781620026,-0.15229874849319458,0.030308475717902184,0.8756022413064086,1.4253047103861303,-1.1958305418140958
2.2077741622924805,0.007853150367736816,0.020847856998443604,0.023153722286224365,-0.17086723446846008,-0.1773378700017929,-0.010048802010715008,0.8754656683636102,1.4217295886384154,-1.1933092002465417
2.2177772521972656,-0.0041901469230651855,0.011107861995697021,0.02530253678560257,-0.1993476152420044,-0.21644186973571777,-0.06278764456510544,0.8748389627836639,1.4176334773259869,-1.190533694288708
2.2278151512145996,-0.0046460628509521484,0.0020522475242614746,0.028932996094226837,-0.2674960196018219,-0.26941701769828796,-0.1298108845949173,0.8735436012668706,1.412654478656318,-1.187206049184091
2.2378902435302734,-0.002432405948638916,-0.01451939344406128,0.03557485342025757,-0.3966643810272217,-0.34753766655921936,-0.221475288271904,0.8712882240550825,1.406040289018832,-1.1825819821157706
2.248108148574829,-0.00235140323638916,-0.03670787811279297,0.0483129620552063,-0.5903337597846985,-0.43870270252227783,-0.3321897089481354,0.8677138115501005,1.3969555513991665,-1.1758177158988814
2.257888078689575,0.0020869970321655273,-0.07309424877166748,0.06626898050308228,-0.826026976108551,-0.5664694309234619,-0.4027661383152008,0.8627811868144067,1.3844777497767027,-1.1660610278865988
2.268001079559326,0.009095847606658936,-0.1073157787322998,0.09339340031147003,-0.9346622824668884,-0.6775129437446594,-0.3884030878543854,0.8571510895705523,1.368992528189565,-1.153819975119659
2.277862071990967,0.026062846183776855,-0.09919965267181396,0.10568274557590485,-0.8482046723365784,-0.6734572649002075,-0.35895439982414246,0.8515720406735434,1.3528625365876132,-1.141589095245007
2.28812313079834,0.06054931879043579,-0.0021575093269348145,0.04753194749355316,-0.6813362836837769,-0.5624151229858398,-0.27017802000045776,0.8467852024527766,1.3390123707440684,-1.1313633702325547
2.298239231109619,0.047730982303619385,0.10766071081161499,-0.038127601146698,-0.6722487807273865,-0.5298049449920654,-0.18567964434623718,0.8430393867477091,1.326973788051246,-1.122507732359438
2.3079919815063477,0.01801544427871704,0.09903925657272339,-0.05559776723384857,-0.9687560796737671,-0.5523527264595032,-0.18663720786571503,0.839307671543956,1.313390091246158,-1.1115113026690044
2.3179359436035156,0.029593944549560547,-0.05566519498825073,-0.013467475771903992,-1.5789680480957031,-0.6423183083534241,-0.2869110703468323,0.8337349735858258,1.2947021905996245,-1.094338636983936
2.327921152114868,0.0054552555084228516,-0.2928087115287781,0.03442472219467163,-2.424408197402954,-0.8120320439338684,-0.38999056816101074,0.8247789352199357,1.267661200428959,-1.0674955264785417
2.338046073913574,-0.021680712699890137,-0.534995973110199,0.09416961669921875,-3.423675298690796,-1.0033702850341797,-0.4713413715362549,0.8114311738932813,1.2304459640141,-1.028966674949695
2.3486740589141846,-0.03938746452331543,-0.7176308035850525,0.16111528873443604,-4.349917411804199,-1.159690499305725,-0.4873470067977905,0.7929231985928185,1.1836007624561042,-0.9789120003634826
2.358099937438965,-0.06336933374404907,-0.7969822287559509,0.21659180521965027,-4.834390640258789,-1.2875882387161255,-0.2893092930316925,0.7705964407591632,1.1307931541050311,-0.9214066789193901
2.3694651126861572,-0.055406033992767334,-0.7032451629638672,0.2445775270462036,-4.8340678215026855,-1.4315242767333984,0.03438199311494827,0.7475263908485388,1.0763988408996616,-0.8621949044654724
2.377939224243164,0.013644635677337646,-0.3572753071784973,0.2460246980190277,-4.448007106781006,-1.635675311088562,0.29814037680625916,0.7258434962040042,1.0237149179833593,-0.8065070497920581
2.3882150650024414,0.09452265501022339,-0.02161651849746704,0.18882620334625244,-4.127328872680664,-2.062833070755005,0.4608592092990875,0.7059579759519271,0.9721825079264518,-0.7560810560383235
2.3983261585235596,0.13143527507781982,0.12980538606643677,0.15142720937728882,-4.061758995056152,-2.483844757080078,0.49480387568473816,0.6859673109449412,0.9192693945140811,-0.7091966391241957
2.4080140590667725,0.1766384243965149,0.12777113914489746,0.18730610609054565,-4.300721645355225,-2.6555795669555664,0.46195846796035767,0.6636051101140293,0.8648861513509738,-0.6637942740068183
2.418121099472046,0.21478581428527832,-0.017591118812561035,0.21661806106567383,-4.887394905090332,-2.5942697525024414,0.4326801896095276,0.6361882901969206,0.8103034849914946,-0.6173270706912933
2.4282922744750977,0.20176208019256592,-0.15832602977752686,0.229070782661438,-5.590075492858887,-2.4338200092315674,0.5915858745574951,0.6025450351416813,0.7562024841240168,-0.5674946285703509
2.4381890296936035,0.18165463209152222,-0.21596097946166992,0.22610044479370117,-6.290928363800049,-2.323547124862671,0.7478164434432983,0.562739205890955,0.702951870382024,-0.5139549591523037
2.4486241340637207,0.1709461808204651,-0.18588536977767944,0.2551635503768921,-7.062812805175781,-2.258105993270874,0.6901264786720276,0.5152113764528761,0.6515401351530102,-0.4585648152574467
2.4583921432495117,0.15500491857528687,-0.1500568687915802,0.3178596496582031,-7.692043304443359,-2.1414408683776855,0.5916896462440491,0.4590685983836405,0.6036633576793005,-0.4034826950646814
2.4687352180480957,0.1685263216495514,-0.15432262420654297,0.39141446352005005,-8.007177352905273,-2.0485684871673584,0.436830997467041,0.3961000048296177,0.5609571764296769,-0.35111332469965745
2.4781222343444824,0.18499991297721863,-0.07482364773750305,0.4465280771255493,-7.963221549987793,-2.036893606185913,0.25645431876182556,0.3292239252651602,0.5237606117334286,-0.3037190826917336
2.4882121086120605,0.15161600708961487,0.08484095335006714,0.4868590831756592,-7.751957893371582,-2.10054349899292,0.1619512438774109,0.2614546315537092,0.4908585009700181,-0.2619247044754807
2.498368263244629,0.1106252670288086,0.18111775815486908,0.4706301689147949,-7.5585713386535645,-2.116398334503174,0.12539777159690857,0.1940365860884401,0.46124057105498256,-0.22460041681340107
2.5082101821899414,0.10478836297988892,0.22533054649829865,0.4426037669181824,-7.329713821411133,-2.085653305053711,0.11574811488389969,0.12726996302460936,0.43487104930445825,-0.19079158837662652
2.518212080001831,0.09041619300842285,0.20179598033428192,0.41217052936553955,-6.98137903213501,-2.158543109893799,0.0672847107052803,0.062355833745096165,0.4104832479406537,-0.16051128180552163
2.528183937072754,0.07301351428031921,0.14766912162303925,0.41100239753723145,-6.504106044769287,-2.1740360260009766,0.03185641020536423,0.00020822910367368285,0.38800378797469987,-0.13371155151672753
2.5382320880889893,0.0705169141292572,0.18525317311286926,0.4537161588668823,-5.912871837615967,-2.140662431716919,0.0027374073397368193,-0.05753057894705426,0.3669522068010753,-0.11066366229362806
2.5484490394592285,0.033076703548431396,0.22924154996871948,0.4392009377479553,-5.246225833892822,-2.0512821674346924,-0.005702788941562176,-0.10990775415269799,0.34761043763425,-0.09104858047485334
2.5582151412963867,0.0028150975704193115,0.2171870619058609,0.40917277336120605,-4.618045806884766,-1.9229352474212646,-0.034676916897296906,-0.15648235127617519,0.32984475436634275,-0.07470179753515942
2.568394184112549,-0.03156808018684387,0.23252691328525543,0.35462552309036255,-4.080577850341797,-1.8089543581008911,-0.10065529495477676,-0.19790047111059078,0.31351104207626007,-0.06138160209538209
2.5785820484161377,-0.05730938911437988,0.1906290501356125,0.28837716579437256,-3.7830793857574463,-1.644599437713623,-0.18423913419246674,-0.2357898328518266,0.2984808263734099,-0.050678574550825105
2.5886101722717285,-0.06439045071601868,0.10925501585006714,0.23429828882217407,-3.6556644439697266,-1.4572497606277466,-0.2120201587677002,-0.27184255491127884,0.2852738625767798,-0.04165226780403322
2.5984649658203125,-0.08401864767074585,0.0574570894241333,0.1780683398246765,-3.6831929683685303,-1.2813655138015747,-0.2226986438035965,-0.3077603164496791,0.2739404076988082,-0.03329021226348496
2.6083011627197266,-0.09039731323719025,0.031127095222473145,0.13147199153900146,-3.7977352142333984,-1.0872882604599,-0.1644345372915268,-0.3443514337651644,0.2648225098582754,-0.02478679339428796
2.6183719635009766,-0.06803382933139801,-0.026102513074874878,0.1193394660949707,-3.838515043258667,-0.9508193731307983,-0.10826447606086731,-0.3817259692128265,0.2579298808890374,-0.015583156463479539
2.6282529830932617,-0.03601007163524628,-0.024953901767730713,0.12086421251296997,-3.751735210418701,-0.8394380807876587,-0.08726391196250916,-0.41880357979463806,0.2526788003724155,-0.0061475438669777544
2.6383261680603027,-0.013485059142112732,-0.008523702621459961,0.10716241598129272,-3.553809404373169,-0.7633084654808044,-0.10156002640724182,-0.4545244942320397,0.2484592066099472,0.00288766716479491
2.6485941410064697,-0.00633944571018219,-0.030934423208236694,0.07340699434280396,-3.3841776847839355,-0.6246841549873352,-0.07615388929843903,-0.48834704594011247,0.24523853210085259,0.011335780867765858
2.6583211421966553,-0.007097333669662476,-0.013385772705078125,0.04635500907897949,-2.7487051486968994,-0.6796243786811829,-0.046540338546037674,-0.5186766867479035,0.242586256327933,0.019364774100330547
2.6684510707855225,-0.013295724987983704,0.053453803062438965,0.002859950065612793,-2.3290324211120605,-0.5771459937095642,-0.10163427144289017,-0.5433912355821509,0.23947011169681517,0.025574017144333553
2.6784892082214355,0.014674469828605652,0.05951046943664551,-0.057474613189697266,-1.931907057762146,-0.49627992510795593,-0.12338083982467651,-0.5643841481034909,0.2364891056044514,0.030125790717532346
2.6885621547698975,-0.019184648990631104,0.02612382173538208,-0.08128291368484497,-1.573482632637024,-0.4575009047985077,-0.13459184765815735,-0.5816728356575563,0.2335956253203585,0.033507388564906655
2.6985392570495605,-0.0557609498500824,0.03030228614807129,-0.09375500679016113,-1.39998197555542,-0.43034493923187256,-0.17932869493961334,-0.5964489764889627,0.23038533580208506,0.035743494027794906
2.7084579467773438,-0.03323252499103546,0.027965843677520752,-0.08665144443511963,-1.3062982559204102,-0.41270580887794495,-0.16607899963855743,-0.6100146422162364,0.2270546242610627,0.03735240404686862
2.7184629440307617,-0.023746639490127563,0.005585670471191406,-0.042618632316589355,-1.2247687578201294,-0.4054979681968689,-0.10499352961778641,-0.6227063774197901,0.2240975550422684,0.03921398889331787
2.728379249572754,0.004013538360595703,0.009297192096710205,-0.005276143550872803,-1.08726966381073,-0.44515925645828247,-0.05649710074067116,-0.6341892957510208,0.22112660125503536,0.04143395231132484
2.738391160964966,0.027915433049201965,0.05785095691680908,-0.0015442371368408203,-0.9584694504737854,-0.43937087059020996,-0.04199965298175812,-0.6442848030826305,0.21800059255439272,0.0436336675124421
2.7485711574554443,0.02557368576526642,0.03206789493560791,-0.02238672971725464,-0.8018636703491211,-0.4117692708969116,-0.04492385685443878,-0.6530108276328882,0.21483735626809944,0.04546781593545087
2.758484125137329,0.013261765241622925,-0.00944054126739502,-0.06174898147583008,-0.6275509595870972,-0.3515480160713196,-0.038337592035532,-0.660086282052443,0.21183737297744634,0.046854201686053594
2.768589973449707,-0.0006807595491409302,-0.001890718936920166,-0.10152161121368408,-0.484950453042984,-0.2599879205226898,-0.014762704260647297,-0.6655687215129132,0.209461275891575,0.04798833853618415
2.778611183166504,-0.004146888852119446,0.01470184326171875,-0.1384407877922058,-0.39601922035217285,-0.17407488822937012,0.007786014582961798,-0.6698552048879398,0.2079953672248182,0.04911823256235475
2.7889132499694824,-0.012266308069229126,0.012485086917877197,-0.15185624361038208,-0.3253592550754547,-0.09704894572496414,0.012059589847922325,-0.6733691504833716,0.20733120199085037,0.050221057580364464
2.7987890243530273,-0.02050688862800598,-0.01136767864227295,-0.13254934549331665,-0.2794932425022125,-0.041706595569849014,-0.003439208958297968,-0.6762850978792553,0.20722386543121635,0.05109053397871184
2.80859112739563,-0.022301509976387024,-0.037535667419433594,-0.10164076089859009,-0.3302956819534302,-0.05360661819577217,-0.06456221640110016,-0.6792810955605126,0.20702233770395612,0.051493343213628175
2.81856107711792,-0.020022958517074585,-0.04684269428253174,-0.06893932819366455,-0.49021369218826294,-0.03836348280310631,-0.08172522485256195,-0.683385794007058,0.20654980563526731,0.05154240033787914
2.828623056411743,-0.015792012214660645,-0.07360690832138062,-0.03353404998779297,-0.6664068698883057,-0.06847100704908371,-0.03070198744535446,-0.6892443869308963,0.2066026897071255,0.0523586407723087
2.83870005607605,8.694827556610107e-05,-0.06448888778686523,-0.00877469778060913,-0.7364847660064697,-0.1897052824497223,0.0438566654920578,-0.6961536250523638,0.20663674204429913,0.054332329420952036
2.848783016204834,0.014388754963874817,0.015585660934448242,0.026621580123901367,-0.7802813053131104,-0.28672870993614197,0.09333974868059158,-0.7034389206177315,0.20608087390049562,0.05728089506797894
2.8585991859436035,0.012080296874046326,0.045453667640686035,0.04901397228240967,-0.8509458899497986,-0.34146490693092346,0.09546175599098206,-0.7111991035772898,0.20519428125667352,0.06072329103999256
2.868758201599121,0.006619319319725037,0.00457608699798584,0.027564942836761475,-0.946943998336792,-0.34064677357673645,0.07632336765527725,-0.7198510853479675,0.20404776868145594,0.06424596887630643
2.8785290718078613,-0.013082146644592285,-0.03564220666885376,0.002260744571685791,-1.0170683860778809,-0.30722570419311523,0.09202297031879425,-0.7293219869523677,0.20328549301624751,0.06799851527983898
2.8887181282043457,-0.030975714325904846,-0.038269639015197754,-0.023521721363067627,-1.060441017150879,-0.27480900287628174,0.10646742582321167,-0.7393163580275965,0.20316487981933765,0.07215366790829497
2.898681163787842,-0.03250247240066528,-0.014188051223754883,-0.038161516189575195,-1.0662565231323242,-0.24502234160900116,0.11740076541900635,-0.7495610216173584,0.20356596543287844,0.07658407959236523
2.9086360931396484,-0.030738770961761475,0.005553603172302246,-0.03213620185852051,-1.0112546682357788,-0.22664488852024078,0.13063636422157288,-0.7595133810098478,0.20435519976493607,0.08116457541044471
2.9189300537109375,-0.031044751405715942,0.009694039821624756,-0.027199983596801758,-0.9129071235656738,-0.2224504053592682,0.13928496837615967,-0.7686994319526775,0.20525672560773983,0.08572008630754142
2.928692102432251,-0.02635045349597931,0.02666836977005005,-0.02704441547393799,-0.7719544172286987,-0.22043879330158234,0.15356852114200592,-0.7766815774470925,0.2061261474237046,0.09013669616569475
2.93882417678833,-0.022404775023460388,0.04470694065093994,-0.026616990566253662,-0.6063817143440247,-0.22678376734256744,0.16264137625694275,-0.7831162441625812,0.20683244997808817,0.09431487952392259
2.9489221572875977,-0.0234515517950058,0.05466204881668091,-0.028748512268066406,-0.44206610321998596,-0.2451823353767395,0.15763941407203674,-0.7879199193899848,0.2071269655704417,0.09806933123041361
2.9590020179748535,-0.023173898458480835,0.06287187337875366,-0.026208460330963135,-0.30477213859558105,-0.2593945860862732,0.14564214646816254,-0.7912345814122586,0.2068724135369373,0.10125937649917567
2.9693989753723145,-0.019772738218307495,0.06261342763900757,-0.012492656707763672,-0.20389312505722046,-0.25502365827560425,0.139779731631279,-0.793428092057523,0.2062305953230557,0.10398692639631296
2.9788122177124023,-0.019322454929351807,0.06591188907623291,-0.004469454288482666,-0.10647308826446533,-0.21788455545902252,0.13471919298171997,-0.7946652042636327,0.2055481398002389,0.10636412052369269
2.988868236541748,-0.015249103307723999,0.07694101333618164,-0.0073430538177490234,-0.03319721296429634,-0.18534861505031586,0.11523018032312393,-0.7950833151796132,0.20492583321734023,0.10832972691053691
2.99886417388916,-0.00842808187007904,0.07478797435760498,-0.017469823360443115,0.03884315863251686,-0.142054945230484,0.0934005156159401,-0.7948458007386839,0.20434100463789703,0.10979850456056563
3.0088510513305664,-0.004554390907287598,0.06728315353393555,-0.015834689140319824,0.11614871770143509,-0.11094988882541656,0.07748285681009293,-0.7939059378028952,0.20379016201157438,0.11077889404187291
3.0187911987304688,-0.002776592969894409,0.06317859888076782,-0.01918792724609375,0.17021729052066803,-0.08822407573461533,0.05934140458703041,-0.7923400752813772,0.20318423086064655,0.11131957808433132
3.0287880897521973,0.0006205588579177856,0.07016438245773315,-0.021626532077789307,0.17563775181770325,-0.0544309988617897,0.0457795225083828,-0.7905202869166096,0.2026360550112922,0.11154518628543367
3.0388169288635254,0.004143714904785156,0.059389352798461914,-0.01948070526123047,0.16508685052394867,-0.03195285424590111,0.0290125273168087,-0.788768170441381,0.20223147219643675,0.11156997719916509
3.0491442680358887,0.00525173544883728,0.041001319885253906,-0.016375720500946045,0.13482092320919037,-0.01681669056415558,0.0034907092340290546,-0.7872552909375137,0.20184011114403985,0.11136681943022567
3.059028148651123,0.005543380975723267,0.03084862232208252,-0.010700583457946777,0.10442626476287842,0.015014475211501122,-0.0214023906737566,-0.786096485406075,0.20148985559518232,0.1108911396970166
3.0693392753601074,0.007714524865150452,0.02227306365966797,-0.0066429972648620605,0.09262007474899292,0.04331579804420471,-0.03515186533331871,-0.7852117411551777,0.20130276079768755,0.1102094277183793
3.078900098800659,0.0103587806224823,0.018341362476348877,-0.010409533977508545,0.10434490442276001,0.06476277112960815,-0.048910290002822876,-0.7843418850935138,0.20122908279287272,0.1093479337305509
3.0890121459960938,0.00903436541557312,0.023362576961517334,-0.02228832244873047,0.13490906357765198,0.09678573161363602,-0.060213807970285416,-0.7832847220787179,0.20127351421712836,0.10825052294103184
3.0989370346069336,0.008180245757102966,0.021062135696411133,-0.032082200050354004,0.18381428718566895,0.1131276860833168,-0.06137068569660187,-0.7818593301080733,0.2014228965397124,0.10695921425914379
3.1088709831237793,0.007404237985610962,0.016352534294128418,-0.04357963800430298,0.25069284439086914,0.11779962480068207,-0.05758462846279144,-0.7799397886455242,0.20155741030931365,0.10550987602044862
3.119007110595703,0.007325887680053711,0.0144614577293396,-0.04659539461135864,0.3122129440307617,0.10947804152965546,-0.051400769501924515,-0.7773662898001189,0.20163218336457012,0.10396973831186496
3.1289281845092773,0.005620360374450684,0.008535325527191162,-0.04579061269760132,0.3647182583808899,0.09966021031141281,-0.04493860900402069,-0.7741894484096558,0.20153578340194112,0.10234553948442063
3.1389050483703613,-0.002201572060585022,-2.664327621459961e-05,-0.03988385200500488,0.4056665003299713,0.08700487017631531,-0.036353643983602524,-0.7705489810592674,0.20132507062271057,0.1007046756524117
3.148935079574585,-0.005782142281532288,-0.009109914302825928,-0.035540997982025146,0.42965930700302124,0.07091972976922989,-0.02282867208123207,-0.7665646979141992,0.2010302054509207,0.09914515136792956
3.159062147140503,-0.007198050618171692,-0.00843137502670288,-0.035167694091796875,0.43040552735328674,0.06139866262674332,-0.009132301434874535,-0.7624321063272883,0.20073650905473445,0.0977464845214872
3.169133186340332,-0.005167528986930847,-0.006316483020782471,-0.03454321622848511,0.4071293771266937,0.05613790079951286,-0.0011830320581793785,-0.7583969913701348,0.20049166512983144,0.09652512991117966
3.1794309616088867,-0.0036469101905822754,-0.008500635623931885,-0.0343930721282959,0.35220301151275635,0.04186548665165901,-0.0027748034335672855,-0.7547070422048165,0.2002627006326042,0.09546284580733531
3.1891002655029297,-0.004967421293258667,-0.017827749252319336,-0.02590644359588623,0.27566057443618774,0.028978627175092697,-0.006506957113742828,-0.751616984168278,0.20000673024528942,0.09455767017570421
3.198975086212158,-0.003802075982093811,-0.02665048837661743,-0.006512284278869629,0.1848531812429428,0.01743861846625805,-0.010151759721338749,-0.7493679585252864,0.19974425066191814,0.09382816666677991
3.2090721130371094,-0.00043204426765441895,-0.03143590688705444,0.008603930473327637,0.0904221460223198,0.014197729527950287,-0.010672247968614101,-0.748047763659506,0.1995415543908924,0.09332301485479154
3.2190661430358887,0.0003193318843841553,-0.031456172466278076,0.01355898380279541,0.027144907042384148,0.012308216653764248,-0.007195224519819021,-0.7475135234983351,0.19949989360555176,0.09305516187906548
3.2290430068969727,0.0014343708753585815,-0.032977283000946045,0.01620924472808838,-0.0003807262983173132,0.005183284170925617,-0.0028443653136491776,-0.7474237774791179,0.199523941562962,0.09295675045793188
3.239138126373291,0.0018168091773986816,-0.025244593620300293,0.014899134635925293,0.008569092489778996,-0.015810679644346237,0.004021796863526106,-0.7474078028758491,0.19947714698983343,0.09295482360898094
3.2495970726013184,0.00556531548500061,-0.009224653244018555,0.017473578453063965,0.02835671231150627,-0.030973033979535103,0.010027491487562656,-0.7470566171379814,0.19912152928086901,0.09290106643714263
3.2592501640319824,0.0067030638456344604,0.003371715545654297,0.024942338466644287,0.06132691353559494,-0.05095073580741882,0.013524753972887993,-0.7463182051001824,0.19856892144157776,0.0928338157562223
3.269094944000244,0.008547738194465637,0.010306775569915771,0.03581845760345459,0.07234123349189758,-0.06384873390197754,0.014666132628917694,-0.7452692647742951,0.19782570492300272,0.09272675793805825
3.279068946838379,0.010878190398216248,0.012814700603485107,0.044773101806640625,0.06017404422163963,-0.062209829688072205,0.009473234415054321,-0.7443487000568161,0.19711133419524404,0.09266459955463358
3.289144992828369,0.011267498135566711,0.014490246772766113,0.05113714933395386,0.03230668231844902,-0.04926362261176109,0.004186592996120453,-0.7437303750776018,0.19656399896258628,0.09265116252512706
3.299248218536377,0.012172922492027283,0.013983488082885742,0.05475008487701416,0.006111294962465763,-0.02974451705813408,-0.00461621955037117,-0.7434446255879075,0.19620868480008608,0.09265159494131396
3.3092050552368164,0.01182466745376587,0.009853243827819824,0.05903780460357666,-0.005945418030023575,-0.0076547060161828995,-0.017309537157416344,-0.7433964751130646,0.19600594986254408,0.09256706319701921
3.319298267364502,0.010053694248199463,0.01302945613861084,0.06042712926864624,0.0020704304333776236,0.014894545078277588,-0.02643006481230259,-0.7434347505509327,0.19592973649869863,0.09233877618072354
3.331416130065918,0.008354321122169495,0.016219019889831543,0.05837482213973999,0.026891425251960754,0.030110515654087067,-0.031560271978378296,-0.7434133240006422,0.1959759015833913,0.09198943059904327
3.3393630981445312,0.009449571371078491,0.023301362991333008,0.05392050743103027,0.056201376020908356,0.04521996155381203,-0.035115327686071396,-0.7432029400558915,0.1960900898257371,0.09150555531673095
3.3494930267333984,0.010910511016845703,0.02686131000518799,0.050508320331573486,0.0792241245508194,0.05807570368051529,-0.035979416221380234,-0.742782267811977,0.1962933120938057,0.09093697425148603
3.3592231273651123,0.011293843388557434,0.0230523943901062,0.04634982347488403,0.10547570139169693,0.06617864221334457,-0.030819006264209747,-0.7421531232730377,0.1965981504497365,0.09034395807718396
3.369455099105835,0.012234598398208618,0.01647430658340454,0.04496359825134277,0.12921583652496338,0.07214341312646866,-0.027381984516978264,-0.7413067374444174,0.19697843481774682,0.08974442078572364
3.3808391094207764,0.01140013337135315,0.01104050874710083,0.04289966821670532,0.13788843154907227,0.07301799207925797,-0.021447397768497467,-0.7403164152895294,0.19742347300928514,0.08917453192712094
3.389348030090332,0.008507117629051208,0.004887878894805908,0.03952467441558838,0.1282883882522583,0.08279689401388168,-0.022954214364290237,-0.7393500025061186,0.1979546769235539,0.08865246255214115
3.399290084838867,0.00831247866153717,-0.0026201605796813965,0.039288878440856934,0.11168411374092102,0.09164045751094818,-0.020949652418494225,-0.7385252085032589,0.19859863957805576,0.088158220654082
3.409525156021118,0.007236599922180176,-0.007788538932800293,0.03455394506454468,0.08119767904281616,0.09694582223892212,-0.025614392012357712,-0.7379416813196306,0.1992809513592712,0.08767635624993653
3.4193649291992188,0.004703328013420105,-0.012963175773620605,0.03208070993423462,0.04378984495997429,0.1067742258310318,-0.026295362040400505,-0.7376967889521727,0.20007793033783586,0.0872343032433243
3.430910110473633,0.0024098604917526245,-0.01910001039505005,0.028854429721832275,0.017651204019784927,0.11479580402374268,-0.019959542900323868,-0.7377418786765164,0.20106058445850375,0.08693534981194996
3.439300060272217,0.0017734318971633911,-0.015984177589416504,0.019068479537963867,0.008094984106719494,0.11342880129814148,-0.01642392948269844,-0.7379233397088248,0.2021405981877132,0.08673845652649513
3.449453115463257,0.0033762603998184204,-0.011506617069244385,0.009401142597198486,0.01694072224199772,0.1082196980714798,-0.007488599047064781,-0.7380586602758781,0.2032388359825235,0.086615646730588
3.4595632553100586,0.0021793097257614136,-0.010876595973968506,0.005243062973022461,0.03876080363988876,0.1004139706492424,-0.000812852755188942,-0.7380113593303945,0.20431343292027088,0.08656651449980426
3.469481945037842,0.004606395959854126,-0.0018652081489562988,0.002665579319000244,0.06042627990245819,0.09415226429700851,0.006273446138948202,-0.7376903035881095,0.20530463915911276,0.08651514558474895
3.481307029724121,0.00585918128490448,0.004997193813323975,-0.001755356788635254,0.06462661921977997,0.09467530995607376,0.010741164907813072,-0.7372216524510937,0.2063086666088079,0.08651585659550008
3.4895451068878174,0.008751124143600464,0.000688016414642334,-0.00500333309173584,0.06501343101263046,0.08505921065807343,0.008716896176338196,-0.7366942495657856,0.20727093509513697,0.08652531707899937
3.499436140060425,0.008465036749839783,-0.0031606554985046387,-0.004026532173156738,0.05194449797272682,0.07262571156024933,0.0035740660969167948,-0.7362046403226454,0.20807721215549843,0.08649294181614373
3.5094921588897705,0.01143491268157959,-0.005105316638946533,-0.001051187515258789,0.031831156462430954,0.06077300012111664,0.0035309758968651295,-0.7358432293758647,0.20873114565629863,0.08644123388140973
3.519491195678711,0.012708723545074463,-0.000928342342376709,0.0006921887397766113,0.00972585380077362,0.04888837784528732,0.0017850077711045742,-0.7356632671698558,0.20927563187478077,0.0864231770784998
3.5312142372131348,0.012704133987426758,0.00014644861221313477,-0.0021610260009765625,-0.0014452914474532008,0.03441440686583519,-0.0022160192020237446,-0.7356336771931621,0.2096971020714367,0.08642150632520434
3.539461135864258,0.013970211148262024,0.0006883144378662109,-0.005560755729675293,-0.007113829720765352,0.020490335300564766,-0.004668790381401777,-0.735643775563801,0.20993107890254642,0.08637405387890305
3.549373149871826,0.016226783394813538,0.0031478404998779297,-0.00663602352142334,-0.010271440260112286,0.005153545644134283,-0.005545715801417828,-0.7357633582325735,0.21006176029286505,0.086352519861518
3.5594382286071777,0.01368965208530426,0.004654109477996826,-0.007389366626739502,-0.007612274028360844,-0.009679995477199554,-0.007418184541165829,-0.7359132748578888,0.21005434205509588,0.08633424227037394
3.5694832801818848,0.015044838190078735,0.005536139011383057,-0.0055999755859375,0.001150308409705758,-0.02399151213467121,-0.007155383937060833,-0.7359173197933826,0.20991171562409044,0.08630447091631471
