timestamp,accel_x,accel_y,accel_z,rotation_x,rotation_y,rotation_z, pitch,roll,yaw
0.04181694984436035,-0.012486487627029419,-0.0075829774141311646,0.02009296417236328,0.008590254932641983,0.01739177107810974,0.02555500529706478,0.1989266150472692,0.1730716068337356,-0.017314072138222177
0.05536818504333496,-0.013567060232162476,-0.000578269362449646,0.01837158203125,0.011154014617204666,0.01579929143190384,0.021836914122104645,0.19903652151246423,0.1731989996226566,-0.01709521332392442
0.05657696723937988,-0.01165209710597992,0.009616494178771973,0.01551365852355957,0.015257147140800953,0.01665549725294113,0.020251533016562462,0.1993030711667951,0.17327954612687102,-0.016898957507751194
0.06154298782348633,-0.01057298481464386,0.017927736043930054,0.007953345775604248,0.013985437341034412,0.01198364607989788,0.015290116891264915,0.19956282581037169,0.17329315281661223,-0.016716963860945483
0.07161116600036621,-0.010411769151687622,0.01915694773197174,-3.9637088775634766e-05,0.0013543304521590471,0.015265192836523056,0.006903556641191244,0.19982059652086118,0.17334075891530562,-0.016606820417430657
0.08160805702209473,-0.009673923254013062,0.010652422904968262,-0.0035994648933410645,-0.01725240983068943,0.015527603216469288,-0.0072703189216554165,0.1998306860274857,0.17344614251608362,-0.016589154559881608
0.09158110618591309,-0.010171160101890564,0.006500065326690674,-0.0013722777366638184,-0.03703596815466881,0.014025047421455383,-0.018480364233255386,0.19965740379208496,0.17355989790344756,-0.016654195884483147
0.10152006149291992,-0.010654866695404053,0.0036347806453704834,0.0039144158363342285,-0.05286409705877304,0.004106015898287296,-0.02701382339000702,0.19931838279090464,0.1736379804789086,-0.01679454946443328
0.11148715019226074,-0.009341910481452942,-0.0006838738918304443,0.00599515438079834,-0.05766497924923897,-0.002233106642961502,-0.0321771614253521,0.19883539214679602,0.17362016991790472,-0.016983308751141638
0.12158608436584473,-0.006454586982727051,-0.0012373477220535278,0.005448818206787109,-0.034172702580690384,-0.004292262718081474,-0.024754397571086884,0.19837977882290206,0.17358474014667902,-0.017186820068856443
0.1317310333251953,-0.006387680768966675,0.004303634166717529,-0.0010951757431030273,-0.019189227372407913,-0.019037920981645584,-0.013602144084870815,0.1980238997158241,0.17343972871341704,-0.017310803420944838
0.14185309410095215,-0.0077332258224487305,0.009975656867027283,-0.002946794033050537,-0.010855397209525108,-0.027396783232688904,-0.00570214306935668,0.1976771959710923,0.1731460527541058,-0.017365940504411714
0.15179800987243652,-0.0020646899938583374,0.0012613683938980103,-0.004821181297302246,-0.004838251508772373,-0.03278355672955513,0.004788580816239119,0.19737998010945224,0.1727487435203245,-0.017344784983664974
0.1619279384613037,-0.002779334783554077,-0.004091516137123108,-0.005414307117462158,-0.013927619904279709,-0.032150790095329285,0.015457470901310444,0.197196255677269,0.17231326815922876,-0.0172080812507522
0.17188811302185059,-0.005948930978775024,-0.009529486298561096,0.0013164281845092773,-0.025456178933382034,-0.026311811059713364,0.020682860165834427,0.19698802447660474,0.17190683279126828,-0.016983894891008756
0.18188786506652832,-0.010296806693077087,-0.01768215000629425,0.0085257887840271,-0.03093474917113781,-0.026749057695269585,0.02754870057106018,0.19673448512442296,0.17151813209397154,-0.016669337878610822
0.1917409896850586,-0.013538643717765808,-0.0162431001663208,0.012124419212341309,-0.030504915863275528,-0.025480860844254494,0.0325557105243206,0.19652149535071278,0.171139068372197,-0.01630276933634558
0.20171189308166504,-0.013319015502929688,-0.01441773772239685,0.0133819580078125,-0.02386106178164482,-0.020466571673750877,0.04010870307683945,0.19637568245517079,0.17081208080350807,-0.01588804066093543
0.21173787117004395,-0.013602882623672485,-0.010357454419136047,0.009847581386566162,-0.017932865768671036,-0.012984154745936394,0.04812135547399521,0.19620601762185175,0.1705158369536576,-0.015400398123415497
0.22195696830749512,-0.016214966773986816,-0.007287353277206421,0.0039504170417785645,-0.008124043233692646,-0.007757523562759161,0.05410616844892502,0.196053600160294,0.1702767789619219,-0.01484257849535959
0.23176097869873047,-0.015084758400917053,-0.005439281463623047,-0.005796194076538086,0.0022878514137119055,-0.007702395785599947,0.056435100734233856,0.19611762576813427,0.1700884473314921,-0.014270063437759188
0.2419750690460205,-0.014776453375816345,3.235042095184326e-05,-0.00932466983795166,0.003509144065901637,-0.005686827003955841,0.054800186306238174,0.19629790808153716,0.16990194028139272,-0.013718162476187718
0.2518951892852783,-0.011711448431015015,-0.0009154677391052246,-0.014785230159759521,0.0025410850066691637,-0.014367133378982544,0.05069119483232498,0.19656059047432373,0.16967622114847203,-0.013175867282706836
0.2622249126434326,-0.008509531617164612,-0.0032168179750442505,-0.018962204456329346,-0.00042486097663640976,-0.02447529509663582,0.045584212988615036,0.19690565643490476,0.16934320442421827,-0.012688704169705689
0.27216601371765137,-0.0031067878007888794,-0.006121888756752014,-0.020784616470336914,-0.0055623650550842285,-0.03788723796606064,0.04393092170357704,0.19717971684935093,0.16887784094263256,-0.012219616174571825
0.28232693672180176,0.002293899655342102,-0.005375877022743225,-0.022584915161132812,-0.012493458576500416,-0.05477829650044441,0.04246474429965019,0.19738029077146427,0.16827002098533209,-0.011762174822500429
0.29259705543518066,0.0032930225133895874,-0.006991103291511536,-0.01940619945526123,-0.027568280696868896,-0.0725245326757431,0.04209430143237114,0.19739812203678175,0.16747394624381146,-0.01128677724191275
0.30222201347351074,0.0027992576360702515,-0.0061331987380981445,-0.013593435287475586,-0.04122753441333771,-0.08915472775697708,0.03759339824318886,0.19721487033055748,0.16647927801337914,-0.01081544369072303
0.3119080066680908,-0.0012847930192947388,-0.005819991230964661,-0.0027170777320861816,-0.047348544001579285,-0.09232389181852341,0.03506126627326012,0.1968807435428563,0.16538982875507474,-0.010362403031397844
0.32242608070373535,-0.010222554206848145,-0.005706310272216797,0.006147563457489014,-0.046838466078042984,-0.08812910318374634,0.03495841100811958,0.1964365535407696,0.16431432262444343,-0.009910490731932705
0.33209919929504395,-0.021786585450172424,0.0004497021436691284,0.013386130332946777,-0.03602176904678345,-0.08240889757871628,0.03278900310397148,0.19605446018237124,0.16330614712089622,-0.00948545048492068
0.3450191020965576,-0.03422623872756958,0.008322566747665405,0.021944046020507812,-0.006625715177506208,-0.06668794900178909,0.03271038457751274,0.19589821377117023,0.1624535919677425,-0.009113962228369679
0.3520350456237793,-0.04494503140449524,0.012585878372192383,0.03051447868347168,0.005948665551841259,-0.053114086389541626,0.030223794281482697,0.19599777463103038,0.16178636508682318,-0.008779670579108738
0.3623840808868408,-0.05498485267162323,0.02106451988220215,0.033210039138793945,0.02065269462764263,-0.028471814468503,0.02166369929909706,0.1962102270330309,0.16136718671652825,-0.008542796365337644
0.3722569942474365,-0.058839067816734314,0.01952780783176422,0.03440755605697632,0.026555323973298073,0.002826188923791051,0.014673967845737934,0.1965103351343122,0.16124433724941037,-0.008401895634785168
0.38211989402770996,-0.06427107751369476,0.014873787760734558,0.029411375522613525,0.03406568616628647,0.030408060178160667,0.00834129098802805,0.19686811216389088,0.16142921169133428,-0.008346638920337029
0.39214396476745605,-0.06501172482967377,0.018935203552246094,0.02107185125350952,0.047215044498443604,0.04113713651895523,-0.0018495612312108278,0.19730641078673192,0.1618145851135246,-0.0083842817529809
0.40229010581970215,-0.05825898051261902,0.026111409068107605,0.013370335102081299,0.06496844440698624,0.03854011371731758,-0.010267280973494053,0.19788684888549485,0.1622349224705391,-0.008528943015862898
0.41303515434265137,-0.04652272164821625,0.030977755784988403,0.003509342670440674,0.0688185766339302,0.025518052279949188,-0.022961238399147987,0.1985237181278829,0.16253741115733017,-0.008785331670065588
0.4224870204925537,-0.03464813530445099,0.03088100254535675,-0.004200875759124756,0.06690078228712082,0.016202270984649658,-0.04191511496901512,0.1991099169464586,0.16271117306141275,-0.009193900076989276
0.4320230484008789,-0.026425883173942566,0.0285375714302063,-0.008990347385406494,0.054125867784023285,-0.0034571844153106213,-0.06569954007863998,0.1995679098894077,0.162712905718455,-0.009802967924824412
0.4424450397491455,-0.018254607915878296,0.024102240800857544,-0.013171374797821045,0.03778071701526642,-0.016368187963962555,-0.09176895767450333,0.19977537530078113,0.1625539444127786,-0.010622886133724587
0.4522440433502197,-0.010193496942520142,0.019026920199394226,-0.017272591590881348,0.021764997392892838,-0.029667483642697334,-0.11288995295763016,0.1997969037372912,0.16231338851311408,-0.011647964938735381
0.46235108375549316,-0.006371930241584778,0.012829750776290894,-0.022419869899749756,0.010339319705963135,-0.045962609350681305,-0.12746261060237885,0.19967021473247282,0.16192348955577368,-0.01283895253476167
0.47222399711608887,-0.0005455762147903442,0.010510280728340149,-0.02388906478881836,0.017139170318841934,-0.06585508584976196,-0.13821086287498474,0.19945214516208534,0.16135105056369067,-0.014154216791689656
0.4822700023651123,0.006811678409576416,0.008443206548690796,-0.025598883628845215,0.028405386954545975,-0.08875672519207001,-0.14388775825500488,0.19922691006348617,0.1605682588631062,-0.015562060678668607
0.4922158718109131,0.013677164912223816,0.008304998278617859,-0.02398073673248291,0.03801620379090309,-0.10867743194103241,-0.14232821762561798,0.1990859133655448,0.15966588094742906,-0.017027832523438896
0.5022609233856201,0.017009899020195007,0.003573492169380188,-0.01843816041946411,0.04246272146701813,-0.12081168591976166,-0.1387735903263092,0.1990690422059592,0.1586813678595449,-0.018488443636160628
0.5122511386871338,0.02019365131855011,-0.006600022315979004,-0.01208728551864624,0.04024697095155716,-0.12548953294754028,-0.12989726662635803,0.19908880691722536,0.15764715162084858,-0.019900857804680053
0.5224258899688721,0.024028241634368896,-0.0184900164604187,-0.004043698310852051,0.03294804319739342,-0.124822236597538,-0.1181543841958046,0.19911643299468842,0.15660304501113487,-0.021205541418467692
0.5322401523590088,0.025730758905410767,-0.025736823678016663,-1.8656253814697266e-05,0.0323493629693985,-0.1144351065158844,-0.09870904684066772,0.1991331684598783,0.15560176412401225,-0.022346804107308126
0.542435884475708,0.031324103474617004,-0.029342055320739746,0.002151191234588623,0.041541844606399536,-0.1164536401629448,-0.07852181047201157,0.19925345409167963,0.15461978864294612,-0.023293082658653767
0.5522270202636719,0.03703966736793518,-0.027522429823875427,0.0051190853118896484,0.05581745505332947,-0.11371378600597382,-0.055591993033885956,0.19952200367803877,0.1536109042820359,-0.024038463991736175
0.56227707862854,0.045147642493247986,-0.025496572256088257,0.010310053825378418,0.06593812257051468,-0.10698659718036652,-0.03294447064399719,0.19992314313122597,0.15265679443582814,-0.024597443710169784
0.5724141597747803,0.05072452127933502,-0.024355217814445496,0.008666515350341797,0.07017387449741364,-0.10614610463380814,-0.01225463766604662,0.20041826255362374,0.15176668950871905,-0.02495002168518845
0.5822141170501709,0.05383549630641937,-0.021593719720840454,0.016388416290283203,0.06459037959575653,-0.1004238948225975,0.0019568949937820435,0.20099405248304678,0.15088860289921036,-0.025138282112042526
0.5923511981964111,0.056701913475990295,-0.026209592819213867,0.027235090732574463,0.05962011590600014,-0.08256900310516357,0.015602665022015572,0.20164024049112497,0.15013908073744126,-0.025182986082790102
0.6022851467132568,0.05259798467159271,-0.02775995433330536,0.034432947635650635,0.04840804263949394,-0.06886731088161469,0.029322367161512375,0.20239405042170372,0.1495631172039431,-0.025074123947955843
0.612354040145874,0.048036277294158936,-0.02457869052886963,0.04086679220199585,0.03840015083551407,-0.057056985795497894,0.036367226392030716,0.20313379973167917,0.1491127060392698,-0.02484501042168684
0.6222751140594482,0.04579457640647888,-0.023104935884475708,0.04723942279815674,0.02997944876551628,-0.039185356348752975,0.03906484693288803,0.20378166644876683,0.148784773448342,-0.024552941611059687
0.6323049068450928,0.04013901948928833,-0.023563772439956665,0.05047893524169922,0.021658403798937798,-0.01591252163052559,0.04585004970431328,0.20431038007334368,0.14865372794182,-0.024203116723339982
0.6423609256744385,0.029744654893875122,-0.022402167320251465,0.050445497035980225,0.016336025670170784,0.006964430678635836,0.04811645299196243,0.2047642835690724,0.14878138130420146,-0.02381032057169104
0.652508020401001,0.020696043968200684,-0.021410539746284485,0.05218309164047241,0.015298192389309406,0.02660018391907215,0.05200466886162758,0.2051848664323999,0.14915711847426566,-0.02338656884693789
0.6623609066009521,0.010739177465438843,-0.017917364835739136,0.05024254322052002,0.012467518448829651,0.042457710951566696,0.05357459932565689,0.20560459062355327,0.1497461248306242,-0.022942670217846708
0.6724178791046143,0.004933953285217285,-0.014876440167427063,0.04528301954269409,0.018102234229445457,0.05746329203248024,0.05635733902454376,0.2060299768653207,0.15041302259274858,-0.022467313350386868
0.6824309825897217,0.0009354203939437866,-0.014156833291053772,0.03709203004837036,0.03826494142413139,0.07476136833429337,0.07367011904716492,0.20659370998251073,0.15117282647214716,-0.021901398504760916
0.6924521923065186,-0.007491856813430786,-0.0054555535316467285,0.028839588165283203,0.048140209168195724,0.07474378496408463,0.0841459333896637,0.207299183241422,0.1519413286699435,-0.021190968509340567
0.7024948596954346,-0.013898387551307678,0.0008113086223602295,0.023484349250793457,0.0513618066906929,0.07293079048395157,0.09155085682868958,0.20805867263420347,0.15264203725065933,-0.020411769273192215
0.7124731540679932,-0.01388491690158844,-0.003280937671661377,0.01888561248779297,0.048065345734357834,0.06189172714948654,0.10194357484579086,0.20883553890749854,0.15325309692226224,-0.019536178827664914
0.7225711345672607,-0.01508815586566925,-0.001477569341659546,0.008706152439117432,0.032562367618083954,0.048332199454307556,0.1064295619726181,0.20950918518477168,0.1536675500185886,-0.0185550189851346
0.7325232028961182,-0.016320884227752686,0.0009199082851409912,0.006336987018585205,0.019155215471982956,0.04455424100160599,0.1137031838297844,0.21004148632913996,0.15398172357979995,-0.01749478581867011
0.7425470352172852,-0.021671906113624573,-0.0031555742025375366,0.0022156238555908203,0.007865576073527336,0.030631233006715775,0.12411965429782867,0.21044574177132325,0.15414804334284327,-0.016320444674910537
0.7524721622467041,-0.02706526219844818,0.006106555461883545,-0.0015618205070495605,-0.000877847895026207,0.00905563309788704,0.12357717752456665,0.21074222531555722,0.15410195221624853,-0.015072681255268984
0.7625570297241211,-0.02445732057094574,0.013103380799293518,-0.0047340989112854,-0.004540859721601009,-0.008169603534042835,0.12108168751001358,0.210984796811055,0.15385872916538956,-0.013831042978719496
0.7725908756256104,-0.0221489816904068,0.01610104739665985,-0.009936273097991943,-0.018312331289052963,-0.02916117012500763,0.12455764412879944,0.21110114340031,0.15338444288826644,-0.01255410585247041
0.7825710773468018,-0.024469703435897827,0.020051047205924988,-0.010814785957336426,-0.038077715784311295,-0.039949193596839905,0.11948756873607635,0.211021036898035,0.1527358536783558,-0.01126015592743658
0.7926318645477295,-0.025217488408088684,0.018545866012573242,-0.007516980171203613,-0.05770228058099747,-0.056730836629867554,0.11453329026699066,0.21076132589335297,0.15195383726112924,-0.009986417783272717
0.8026721477508545,-0.02417275309562683,0.018972277641296387,-0.006421506404876709,-0.0771690383553505,-0.07115846872329712,0.10164710879325867,0.21027676875873552,0.1509993871577952,-0.00876504446123387
0.8127710819244385,-0.02350182831287384,0.022442519664764404,0.00016742944717407227,-0.08449246734380722,-0.07889681309461594,0.09209941327571869,0.20962813177367173,0.14995321763552505,-0.007646655293874002
0.8228449821472168,-0.02547377347946167,0.02195116877555847,0.0017486214637756348,-0.08755599707365036,-0.07833240181207657,0.08335800468921661,0.2089542433964645,0.14884691563163185,-0.006608043937922228
0.8326880931854248,-0.02966301143169403,0.023964643478393555,0.0032758116722106934,-0.08315752446651459,-0.07623516023159027,0.0768793374300003,0.20817371999222922,0.14772695215363227,-0.00563396536784429
0.8426859378814697,-0.028198689222335815,0.029361873865127563,0.0012279748916625977,-0.0820256769657135,-0.08265720307826996,0.06733211874961853,0.20732714821252995,0.14661328681921715,-0.004744235198182435
0.8541769981384277,-0.027171626687049866,0.030245035886764526,0.00471806526184082,-0.08075028657913208,-0.07260829210281372,0.05437344312667847,0.2064365674990931,0.1455565556442862,-0.003992713089709112
0.8627450466156006,-0.02544686198234558,0.024458900094032288,0.0077422261238098145,-0.08413831144571304,-0.0642189309000969,0.04793759435415268,0.2054981463990084,0.1446136545636051,-0.0033309398008322787
0.8726980686187744,-0.027299925684928894,0.022153809666633606,0.007565200328826904,-0.07816564291715622,-0.05097423493862152,0.034019649028778076,0.2045931705837159,0.14380586007733848,-0.002764879302990324
0.8827600479125977,-0.02554994821548462,0.020194217562675476,0.008287250995635986,-0.07587241381406784,-0.05106119066476822,0.015011711046099663,0.20369836020480234,0.14309128780891406,-0.0023803580833821622
0.8927199840545654,-0.021849587559700012,0.016821160912513733,0.010885298252105713,-0.0754428431391716,-0.05107929930090904,-0.004516717046499252,0.20277829798727243,0.14241072369449032,-0.0021920759194599244
0.9052410125732422,-0.017814934253692627,0.012329071760177612,0.013781189918518066,-0.08165107667446136,-0.03828298673033714,-0.018760794773697853,0.20182200664402453,0.1418254240057678,-0.0021755878583971447
0.9127891063690186,-0.019009962677955627,0.005773201584815979,0.013335764408111572,-0.08806183934211731,-0.01967787742614746,-0.02734868973493576,0.20075298704899644,0.1413903112438619,-0.0022506659072263615
0.9233460426330566,-0.022724613547325134,-0.00042204558849334717,0.009800374507904053,-0.08650819957256317,-0.005721625871956348,-0.033059198409318924,0.19958504271837743,0.14114340420857474,-0.0024020284189050535
0.9327840805053711,-0.02048209309577942,-0.004710644483566284,0.004542231559753418,-0.0725788027048111,-0.005693396553397179,-0.036383356899023056,0.19849454193498334,0.14098693929300876,-0.0026095183089750746
0.9428131580352783,-0.015571117401123047,-0.0034548789262771606,-8.338689804077148e-05,-0.05109920725226402,-0.003503656480461359,-0.03633052110671997,0.19765878225214478,0.14085554474814727,-0.002865843480170121
0.9538781642913818,-0.009760141372680664,-0.004880473017692566,-0.003242969512939453,-0.03343445807695389,-0.0023254738189280033,-0.028637180104851723,0.1970452338757283,0.14073081869496656,-0.003110750926449528
0.9628779888153076,-0.007015123963356018,-0.007504120469093323,-0.007898211479187012,-0.03068600967526436,-0.014369620010256767,-0.02433180622756481,0.19656378955958448,0.1405302862686172,-0.0033004911981024962
0.9728128910064697,-0.0041046589612960815,-0.014961004257202148,-0.005608677864074707,-0.037772417068481445,-0.015992816537618637,-0.021936027333140373,0.19610181990344355,0.14028569507699387,-0.0034674310424438687
0.9826860427856445,-0.0027934610843658447,-0.0252905935049057,-0.003751516342163086,-0.05246732383966446,-0.018521619960665703,-0.013641665689647198,0.1955890952056026,0.14003678309038733,-0.0035684029492752943
0.9927561283111572,-0.004987269639968872,-0.029070064425468445,-0.00467294454574585,-0.06517672538757324,-0.016358600929379463,-0.003398349042981863,0.19501836473956513,0.13976599338584084,-0.0035560900969488925
1.0037128925323486,-0.002974182367324829,-0.028783544898033142,-0.0081557035446167,-0.0721302404999733,-0.022526126354932785,0.003428184660151601,0.19440834187801836,0.1394203779368303,-0.003439078179297045
1.012653112411499,-0.001652047038078308,-0.027353346347808838,-0.008728325366973877,-0.07083594053983688,-0.03591543808579445,0.009119360707700253,0.1938132027219053,0.1389698316533628,-0.00324795661652668
1.0225610733032227,0.0022492706775665283,-0.022367924451828003,-0.0047446489334106445,-0.06863437592983246,-0.046683572232723236,0.01779188960790634,0.1932336203046303,0.13842527256463755,-0.003000167639500349
1.0327351093292236,0.004271388053894043,-0.015034869313240051,-0.002398848533630371,-0.06988446414470673,-0.05043170601129532,0.024843407794833183,0.19265182326500174,0.1378048083056746,-0.0026651920925624397
1.0425729751586914,0.002996101975440979,-0.013687625527381897,0.002560555934906006,-0.04711355268955231,-0.04245202988386154,0.040238022804260254,0.19223664444541252,0.13725338040502094,-0.002252640771750754
1.0536789894104004,5.4448843002319336e-05,-0.012541204690933228,-0.00020742416381835938,-0.03493358567357063,-0.0476774200797081,0.046323079615831375,0.19209875886203698,0.13669707590010804,-0.001748031818281867
1.0628769397735596,-0.000273287296295166,-0.00034762918949127197,-0.002835988998413086,-0.04481632634997368,-0.05909505859017372,0.042725786566734314,0.1920850640135184,0.13606091485170466,-0.0012370485801082027
1.0727441310882568,0.005465015769004822,-0.0006288439035415649,-0.0020490288734436035,-0.08270218968391418,-0.0536225289106369,0.04984761402010918,0.19186078171807452,0.1353950154942359,-0.0007097014579263472
1.0834670066833496,0.004586726427078247,-0.005113586783409119,0.009141623973846436,-0.1148238554596901,-0.040141474455595016,0.0839243084192276,0.1913025852800341,0.13476162933100708,0.00011371378803743355
1.0928549766540527,-0.0031565576791763306,-0.004410877823829651,0.027746498584747314,-0.11841832846403122,-0.025498615577816963,0.10809062421321869,0.19057295909705355,0.13426364742314092,0.0012317020605816834
1.1053290367126465,-0.00856955349445343,0.015836656093597412,0.03205972909927368,-0.08627481013536453,-0.0517050065100193,0.11737776547670364,0.18995049220456545,0.133679031600357,0.0025278571433805254
1.1128010749816895,-0.003849819302558899,0.024707362055778503,0.03549671173095703,-0.06832350045442581,-0.08283177018165588,0.1093619167804718,0.18955197541601043,0.13281735318538898,0.003763456981253755
1.1233410835266113,0.00026892125606536865,0.012755215167999268,0.03289562463760376,-0.10539122670888901,-0.12303568422794342,0.09121695160865784,0.1890346801383298,0.13161418578303777,0.004888334652435594
1.1327769756317139,-0.003944367170333862,0.000377655029296875,0.030894100666046143,-0.14057424664497375,-0.12122820317745209,0.06799072027206421,0.18811543604346553,0.13022985616419785,0.005845911011795958
1.143362045288086,-0.008897185325622559,-0.019595816731452942,0.05141115188598633,-0.14484629034996033,-0.11271186172962189,0.0754760131239891,0.1867956068477054,0.12895346107826317,0.006736975316359561
1.1562950611114502,-0.023759573698043823,0.011276230216026306,0.06755220890045166,-0.12930408120155334,-0.15955525636672974,0.08570893853902817,0.18557253549728592,0.12748377757979942,0.007755461163593106
1.1635210514068604,-0.014936290681362152,0.05145977437496185,0.06995737552642822,-0.1373223513364792,-0.25520384311676025,0.034711699932813644,0.18441554192405232,0.12529297283476454,0.008545070471276483
1.1732919216156006,-0.005379252135753632,0.023880720138549805,0.08898943662643433,-0.21263734996318817,-0.3391437530517578,-0.013979141600430012,0.1827794429735097,0.12229417833156889,0.008863888888733996
1.1833550930023193,-0.004951059818267822,-0.02795235812664032,0.10185396671295166,-0.2460208684206009,-0.42424124479293823,-0.05542958900332451,0.18040685617756388,0.1185212675073942,0.008792810893008556
1.193242073059082,-0.007182106375694275,-0.018709301948547363,0.113303542137146,-0.2157018482685089,-0.5519819259643555,-0.10046551376581192,0.17793741390194714,0.11374192959305036,0.008274173749049403
1.2052929401397705,-0.012255176901817322,0.022814810276031494,0.12248343229293823,-0.19641372561454773,-0.6771191954612732,-0.11679761111736298,0.1758343401611288,0.1077808381831038,0.007376289426955351
1.2135388851165771,0.00541522353887558,0.0628204345703125,0.09390091896057129,-0.21342706680297852,-0.8416396975517273,-0.14259271323680878,0.17367761428497305,0.10041811663110008,0.006300204712894848
1.2233290672302246,0.026541896164417267,0.052766427397727966,0.07534545660018921,-0.2741568386554718,-0.9660157561302185,-0.17851534485816956,0.17095323152297012,0.09144805915997378,0.004881859998773421
1.233307123184204,0.03827517479658127,0.0013187527656555176,0.07796114683151245,-0.2666475176811218,-1.0816785097122192,-0.11589565128087997,0.16843484410113507,0.08127991723596865,0.003614065523919187
1.2452690601348877,0.028795301914215088,0.025237753987312317,0.02908390760421753,-0.36211496591567993,-1.0888789892196655,-0.062148697674274445,0.16508569994852706,0.07058022566201683,0.002925108848085398
1.255370855331421,0.02150638774037361,0.08493371307849884,-0.019210517406463623,-0.4360150098800659,-1.087953805923462,-0.05306678265333176,0.16113055014292305,0.05965403926105968,0.002644411649901807
1.2630960941314697,0.009723201394081116,-0.010986164212226868,-0.04180055856704712,-0.5746666789054871,-0.9542935490608215,-0.040186673402786255,0.1560434289178863,0.04946090337778036,0.0024169828987137356
1.273287057876587,-0.010943952947854996,-0.07926246523857117,-0.059498727321624756,-0.6784923672676086,-0.8845275640487671,-0.05680719390511513,0.14965862461516058,0.04035175196407149,0.0022357910447324287
1.2832260131835938,-0.025716427713632584,-0.056869253516197205,-0.042059123516082764,-0.718382716178894,-0.8531798720359802,-0.004659888334572315,0.14257262817028604,0.03162726169194059,0.002089047553686491
1.2932021617889404,-0.03478072211146355,-0.04001608490943909,0.024016201496124268,-0.6907225847244263,-0.8128271102905273,0.05697444826364517,0.13570828901583698,0.023231859543663587,0.002632323453975979
1.3043229579925537,-0.03643878176808357,-0.023981735110282898,0.03741222620010376,-0.8517107367515564,-0.8011653423309326,-0.019060611724853516,0.12807095968200272,0.015109233715909458,0.0030192381007218827
1.3132679462432861,-0.035986606031656265,-0.0770382359623909,0.07210177183151245,-1.1831459999084473,-0.7222641706466675,-0.10868610441684723,0.1178910214487165,0.007535558739808182,0.002396340790044265
1.323974847793579,-0.05067998915910721,-0.1526520550251007,0.10568511486053467,-1.478159785270691,-0.6527965068817139,-0.11551780253648758,0.10454205210571278,0.0008647590436523063,0.0013521896399019064
1.3332269191741943,-0.04349508881568909,-0.11912523955106735,0.057367026805877686,-1.6291253566741943,-0.605406641960144,-0.1386183202266693,0.08884682458384799,-0.005262270934621014,3.1400753682787855e-05
1.3432350158691406,-0.012207775376737118,-0.06683262437582016,-0.009261250495910645,-1.8238657712936401,-0.5813499689102173,-0.1758190095424652,0.07159522054893501,-0.011136418679791713,-0.001711429112084908
1.354295015335083,0.002093786373734474,-0.08636246621608734,-0.04302477836608887,-2.03018856048584,-0.5228466987609863,-0.20769865810871124,0.05233328870048425,-0.01653673878453312,-0.0038697079170767683
1.3632681369781494,0.001993054524064064,-0.09469611197710037,-0.05815708637237549,-2.2150142192840576,-0.4575672447681427,-0.19871340692043304,0.031056550480713638,-0.021246235577150822,-0.006360229008634651
1.3735101222991943,-0.008674895390868187,-0.07114655524492264,-0.06908565759658813,-2.413905382156372,-0.4163862466812134,-0.21775634586811066,0.007955083011102416,-0.025630486107654497,-0.008951589041834084
1.383208990097046,-0.001140650361776352,-0.07442879676818848,-0.042673468589782715,-2.65126371383667,-0.3774620592594147,-0.2611178755760193,-0.01734655145375297,-0.0296451343416421,-0.01206742038685023
1.393435001373291,-0.004524942487478256,-0.08444187790155411,0.008222460746765137,-3.0698702335357666,-0.3809686303138733,-0.2964966297149658,-0.0456851957796475,-0.03351067778387135,-0.015752275976577912
1.4055860042572021,-0.007167935371398926,-0.0751865804195404,0.05110013484954834,-3.588068723678589,-0.2884586751461029,-0.3007257878780365,-0.07891533520589655,-0.037176279860575936,-0.019961319540310767
1.413403034210205,-0.0008633993566036224,-0.09748636186122894,0.04602491855621338,-4.131548881530762,-0.19557934999465942,-0.3576785624027252,-0.11743999077323036,-0.040088078011986945,-0.0247271653965622
1.4232308864593506,-0.012661412358283997,-0.16571146249771118,0.05196017026901245,-4.51346492767334,-0.18135575950145721,-0.3847575783729553,-0.16063357662638073,-0.04272630583871316,-0.03034693397637516
1.4333231449127197,-0.014591462910175323,-0.1829231232404709,0.09563839435577393,-4.8047895431518555,-0.17333805561065674,-0.3565933406352997,-0.20712119818888702,-0.04555596243007683,-0.03622511172170835
1.4432919025421143,-0.0019285567104816437,-0.13275548815727234,0.07887834310531616,-5.055270195007324,-0.20347486436367035,-0.32413291931152344,-0.25613722626926033,-0.048831876689973075,-0.04207064121537567
1.4548089504241943,0.013749301433563232,-0.14454054832458496,0.04614526033401489,-5.255406856536865,-0.11858261376619339,-0.3250106871128082,-0.3076181778817181,-0.05229884985108692,-0.04809719113361439
1.4633471965789795,0.013573795557022095,-0.19276511669158936,0.020900249481201172,-5.3110880851745605,-0.11432342231273651,-0.3191615343093872,-0.3604796062169421,-0.05541582725868304,-0.05458763026461737
1.4734430313110352,0.007037892937660217,-0.13880839943885803,0.014640212059020996,-5.290777683258057,-0.3022797405719757,-0.2991742491722107,-0.4131914823287453,-0.05980223944097938,-0.06116435777636596
1.4836900234222412,0.020010989159345627,-0.007334858179092407,0.054554760456085205,-5.337526798248291,-0.5144814848899841,-0.30289849638938904,-0.4660734469608425,-0.06706503507056445,-0.06825234148980748
1.4936110973358154,0.049231499433517456,0.014163941144943237,0.07205009460449219,-5.421329021453857,-0.5366278290748596,-0.2738697826862335,-0.5196873905356348,-0.07588442924048361,-0.07587952665898512
1.5047681331634521,0.05986329913139343,-0.04130488634109497,0.008632540702819824,-5.444833755493164,-0.6238744854927063,-0.30044546723365784,-0.5738040841439193,-0.08615689332616874,-0.08447793287873355
1.513526201248169,0.05115605890750885,-0.03395283222198486,-0.026614010334014893,-5.260162830352783,-0.6533935070037842,-0.18574419617652893,-0.6271315937313597,-0.09761131637375152,-0.09336586224689027
1.5233938694000244,0.03074042499065399,0.023714542388916016,-0.053936660289764404,-5.054944038391113,-0.6885718107223511,-0.18212920427322388,-0.6782207604960089,-0.10975103956841714,-0.10231669311453558
1.5334510803222656,0.03236226737499237,0.062373459339141846,-0.1070098876953125,-5.043450832366943,-0.6921324729919434,-0.16506020724773407,-0.7280631375311224,-0.12312063545047375,-0.11230710427234644
1.5434401035308838,0.04511565715074539,0.03326219320297241,-0.1654125452041626,-5.16642427444458,-0.6735544204711914,-0.1422482281923294,-0.7786704163109354,-0.13778759751644787,-0.12355911862402467
1.5548789501190186,0.03257223218679428,-0.03945469856262207,-0.16396939754486084,-5.17574405670166,-0.5944018363952637,-0.16521452367305756,-0.8296753345436287,-0.15335784320993126,-0.1364594236439535
1.5636870861053467,0.0013900324702262878,-0.08881664276123047,-0.11831867694854736,-4.970006465911865,-0.6983830332756042,-0.2323126494884491,-0.8797736700498292,-0.17152401761355404,-0.1520487024629086
1.573685884475708,-0.03557926416397095,-0.04808777570724487,-0.0036943554878234863,-4.648717403411865,-0.7727544903755188,-0.25884225964546204,-0.9267533699916279,-0.1932016620202277,-0.1701916835534258
1.5833461284637451,-0.016088902950286865,-4.506111145019531e-05,0.04997372627258301,-4.306342601776123,-0.7752811312675476,-0.27378883957862854,-0.9700876927299004,-0.21736664992355847,-0.1903160107917559
1.5937268733978271,-0.0016216039657592773,0.083249032497406,0.00400543212890625,-4.001791000366211,-0.6985338926315308,-0.2814052104949951,-1.009891634350946,-0.24339535435679485,-0.2125628796416721
1.604464054107666,-0.007236257195472717,0.10001212358474731,-0.04985719919204712,-3.831843852996826,-0.6276432275772095,-0.2851157784461975,-1.0469769307967545,-0.2709550237221928,-0.23702821808064573
1.6138031482696533,-0.012450113892555237,0.0783657431602478,-0.08450925350189209,-3.8589324951171875,-0.5525394082069397,-0.3493586778640747,-1.082929544955613,-0.30207342582532015,-0.26579080006806616
1.6237728595733643,-0.0172722190618515,0.0038423538208007812,-0.08137977123260498,-3.9234824180603027,-0.4351315498352051,-0.38201504945755005,-1.1187830194096011,-0.33804018321353246,-0.30054045315084676
1.6338310241699219,-0.03043954074382782,-0.01726233959197998,-0.08069944381713867,-3.962372064590454,-0.40856143832206726,-0.33221688866615295,-1.1544830852503998,-0.3792243085374206,-0.3414800498900301
1.6449048519134521,-0.031437188386917114,0.0007870197296142578,-0.09613174200057983,-3.9411442279815674,-0.3701396584510803,-0.49971938133239746,-1.1892961009309544,-0.4291936119780078,-0.39133659503164575
1.6575901508331299,-0.029594331979751587,-0.09988826513290405,-0.04982003569602966,-3.7356808185577393,-0.27462005615234375,-0.4063875675201416,-1.2219355019218738,-0.48810530802477986,-0.4509597854049308
1.6659760475158691,-0.05829721689224243,-0.01050865650177002,-0.006263524293899536,-3.376382827758789,-0.2930750548839569,-0.4701900780200958,-1.2507776587983752,-0.5524702838610899,-0.5161830060736861
1.6753928661346436,-0.04513987898826599,0.07229405641555786,0.019179120659828186,-2.8937149047851562,-0.3532702326774597,-0.4857479929924011,-1.2742338746895805,-0.623262543899339,-0.5870571784477338
1.6836988925933838,-0.016331985592842102,0.012568473815917969,0.024811089038848877,-2.424337863922119,-0.3943805992603302,-0.4479030668735504,-1.292434682925759,-0.694752087539918,-0.6576420077990279
1.6938080787658691,0.009095519781112671,0.07140249013900757,-0.0005806684494018555,-2.0740621089935303,-0.4137769341468811,-0.39093324542045593,-1.306395150286478,-0.7637268216526748,-0.7250328619389981
1.7047090530395508,-0.0019064843654632568,0.08430337905883789,-0.013811945915222168,-1.936995506286621,-0.4269677996635437,-0.3808976113796234,-1.317576099311352,-0.8319390321385994,-0.7912828360572048
1.7138211727142334,-0.005388051271438599,0.02494966983795166,-0.008867859840393066,-1.9170582294464111,-0.4471612274646759,-0.3952632248401642,-1.327056674572267,-0.9041564177093901,-0.8612284861761305
1.7241990566253662,-0.007330983877182007,-0.03167450428009033,0.012490645051002502,-1.9439301490783691,-0.416412889957428,-0.401843786239624,-1.335215096476069,-0.9824378164724037,-0.937351125698745
1.7339260578155518,-0.015251323580741882,-0.06659036874771118,0.018525443971157074,-1.7710241079330444,-0.43339478969573975,-0.4033689796924591,-1.3415244231989905,-1.0629462654354085,-1.015763212317346
1.7438108921051025,-0.02610495686531067,-0.04076725244522095,0.061093688011169434,-1.485392689704895,-0.5234017968177795,-0.41700947284698486,-1.3452922061311348,-1.1389096010610766,-1.0888184077936849
1.7549159526824951,-0.013461887836456299,-0.017260432243347168,0.07131327688694,-1.1649510860443115,-0.5554633140563965,-0.3796069622039795,-1.3466920101014381,-1.2046293971207205,-1.1506531701127523
1.7637131214141846,0.01551884412765503,0.013619959354400635,0.0028939321637153625,-0.9601432085037231,-0.5450394153594971,-0.28497618436813354,-1.347051170488576,-1.2582902524503337,-1.1999905619231979
1.7737829685211182,0.02391543984413147,0.05545622110366821,-0.06000816822052002,-0.9256156086921692,-0.4496960937976837,-0.2639148533344269,-1.3471352113597093,-1.305996389004202,-1.243800439026307
1.7837169170379639,0.002382323145866394,-0.006055295467376709,-0.059245891869068146,-0.9332579970359802,-0.41056227684020996,-0.22568297386169434,-1.3469446425049703,-1.3528801031644524,-1.2874782366148918
1.793823003768921,-0.003936707973480225,-0.054667890071868896,-0.036434952169656754,-0.9128541946411133,-0.37025347352027893,-0.15160316228866577,-1.3469359491945778,-1.3983687736932997,-1.3301394748226651
1.8044021129608154,0.0245363712310791,-0.029644250869750977,-0.03903913497924805,-0.8705819249153137,-0.3204662799835205,-0.11320271342992783,-1.3469389012989712,-1.4414521907962152,-1.370774660692317
1.813810110092163,0.02651973068714142,-0.03773564100265503,-0.019415201619267464,-0.8551861643791199,-0.30813583731651306,-0.08297131210565567,-1.3469584580182734,-1.4827901787147661,-1.409964138811708
1.8238041400909424,0.022492706775665283,-0.03700751066207886,0.022431671619415283,-0.889774739742279,-0.29464414715766907,-0.08606962859630585,-1.3466343913324113,-1.5240278503722733,-1.4491357305752988
1.8337759971618652,0.027851253747940063,-0.055500328540802,0.04220879077911377,-0.8829525113105774,-0.2559151351451874,-0.013173854909837246,-1.3464240855297893,-1.5660512961471194,-1.4894159157727314
1.8438198566436768,0.034246087074279785,-0.02166593074798584,0.010126353241503239,-0.8132616281509399,-0.21131566166877747,-0.006991752423346043,-1.3461936214452006,-1.6055636045313852,-1.5275448660505497
1.85434889793396,0.021525755524635315,0.009114444255828857,-0.009348873049020767,-0.8324840664863586,-0.15897895395755768,0.023606369271874428,-1.345834906387818,-1.6432100818086677,-1.5642305564926424
1.8639800548553467,0.007404759526252747,-0.003705918788909912,-0.002421976998448372,-0.9258846044540405,-0.09623341262340546,0.030656451359391212,-1.345302158263491,-1.6827973461867929,-1.6035319135552801
1.8740220069885254,0.0040198564529418945,-0.019136667251586914,-0.00731503963470459,-1.0015045404434204,-0.05298154801130295,0.026206573471426964,-1.344299410057348,-1.7254776798009275,-1.646577837813651
1.8837969303131104,-0.0015029460191726685,-0.045062243938446045,-0.005268212407827377,-1.008953332901001,-0.031098708510398865,0.024317488074302673,-1.3427462889010933,-1.7692615304166228,-1.6910833699475023
1.8939180374145508,-0.007160186767578125,-0.03272455930709839,-0.00711512565612793,-0.8886842727661133,-0.02384425885975361,0.03333468362689018,-1.340959818862646,-1.8098533297365347,-1.7324891658057757
1.9053771495819092,-0.005763590335845947,5.507469177246094e-05,-0.02680707350373268,-0.7451347708702087,-0.02223437838256359,0.042463045567274094,-1.3392747338294342,-1.8439561328428242,-1.7672806696672827
1.9139270782470703,-0.010946229100227356,0.02405691146850586,-0.041961781680583954,-0.6432003974914551,-0.016603656113147736,0.026897132396697998,-1.3376859044881482,-1.8726690498900889,-1.7966230143150093
1.9240429401397705,-0.01541757583618164,0.021376490592956543,-0.04714488238096237,-0.6599761843681335,-0.030535317957401276,-0.005616762209683657,-1.3357560349280106,-1.8987938016941095,-1.8232349950349376
1.934075117111206,-0.021471679210662842,-0.013975262641906738,-0.02513802796602249,-0.6968798637390137,-0.053699225187301636,-0.012917818501591682,-1.3333958051824577,-1.9257406421307388,-1.8505226602518134
1.9440391063690186,-0.02220231294631958,-0.009002506732940674,-0.012864716351032257,-0.7287396192550659,-0.09826647490262985,-0.045524708926677704,-1.3305643232552233,-1.9533108481772428,-1.8781449088998174
1.954822063446045,-0.020223230123519897,-0.006113231182098389,-0.020441316068172455,-0.7485005855560303,-0.13591185212135315,-0.048778828233480453,-1.3272289696804183,-1.9816661961056428,-1.906140582321561
1.9638688564300537,-0.021755605936050415,-0.0018649101257324219,-0.010815128684043884,-0.7033798694610596,-0.17743240296840668,-0.06565085798501968,-1.323748423513965,-2.0086945012577493,-1.9323714810800445
1.97406005859375,-0.020838886499404907,0.023505866527557373,-0.01571236550807953,-0.6771664023399353,-0.1974324733018875,-0.08301493525505066,-1.3200502711240512,-2.0339257954280763,-1.956438240575753
1.9839708805084229,-0.024737805128097534,0.02662968635559082,-0.024257540702819824,-0.6316173672676086,-0.20983093976974487,-0.10337347537279129,-1.3162212919121137,-2.056847403124667,-1.9780326859860065
1.9940149784088135,-0.02704903483390808,0.0355183482170105,-0.023173928260803223,-0.5214945673942566,-0.23588944971561432,-0.09343242645263672,-1.3125795119125858,-2.0767634221437694,-1.9963191578592372
2.0047309398651123,-0.02193474769592285,0.06941896677017212,-0.0028472989797592163,-0.4073479175567627,-0.23631097376346588,-0.08844032883644104,-1.3095077899367817,-2.092743230027438,-2.0103841595631193
2.014091968536377,-0.015263855457305908,0.08587431907653809,0.002886652946472168,-0.33404120802879333,-0.21808910369873047,-0.09289020299911499,-1.3068964553802207,-2.105057166807181,-2.020772574674252
2.024064064025879,-0.025330379605293274,0.08058387041091919,0.007008790969848633,-0.2780585289001465,-0.18429075181484222,-0.10430174320936203,-1.3044920527842572,-2.1149500901308356,-2.028927705051185
2.034090995788574,-0.03392608463764191,0.06420671939849854,0.015368089079856873,-0.2498103678226471,-0.14187777042388916,-0.10701204091310501,-1.30219930710828,-2.1227074535321244,-2.035292491718548
2.0443379878997803,-0.03914368152618408,0.041883885860443115,0.024343982338905334,-0.24469462037086487,-0.11539339274168015,-0.08144388347864151,-1.3000776429210201,-2.1298575971305738,-2.0413518995553077
2.0551869869232178,-0.04005272686481476,0.04487752914428711,0.033023715019226074,-0.31358927488327026,-0.07930383086204529,-0.0720844715833664,-1.2979633363354923,-2.137784679650228,-2.048542322308612
2.0642120838165283,-0.03844231367111206,0.02169853448867798,0.02085842192173004,-0.38625866174697876,-0.030745264142751694,-0.08061132580041885,-1.295430102687796,-2.147355623293444,-2.057927736047609
2.0753729343414307,-0.05014169216156006,-0.026980936527252197,0.031751155853271484,-0.4311870038509369,-0.013135643675923347,-0.0950150266289711,-1.2924297565668497,-2.157992840719059,-2.068743100166439
2.0842411518096924,-0.05384655296802521,-0.051100850105285645,0.03938533365726471,-0.4352344274520874,0.01218804344534874,-0.0764862522482872,-1.2892669805631394,-2.168872875492676,-2.0800556712608853
2.0947680473327637,-0.04449230432510376,-0.047225773334503174,0.015627026557922363,-0.3768843114376068,0.023410605266690254,-0.050921764224767685,-1.2864270074162558,-2.179003467811918,-2.0908153960993276
2.104887008666992,-0.03643643856048584,-0.025025904178619385,-0.0026019811630249023,-0.28534698486328125,0.03266455605626106,-0.03418411687016487,-1.284157383365775,-2.1871885966985016,-2.099642441477635
2.114164113998413,-0.03279578685760498,-0.016710340976715088,-0.005173817276954651,-0.2229224592447281,0.03518097847700119,-0.0199268851429224,-1.2824906077351674,-2.193186208109239,-2.106252547230144
2.1241610050201416,-0.03159339725971222,-0.01906639337539673,-0.012755289673805237,-0.23954527080059052,0.04002326726913452,-0.0017800526693463326,-1.2810667312747124,-2.1988320727225066,-2.1125125335573673
2.1342060565948486,-0.022100523114204407,-0.017641305923461914,-0.015096068382263184,-0.347601979970932,0.04742366075515747,0.0012077477294951677,-1.2793418180690437,-2.206252329633083,-2.1207048411537697
2.144268035888672,-0.014947563409805298,-0.035674989223480225,-0.006998047232627869,-0.4476630389690399,0.05226493254303932,0.0042982930317521095,-1.276954474163643,-2.216460816727711,-2.1319010530700075
2.155531167984009,-0.013408511877059937,-0.043847501277923584,-0.00599275529384613,-0.4847792685031891,0.062270961701869965,0.009612897410988808,-1.2741535864127143,-2.2283732178661326,-2.144931415259748
2.1640679836273193,-0.0069016218185424805,-0.01980578899383545,-0.0197218656539917,-0.4208759069442749,0.05886238440871239,-0.005946887657046318,-1.2713682785109879,-2.239605068175207,-2.1573448929802255
2.174144983291626,-0.007806047797203064,0.0005027651786804199,-0.01588021218776703,-0.30937281250953674,0.039044737815856934,-0.000856788014061749,-1.2690011661441294,-2.2482950401252553,-2.166949815103057
2.1841139793395996,-0.003525674343109131,0.023653924465179443,-0.0011117160320281982,-0.11585687845945358,0.020584767684340477,0.03532012552022934,-1.267810596036301,-2.2537840635223114,-2.1730161886724715
2.194247007369995,0.008354336023330688,0.06350213289260864,-0.0005789697170257568,0.02621770091354847,0.006159490440040827,0.028531726449728012,-1.2677854828087691,-2.255373936604513,-2.1748126557197796
2.2061309814453125,0.004295334219932556,0.05929750204086304,-0.004031509160995483,0.09530596435070038,0.006005559582263231,0.028025992214679718,-1.2684281682908969,-2.2542288915276707,-2.1736768656377445
2.2139909267425537,0.0005975067615509033,0.025928616523742676,0.004004120826721191,0.15917254984378815,0.022004766389727592,0.03418854624032974,-1.2694471440089323,-2.251689970595027,-2.171155206307399
2.22432804107666,0.0026265382766723633,0.021533727645874023,0.01543724536895752,0.29414424300193787,0.012968882918357849,0.030106667429208755,-1.2710980664535938,-2.246562443450915,-2.1659773048855278
2.2343859672546387,0.0030565112829208374,0.023699045181274414,0.021966934204101562,0.4675314724445343,0.009437531232833862,0.04673624411225319,-1.2737500549168206,-2.237441691469638,-2.1565535155102387
2.244270086288452,0.0050860196352005005,0.04192078113555908,0.01753091812133789,0.5488413572311401,0.004544992931187153,0.07358457893133163,-1.2774116795551973,-2.225192811950713,-2.143833708394965
2.254160165786743,0.009631648659706116,0.07240182161331177,0.008638247847557068,0.4563782513141632,0.03205038607120514,0.050073664635419846,-1.2810421346781404,-2.212566065461234,-2.130803824466005
2.264348030090332,0.0029871761798858643,0.026283204555511475,0.012522339820861816,0.23068015277385712,0.08339067548513412,0.041783083230257034,-1.2834246532898366,-2.2036601082002094,-2.122132958429883
2.2744410037994385,-0.007039293646812439,-0.04028111696243286,0.02523602545261383,0.13439196348190308,0.08512678742408752,0.027768731117248535,-1.2847392646360218,-2.1987501884805623,-2.1179211118335273
2.2841179370880127,-0.004007980227470398,-0.03689992427825928,0.04601001739501953,0.12909497320652008,0.07490278035402298,0.0237510334700346,-1.2856821007175432,-2.19489397087553,-2.1147402421647845
2.294098138809204,0.004283055663108826,-0.008141756057739258,0.03505013883113861,0.10016666352748871,0.07560186088085175,0.021207448095083237,-1.286567705321846,-2.1911992191346896,-2.111668699596444
2.304975986480713,0.005833044648170471,0.00940614938735962,0.009747982025146484,0.009688576683402061,0.08947209268808365,0.020406635478138924,-1.287056805130929,-2.189263861322897,-2.110514703068699
2.3146231174468994,0.00348508358001709,-0.010245800018310547,0.004957810044288635,-0.03979295864701271,0.08193641155958176,0.0038556221406906843,-1.287052505582674,-2.1891805943662814,-2.1113344389569053
2.3243439197540283,0.000867202877998352,-0.035778045654296875,0.012892588973045349,-0.0055346679873764515,0.06162923201918602,0.008718075230717659,-1.2868492099673585,-2.1900225837514333,-2.112910624833469
2.334395170211792,0.004973679780960083,-0.022365093231201172,0.006818890571594238,0.09555093199014664,0.04110238328576088,0.014640678651630878,-1.287229217935842,-2.1887448255836386,-2.112090638956705
2.3444058895111084,0.007650285959243774,0.009979665279388428,-0.009771585464477539,0.14207762479782104,0.030322972685098648,0.02464926429092884,-1.2880625254546572,-2.1857045176681864,-2.1092457688255934
2.354336977005005,0.005026534199714661,0.02246028184890747,-0.022375687956809998,0.10179225355386734,0.035907354205846786,0.017820652574300766,-1.2887786143753965,-2.1829565137849967,-2.1066586202737865
2.3644778728485107,0.0008394122123718262,0.0045288801193237305,-0.018812909722328186,0.015016546472907066,0.05437886342406273,0.011017288081347942,-1.2888408529401096,-2.1828757267423966,-2.106917288123131
2.3745229244232178,-0.004934147000312805,-0.02400827407836914,-0.012513652443885803,0.011709699407219887,0.05882767215371132,-0.009098898619413376,-1.2886879720566347,-2.1831862850476718,-2.1077407302646898
2.384895086288452,-0.00593411922454834,-0.029324471950531006,-0.01568603515625,0.09146403521299362,0.0517202764749527,0.0016256507951766253,-1.2888750394552977,-2.1815554079711656,-2.106590748939925
2.3948471546173096,-0.0030900537967681885,0.007609128952026367,-0.013202816247940063,0.21430233120918274,0.03379107266664505,-0.0030375442001968622,-1.2897267558434635,-2.176998626574102,-2.1022921003992447
2.406235933303833,-0.0017081201076507568,0.035815298557281494,-0.004906788468360901,0.28504225611686707,0.031115306541323662,-0.0053895944729447365,-1.290966375405034,-2.1700095407032354,-2.09528432819473
2.4147799015045166,-0.0016619861125946045,0.029054880142211914,-0.00182439386844635,0.28358763456344604,0.039030224084854126,-0.01091512106359005,-1.2924092735004777,-2.161779520945978,-2.0870338166680993
2.424898862838745,-0.003084316849708557,0.02377462387084961,0.001139521598815918,0.26202303171157837,0.042401473969221115,-0.01413903757929802,-1.2938595087468243,-2.1532457249589374,-2.0785963302112886
2.4349238872528076,-0.009747251868247986,0.01783132553100586,0.0296933650970459,0.30139732360839844,0.03632919862866402,-0.03798258677124977,-1.2953423893016602,-2.1435445023259145,-2.0689657205307324
2.4446089267730713,-0.013412520289421082,0.011117160320281982,0.04218028485774994,0.37733370065689087,0.03839026391506195,-0.043071139603853226,-1.296862021907742,-2.131951335469012,-2.0573277511436414
2.454622983932495,-0.010110735893249512,0.02551853656768799,0.025342464447021484,0.4661077558994293,0.05155560374259949,-0.03751472011208534,-1.2986271070332653,-2.1181825281073334,-2.0434668015108652
2.464806079864502,-0.00656658411026001,0.05247056484222412,0.012851938605308533,0.5575531125068665,0.07104767113924026,-0.023618878796696663,-1.3008879651316607,-2.101438474837585,-2.0267048298348533
2.474544048309326,-0.008998751640319824,0.05423319339752197,0.011980891227722168,0.7194072604179382,0.09361982345581055,-0.02396935038268566,-1.3037925180449215,-2.080507532246565,-2.0058223626096394
2.4845359325408936,-0.00924655795097351,0.03357243537902832,0.011069655418395996,0.9775205850601196,0.1224382072687149,-0.007180410902947187,-1.3075789917867175,-2.052543295469518,-1.9779070548638416
2.494616985321045,-0.005660891532897949,0.03790163993835449,0.007916927337646484,1.3905091285705566,0.1497582495212555,0.033872220665216446,-1.3129266273023525,-2.0119467844975505,-1.9373148692502205
2.5045840740203857,-0.0048452019691467285,0.07749032974243164,0.003915548324584961,1.9566067457199097,0.1812974512577057,0.07938697189092636,-1.3201159574194705,-1.9522741813270186,-1.877357633537438
2.5146801471710205,-0.005943581461906433,0.10374593734741211,-0.0008792877197265625,2.516796588897705,0.23941640555858612,0.14260801672935486,-1.3286427713082407,-1.8674999239029724,-1.7921092223029087
2.524665117263794,-0.017171338200569153,0.11587953567504883,0.009387250989675522,3.010983467102051,0.31781959533691406,0.21044065058231354,-1.3369802199994307,-1.755577478282471,-1.6797835534506405
2.534701108932495,-0.028123527765274048,0.12346470355987549,0.04415440559387207,3.586200714111328,0.4159783720970154,0.28635191917419434,-1.3432465109805534,-1.6134422326234314,-1.5376106929177198
2.5447471141815186,-0.03689835965633392,0.10053098201751709,0.08141189813613892,3.9179940223693848,0.4829449951648712,0.29901134967803955,-1.3446024388244946,-1.4445644287587565,-1.3689207920013158
2.555462121963501,-0.05112162232398987,0.07549595832824707,0.1231377050280571,3.9553885459899902,0.5581236481666565,0.34300118684768677,-1.3393357135728425,-1.2701626406963644,-1.1952456892354721
2.5648910999298096,-0.046222150325775146,0.0570223331451416,0.13586801290512085,3.815706253051758,0.6021721363067627,0.3344915807247162,-1.3280122668423093,-1.1092579522484771,-1.0357249842372693
2.575345993041992,-0.03030078113079071,-0.02010476589202881,0.11538167297840118,3.7375917434692383,0.6322424411773682,0.31286272406578064,-1.3116436520797246,-0.9698703898228667,-0.8982325012592437
2.584749937057495,-0.018897905945777893,-0.04888027906417847,0.08955354988574982,3.8526771068573,0.6672699451446533,0.3727795481681824,-1.2910001677965557,-0.8476197532978132,-0.7781733658835833
2.59515118598938,-0.01015569269657135,0.03171563148498535,0.060717612504959106,4.07888126373291,0.6964353322982788,0.4471248984336853,-1.2660080988252191,-0.7371377081315531,-0.6699131231007894
2.604935884475708,-0.01114751398563385,0.11071670055389404,0.059107035398483276,4.258803844451904,0.7444711327552795,0.4725892245769501,-1.2366884087762304,-0.6388465589203083,-0.5740152308957795
2.6147868633270264,-0.015262529253959656,0.10167860984802246,0.05505871772766113,4.376946449279785,0.7932757139205933,0.42629897594451904,-1.2033954871664942,-0.554377454078934,-0.4922726568960354
2.624799966812134,-0.034421488642692566,0.03058803081512451,0.06758040189743042,4.3810811042785645,0.8697807192802429,0.3770127296447754,-1.1672352331899625,-0.4838996747171764,-0.4252043073747447
2.6347479820251465,-0.05247277021408081,0.015680551528930664,0.08551836013793945,4.320413589477539,0.9462501406669617,0.3980453312397003,-1.129742866162281,-0.424518184432151,-0.3700749509620013
2.644836187362671,-0.04733888804912567,0.06668663024902344,0.09616261720657349,4.218777656555176,0.9956719279289246,0.4280361235141754,-1.0919057439237134,-0.37345803055444016,-0.32399565244314243
2.6556079387664795,-0.03436148166656494,0.07031375169754028,0.1001390814781189,4.044037818908691,1.0563774108886719,0.4079156816005707,-1.054509618781169,-0.32969292518376175,-0.28586543323305846
2.6648871898651123,-0.03326907753944397,0.029383480548858643,0.0924842357635498,3.896554946899414,1.1060892343521118,0.3782427906990051,-1.0178921005612056,-0.2920041147072171,-0.25466182058145315
2.6748411655426025,-0.04140409827232361,0.011238396167755127,0.08037698268890381,3.754049301147461,1.1224634647369385,0.3439844250679016,-0.9820579042116386,-0.2591647638425748,-0.22894043460761992
2.6850950717926025,-0.03923852741718292,0.019867658615112305,0.07458865642547607,3.695324182510376,1.0997408628463745,0.313931941986084,-0.946727372370367,-0.23042816445530587,-0.207514347304102
2.694904088973999,-0.029937386512756348,0.0337982177734375,0.07623475790023804,3.715794324874878,1.089418649673462,0.2935025691986084,-0.911196489482423,-0.20481337297908128,-0.18922068304005993
2.7050158977508545,-0.02886190265417099,0.0595054030418396,0.08178305625915527,3.778303384780884,1.0697530508041382,0.3012179136276245,-0.8749649826373279,-0.1814143735778829,-0.17309276505278356
2.7155158519744873,-0.031259872019290924,0.10214757919311523,0.09259474277496338,3.849438428878784,1.0251154899597168,0.31209078431129456,-0.8378474410527543,-0.15992148788017985,-0.15856077962267762
2.7250969409942627,-0.02511143684387207,0.11721205711364746,0.10769867897033691,3.8702914714813232,0.9534378051757812,0.2979212999343872,-0.8000601329682154,-0.14058044839677244,-0.14564023561393236
2.7350940704345703,-0.01714666187763214,0.09330683946609497,0.12105309963226318,3.840543746948242,0.9112256765365601,0.28027838468551636,-0.7621682816732014,-0.12340749894913815,-0.13446026034094122
2.7450411319732666,-0.015294454991817474,0.06726688146591187,0.12581342458724976,3.7936155796051025,0.883165717124939,0.30573707818984985,-0.7245180948123615,-0.1076905988903278,-0.12453047937290927
2.755880117416382,-0.020431526005268097,0.06502455472946167,0.11135554313659668,3.757829427719116,0.8632098436355591,0.33209383487701416,-0.6873014941273198,-0.09301406238264506,-0.11537252746979616
2.7650301456451416,-0.026472024619579315,0.058577775955200195,0.1010291576385498,3.659745216369629,0.8343095183372498,0.2868979573249817,-0.6504898709601766,-0.07948759931144407,-0.10729070330044976
2.7750818729400635,-0.03163312003016472,0.040559470653533936,0.10651463270187378,3.5686209201812744,0.8096840381622314,0.24354465305805206,-0.6146515119270249,-0.06743640391619701,-0.10079001884711769
2.7851200103759766,-0.03815252706408501,0.02748030424118042,0.12205207347869873,3.4821033477783203,0.8065107464790344,0.2527441084384918,-0.5795577921498668,-0.056173894025753277,-0.09514692700936375
2.7950730323791504,-0.04188692197203636,0.03301894664764404,0.10922646522521973,3.3646585941314697,0.7916628122329712,0.23461836576461792,-0.5454823214010543,-0.045493404682910354,-0.09016970976466794
2.805615186691284,-0.04080934077501297,0.032928794622421265,0.10908055305480957,3.23514986038208,0.764382541179657,0.19070784747600555,-0.5125333808442726,-0.03562902880726515,-0.08616554373802296
2.814969062805176,-0.037723056972026825,0.019671529531478882,0.11124718189239502,3.1026692390441895,0.7346240878105164,0.19345888495445251,-0.48088873917296227,-0.026555582816643872,-0.08289908127894474
2.8250720500946045,-0.028949130326509476,0.02619379758834839,0.11756587028503418,2.9651741981506348,0.681662380695343,0.20275358855724335,-0.45053325110250386,-0.01813410156800065,-0.07990210857605932
2.8350000381469727,-0.02713717333972454,0.019394218921661377,0.1299816370010376,2.8395497798919678,0.672480046749115,0.22460748255252838,-0.4215545820514172,-0.01019337883973639,-0.07713071645984515
2.8450469970703125,-0.028903111815452576,0.025029689073562622,0.12930816411972046,2.7464418411254883,0.6566852927207947,0.25878915190696716,-0.39360955658086205,-0.0023760051502976108,-0.07426726841065973
2.8552050590515137,-0.035983145236968994,0.049091070890426636,0.11258560419082642,2.649681329727173,0.6352298259735107,0.26415756344795227,-0.3665153436019443,0.005135276528802685,-0.07148282321596604
2.8651530742645264,-0.03514762222766876,0.03609982132911682,0.08774220943450928,2.488081932067871,0.5761370658874512,0.22055092453956604,-0.34080541300976985,0.012036455856678918,-0.06909571701605459
2.875264883041382,-0.02250632457435131,0.001490950584411621,0.08874648809432983,2.3484954833984375,0.5271013975143433,0.1922881156206131,-0.3165757071250925,0.01812858572156422,-0.06734843656730684
2.8853039741516113,-0.015110503882169724,-0.006831049919128418,0.07289242744445801,2.211158514022827,0.486649751663208,0.18866829574108124,-0.2937046078117687,0.023647838287025404,-0.0658174185621923
2.8953988552093506,-0.013111008331179619,0.026530444622039795,0.06180232763290405,2.050652265548706,0.4694955348968506,0.17396791279315948,-0.2722930975798862,0.02879361293525162,-0.06451051858461848
2.905719041824341,-0.02419767528772354,0.02294754981994629,0.06919074058532715,1.7983198165893555,0.45436346530914307,0.15344266593456268,-0.2529498902502359,0.03371482330516033,-0.06342107156520382
2.9152028560638428,-0.03445373475551605,-0.0152052640914917,0.07745122909545898,1.5647342205047607,0.45868629217147827,0.12771040201187134,-0.23615960933477262,0.03846015552368389,-0.06260932774424177
2.9252090454101562,-0.03547990322113037,-0.04573206603527069,0.0835602879524231,1.401897668838501,0.47411248087882996,0.13746380805969238,-0.22126983034636788,0.04332429241140595,-0.06188591972698853
2.9352290630340576,-0.03496931493282318,-0.03009815514087677,0.07967895269393921,1.2698988914489746,0.4328768849372864,0.14368627965450287,-0.2078924814961735,0.048061447431994544,-0.06106150954511218
2.9452311992645264,-0.039107054471969604,0.014058411121368408,0.08009910583496094,1.2103933095932007,0.4211583435535431,0.1442795693874359,-0.19548196217759234,0.052458876092676014,-0.06024533050178512
2.955674886703491,-0.029910407960414886,0.015357092022895813,0.07069915533065796,1.2452751398086548,0.4278564453125,0.1728033572435379,-0.18317532196541816,0.05689336554084622,-0.059323402239174296
2.9652411937713623,-0.025582943111658096,0.02911292016506195,0.04617941379547119,1.3120206594467163,0.3704071640968323,0.20585474371910095,-0.17028676748027627,0.06114227499096648,-0.05815821767159849
2.9763309955596924,-0.02418038249015808,0.07987573742866516,0.032447755336761475,1.3943262100219727,0.28579777479171753,0.23022399842739105,-0.156634355444201,0.06464328950853485,-0.05680170515977378
2.9852640628814697,-0.007534399628639221,0.09846226871013641,0.028286278247833252,1.4591703414916992,0.21549367904663086,0.22684895992279053,-0.14215891386496549,0.06736161998833273,-0.05541806045034341
2.995285987854004,0.008762165904045105,0.060467034578323364,0.01472407579421997,1.384156346321106,0.1859794557094574,0.1933288276195526,-0.1277771407260046,0.069465749340832,-0.05427647526229949
3.005660057067871,0.0037354454398155212,0.01403520256280899,0.014866650104522705,1.2475147247314453,0.22712214291095734,0.19270889461040497,-0.11443401879930998,0.07165372554095562,-0.05330261989532115
3.0153260231018066,-0.015977948904037476,-0.004877269268035889,0.01815950870513916,1.0633188486099243,0.245321124792099,0.19101007282733917,-0.10276007453456659,0.07416075760239015,-0.05219931014080857
3.02526593208313,-0.03275567293167114,-0.0032226666808128357,0.03177922964096069,0.9124004244804382,0.2592180669307709,0.1563301682472229,-0.09283350683758823,0.07675555585596376,-0.0511929949171544
3.0353381633758545,-0.03184869885444641,-0.027449510991573334,0.04388618469238281,0.8160475492477417,0.27265504002571106,0.12181533128023148,-0.08409769502383246,0.07950007299423213,-0.05048291833046907
3.045417070388794,-0.027216583490371704,-0.036271631717681885,0.0439489483833313,0.7581110596656799,0.25049036741256714,0.11149446666240692,-0.07620133217848209,0.08218904255876092,-0.049967051711612066
3.055669069290161,-0.02456870675086975,0.0047799572348594666,0.04504591226577759,0.7302855849266052,0.20186476409435272,0.12302329391241074,-0.06869938169706623,0.08449966819602145,-0.04941847152060222
3.066200017929077,-0.005886495113372803,0.029735416173934937,0.0388789176940918,0.7465517520904541,0.1788824498653412,0.13189950585365295,-0.061260552735005476,0.0864171547388523,-0.048767129309182075
3.075269937515259,0.008862592279911041,0.03152115270495415,0.032872557640075684,0.726922869682312,0.15615050494670868,0.14443553984165192,-0.05375560257085071,0.08813459019738527,-0.04804478730025427
3.08536696434021,0.003405451774597168,0.031373266130685806,0.028329789638519287,0.6860653162002563,0.15428008139133453,0.16391180455684662,-0.04657021735306877,0.08972279529439985,-0.04712621110278339
3.0954458713531494,-0.003921486437320709,0.02750084549188614,0.026598632335662842,0.616540789604187,0.14660750329494476,0.16190485656261444,-0.03992310145619153,0.09127902444368305,-0.046067851756165845
3.105710029602051,-0.00318300724029541,0.0028745196759700775,0.01994478702545166,0.5783848166465759,0.17286111414432526,0.15146207809448242,-0.033875136498666976,0.0928777497296975,-0.045068435752230566
3.1154110431671143,-0.0038140863180160522,-0.014190653339028358,0.011172592639923096,0.5305984020233154,0.1865561604499817,0.15636016428470612,-0.028186706986615174,0.09473733556863038,-0.044059300560181175
3.125383138656616,-0.007173426449298859,-0.003884732723236084,-0.0017003417015075684,0.5183141827583313,0.17351390421390533,0.15522299706935883,-0.022838143652821653,0.09658205420477786,-0.04298510898483672
3.135457992553711,-0.005377374589443207,0.009887659922242165,-0.0032777786254882812,0.49352702498435974,0.14452619850635529,0.12379555404186249,-0.01765538477792584,0.09818644681710363,-0.04205790302268253
3.1454410552978516,0.007058717310428619,-0.002246539108455181,-0.0072713494300842285,0.47147518396377563,0.12040670216083527,0.07941717654466629,-0.012760202912552152,0.09951306993539669,-0.04152382997806136
3.1557109355926514,0.008775882422924042,-0.007017211057245731,-0.0015068650245666504,0.432332307100296,0.10226204991340637,0.05834118276834488,-0.00817698316607641,0.10063492423575238,-0.04131373079420629
3.1654388904571533,0.005217917263507843,-0.0065912301652133465,0.0001780390739440918,0.35763436555862427,0.08560357987880707,0.04104863852262497,-0.004180365151314646,0.10157068870207336,-0.04122101411819504
3.1755058765411377,0.005756549537181854,-0.003510459791868925,0.0011721253395080566,0.26543810963630676,0.07583989948034286,0.0163816399872303,-0.0010385458219987639,0.102378187323092,-0.04125029813999939
3.185451030731201,0.0073988959193229675,-0.01565355807542801,-0.0034679770469665527,0.1489710956811905,0.07638047635555267,-0.01171225868165493,0.0010395482123475813,0.10313547163944309,-0.041442141095068524
3.1954901218414307,0.004550822079181671,-0.03119589574635029,-0.011852145195007324,0.05932748317718506,0.08251799643039703,-0.03970713913440704,0.0020224786895302878,0.10392800331865967,-0.04180629745248586
3.205703020095825,0.0019269362092018127,-0.039036527276039124,-0.01901918649673462,0.02562641352415085,0.08064242452383041,-0.062316153198480606,0.0023453014569112416,0.10475593143990693,-0.0423620891586125
3.2159600257873535,0.002696886658668518,-0.035568516701459885,-0.02226841449737549,0.032158080488443375,0.06272999942302704,-0.06528797745704651,0.0025479304531971308,0.10547008530011633,-0.0430398899337539
3.225565195083618,0.0012300387024879456,-0.015261797234416008,-0.017022788524627686,0.058792173862457275,0.05674263834953308,-0.055603232234716415,0.0029266714450360324,0.10607064473608191,-0.04369541026284211
3.235560178756714,-0.0024938732385635376,0.0043508149683475494,-0.019474506378173828,0.09497494250535965,0.042995668947696686,-0.04623183235526085,0.0036183919824973477,0.10657806144585229,-0.0442905865224602
3.2455670833587646,-0.004356205463409424,0.013776380568742752,-0.023470520973205566,0.13231132924556732,0.02943609654903412,-0.03835872933268547,0.004727928136569443,0.1069476360755793,-0.044828106182889856
3.2557530403137207,-0.006445534527301788,0.008958892896771431,-0.021922171115875244,0.15692506730556488,0.033443886786699295,-0.027362005785107613,0.006105527567936702,0.10723889758257002,-0.04531006972011933
3.265526056289673,-0.010141417384147644,0.0011540548875927925,-0.019858241081237793,0.1924475133419037,0.04290778189897537,-0.012873769737780094,0.007852734432548155,0.10765787676122299,-0.045709387678750435
3.2756431102752686,-0.01663210242986679,-0.0009174691513180733,-0.021531224250793457,0.19266721606254578,0.025964753702282906,-0.012551261112093925,0.009763830204031208,0.10801844136502525,-0.04603443070606842
3.2855751514434814,-0.017085537314414978,0.003142927773296833,-0.016389429569244385,0.17468509078025818,0.009835317730903625,-0.02085249498486519,0.01219168416575954,0.10820117516705603,-0.046400629247899054
3.2957839965820312,-0.010601572692394257,-0.009324213489890099,-0.01294177770614624,0.10917345434427261,0.001295093446969986,-0.03356003388762474,0.014052705541645574,0.1082662553653889,-0.046809842118751846
3.305835008621216,-0.012587763369083405,-0.02155444025993347,-0.01000148057937622,0.014276719652116299,-0.007171672768890858,-0.05948340520262718,0.014700962077271094,0.10822378180256964,-0.04733111158769138
3.3155879974365234,-0.01724129170179367,-0.03667519614100456,-0.003647327423095703,-0.08413107693195343,-0.0033487053588032722,-0.08125394582748413,0.013999690681843707,0.10811483850549364,-0.047998423929165125
3.3256590366363525,-0.018148668110370636,-0.05320092663168907,0.0012809038162231445,-0.15428397059440613,0.0011334838345646858,-0.0956440195441246,0.012290093863545643,0.10804279418873272,-0.0487536035310906
3.3356740474700928,-0.017965570092201233,-0.048367492854595184,-0.0020580291748046875,-0.18210281431674957,-0.012602834030985832,-0.10689400881528854,0.010226423987496777,0.10794818875045367,-0.04957467053873625
3.3457040786743164,-0.011358171701431274,-0.03169097378849983,-0.0013406872749328613,-0.21335133910179138,-0.04938197880983353,-0.12613853812217712,0.008058250735090292,0.10756199254515864,-0.05052765638250619
3.355926036834717,-0.0015486180782318115,-0.019521908834576607,-0.0010661482810974121,-0.2270277440547943,-0.06396891176700592,-0.1328616887331009,0.005746666110631116,0.10685616151282669,-0.05160138527391288
3.365779161453247,0.007994115352630615,-0.016425205394625664,-0.0072612762451171875,-0.2349395602941513,-0.06366264820098877,-0.12523216009140015,0.003350181992578391,0.10609702308056237,-0.052643048463185155
3.375964879989624,0.008669883012771606,-0.013223485089838505,-0.01136559247970581,-0.23567138612270355,-0.06177206709980965,-0.1182650700211525,0.0012570942009048406,0.1054169427039561,-0.05360344054775645
3.3858091831207275,0.004411645233631134,-0.00611104117706418,-0.0038921236991882324,-0.23634248971939087,-0.06715933233499527,-0.10851380228996277,-0.0005721116696860619,0.10472745761115373,-0.054485107309081904
3.395888090133667,0.003926336765289307,-0.005335846915841103,0.005294144153594971,-0.22352071106433868,-0.0694805383682251,-0.09236998111009598,-0.0019941834486334052,0.10397289829453125,-0.055245679484970285
3.4061381816864014,0.00812782347202301,-0.002395704621449113,0.01454085111618042,-0.20664790272712708,-0.07047270983457565,-0.08275649696588516,-0.002853483732063365,0.1032160529563494,-0.05589005253024833
3.4157931804656982,0.007757730782032013,0.0025111159775406122,0.018824636936187744,-0.19074031710624695,-0.06379669159650803,-0.07939691841602325,-0.0037144877386418164,0.10248392428991844,-0.05649233064003793
