timestamp,accel_x,accel_y,accel_z,rotation_x,rotation_y,rotation_z, pitch,roll,yaw
0.04673910140991211,-0.011537730693817139,-0.01232132688164711,0.014519214630126953,-0.010461333207786083,-0.004210756625980139,0.007937229238450527,-0.02283653903214341,0.06708624102885578,0.0007663294634897574
0.08173799514770508,-0.011415921151638031,-0.010270051658153534,0.015267670154571533,-0.002012987155467272,4.417635500431061e-05,0.009538321755826473,-0.02289099076220536,0.06705598839045981,0.0008591173497063059
0.08819699287414551,-0.012424692511558533,-0.008149916306138039,0.013740956783294678,0.002076962264254689,0.004950251895934343,0.008585496805608273,-0.022876563412337212,0.0670729616571955,0.0009570682141125733
0.10667610168457031,-0.012318886816501617,-0.006040439009666443,0.011403024196624756,0.0034231904428452253,0.009162839502096176,0.007675228640437126,-0.022842272424125253,0.067135107484802,0.0010400201187577766
0.11380195617675781,-0.011578284204006195,-0.006488315761089325,0.011169135570526123,0.00125852320343256,0.009413220919668674,0.00592808797955513,-0.022817119676820048,0.06721864356401676,0.0011082444699881428
0.11518192291259766,-0.01148640364408493,-0.005172934383153915,0.01113218069076538,-0.004345300141721964,0.01098342053592205,0.0026263007894158363,-0.02282925578027093,0.06731011597771684,0.0011541690087242655
0.11857986450195312,-0.010303720831871033,-0.005665689706802368,0.011352479457855225,-0.013174943625926971,0.010998246259987354,-0.0026043604593724012,-0.022910044600911856,0.06740955973482542,0.0011580352476818418
0.1233210563659668,-0.01142837107181549,-0.0087679922580719,0.00973975658416748,-0.018373169004917145,0.010643246583640575,-0.004022760316729546,-0.02306744281278581,0.06751237076325538,0.0011317579076018669
0.12894201278686523,-0.011460654437541962,-0.007934508845210075,0.008356153964996338,-0.016402579843997955,0.01091422326862812,-0.007940749637782574,-0.023241086866747265,0.0676061978472258,0.0010896818825844089
0.13329410552978516,-0.011337868869304657,-0.00546564906835556,0.00639188289642334,-0.006235429085791111,0.014591516926884651,-0.011321899481117725,-0.02336625425094644,0.06772806185759886,0.0010061856789215045
0.1372699737548828,-0.01253240555524826,-0.006132917478680611,0.00397038459777832,0.000577869126573205,0.015475685708224773,-0.014277688227593899,-0.02340792342946626,0.06787017536067777,0.0008862672088774231
0.14239883422851562,-0.01239430159330368,-0.005748765543103218,0.0020073652267456055,0.005465568974614143,0.01705866865813732,-0.014940282329916954,-0.023389979625007495,0.06802234812069916,0.000732183261307343
0.14949512481689453,-0.011298291385173798,-0.0062555838376283646,-0.0007182955741882324,0.005419029854238033,0.01637379080057144,-0.016098223626613617,-0.023347466921673818,0.06817789670601122,0.000576924124434833
0.16001391410827637,-0.010150983929634094,-0.01138264313340187,-0.0021607279777526855,0.003717536572366953,0.013934070244431496,-0.015558934770524502,-0.02330178544461548,0.06831260925093724,0.00040984363751845254
0.1686568260192871,-0.009369857609272003,-0.014873893931508064,-0.0027475953102111816,0.0007800862658768892,0.009169897064566612,-0.012635636143386364,-0.02329877282943303,0.06841674720401573,0.00026645711025098933
0.17890095710754395,-0.009401366114616394,-0.01540551707148552,-2.0503997802734375e-05,0.0014557300601154566,0.006239354610443115,-0.011357851326465607,-0.023296340376280908,0.06847894280898917,0.0001447642596666118
0.18886089324951172,-0.008049771189689636,-0.01663167215883732,-0.0031355619430541992,0.0016031030099838972,0.0034127645194530487,-0.00731751648709178,-0.023286528391239025,0.06851596880681342,5.3822970585348665e-05
0.19888877868652344,-0.006826922297477722,-0.01773250661790371,-0.004207611083984375,0.002406578278169036,-0.0023055747151374817,-0.003938764333724976,-0.02309031198430439,0.06819224292176629,-1.7318294363612427e-05
0.20876502990722656,-0.006184235215187073,-0.01669500209391117,-0.0013990998268127441,0.004853175021708012,-0.005255070514976978,-0.0035908485297113657,-0.022861464271916924,0.06780760872676529,-6.774840956077946e-05
0.2188730239868164,-0.004871182143688202,-0.01748037151992321,-0.0014444589614868164,0.007423924282193184,-0.006601564586162567,0.00100150634534657,-0.02263969696025531,0.06742402381190792,-8.549596545981684e-05
0.2289109230041504,-0.003880046308040619,-0.016109611839056015,0.0007058978080749512,0.007941425777971745,-0.009126108139753342,0.0023356967139989138,-0.022382761845456754,0.06707248476700906,-7.589161193929883e-05
0.2387070655822754,-0.004777930676937103,-0.014147376641631126,0.0005992650985717773,0.009774480015039444,-0.009637434966862202,0.0046734195202589035,-0.021976822800945837,0.06674825244342944,-5.0023623302403e-05
0.24874305725097656,-0.005111493170261383,-0.013228407129645348,-0.00024002790451049805,0.008807453326880932,-0.010493375360965729,0.006928797345608473,-0.02146972269820097,0.06645476158395078,-5.0215324045158265e-06
0.25874805450439453,-0.004834391176700592,-0.010363761335611343,0.0020483732223510742,0.008397060446441174,-0.011920296587049961,0.009746688418090343,-0.020970073218948927,0.06616098005373251,6.689726246112882e-05
0.26879191398620605,-0.0038454681634902954,-0.0076460205018520355,0.004547417163848877,0.007409675978124142,-0.01012022141367197,0.008287808857858181,-0.020480012998222052,0.06590319682106574,0.0001551233855267912
0.27875399589538574,-0.004745647311210632,-0.0064080990850925446,0.005670070648193359,0.005795534700155258,-0.012434509582817554,0.006664878223091364,-0.01998967168852726,0.06568832466002444,0.0002354872852880737
0.2887420654296875,-0.004516318440437317,-0.0067058466374874115,0.008484125137329102,0.005436207167804241,-0.009747911244630814,0.006971833761781454,-0.01955491197738302,0.06548847012389739,0.0002965242117182159
0.29880499839782715,-0.00429130345582962,-0.0026763565838336945,0.010592877864837646,0.006774445995688438,-0.006416031159460545,0.004059667233377695,-0.019111155734783666,0.0653388521902648,0.00034307843232990416
0.3094978332519531,-0.005985379219055176,0.000401277095079422,0.010317206382751465,0.011308726854622364,-0.0037650759331882,0.0004190729814581573,-0.018673216465214658,0.06524689420824635,0.00036086022308566866
0.3189229965209961,-0.004547707736492157,0.0013947021216154099,0.00917142629623413,0.015293083153665066,-0.0010321405716240406,-0.0005053101922385395,-0.018259550080233434,0.06515127165335027,0.00035240802514948684
0.32909297943115234,-0.004324384033679962,0.0020237863063812256,0.009536445140838623,0.016110407188534737,-0.0021532420068979263,-0.0019584374967962503,-0.017844023952268702,0.06504930520304036,0.0003290119816983671
0.339231014251709,-0.0028331726789474487,0.0031820964068174362,0.011455178260803223,0.010662377811968327,-0.0013215369544923306,0.00026982929557561874,-0.017524897686399213,0.06496134196074277,0.000311296802489809
0.34937286376953125,-0.0024958327412605286,-0.0010581649839878082,0.012439072132110596,0.0035147531889379025,0.0003155963495373726,0.0006680786027573049,-0.01734008132888989,0.06489829517742855,0.00030589367473338424
0.35922694206237793,-0.002394862473011017,-0.003927547484636307,0.011728763580322266,-0.005642525851726532,-0.002123858779668808,0.0020052515901625156,-0.017264508359753315,0.06481231632565666,0.0003282745081214003
0.3690309524536133,-0.002412766218185425,-0.002846246585249901,0.013337194919586182,-0.007806827314198017,-0.0024101040326058865,0.0032094265334308147,-0.01723605730568529,0.06472317131071836,0.00036094196158967517
0.37905097007751465,-0.0026790499687194824,-0.003627203404903412,0.014943718910217285,-0.00887209177017212,-0.003356858156621456,0.004501059651374817,-0.017299861539103623,0.06463839015016216,0.00040138853360482734
0.38914012908935547,-0.0027614831924438477,-0.004180630668997765,0.01507037878036499,-0.005115686450153589,0.0003051217645406723,0.006815240252763033,-0.01741080106112714,0.06453761748118086,0.0004630557683422495
0.3992118835449219,-0.0048866868019104,-0.0005574841052293777,0.013255774974822998,-0.000752895837649703,0.003722223686054349,0.006546793505549431,-0.017495552574887472,0.06449607531316044,0.0005334669787784463
0.411592960357666,-0.0068212226033210754,-0.0029497984796762466,0.00948631763458252,0.0018390759360045195,0.00697709433734417,0.006451505236327648,-0.017538021166672562,0.06449278138093405,0.0005947424160039766
0.41916608810424805,-0.006101146340370178,-0.0042190104722976685,0.009132027626037598,0.0030774457845836878,0.005773079581558704,0.007759649772197008,-0.017571275287278008,0.06453578429428498,0.0006570264874543717
0.42931509017944336,-0.0052519291639328,-0.002523895353078842,0.010230183601379395,0.00027108960784971714,0.0022047546226531267,0.007906070910394192,-0.017524102330940684,0.06455630575853728,0.0007286176736498
0.4392428398132324,-0.004525117576122284,-0.0023939181119203568,0.011482656002044678,-0.008575132116675377,0.00022389553487300873,0.006727089639753103,-0.017485671707926375,0.06454659475906592,0.0007951252908625808
0.4494009017944336,-0.0028348341584205627,-0.004655130207538605,0.009118616580963135,-0.020113861188292503,-0.004522701725363731,0.0056755137629806995,-0.017580151067436378,0.06450426896955766,0.0008706399750313418
0.4605419635772705,-0.004416808485984802,-0.00633496418595314,0.009700298309326172,-0.022418560460209846,-0.0029042987152934074,0.006118664052337408,-0.017718867924817354,0.06443830968340285,0.0009472160388547113
0.4717741012573242,-0.006436102092266083,-0.006542295217514038,0.009808063507080078,-0.022121218964457512,-0.0028584026731550694,0.004369606263935566,-0.017865187317266867,0.06438244782410309,0.0010102671760231147
0.48193979263305664,-0.007797017693519592,-0.00416719913482666,0.009168565273284912,-0.017556559294462204,-0.000618684571236372,0.004970948211848736,-0.018053597763363658,0.06430908916702067,0.001066542681841194
0.4890880584716797,-0.009436778724193573,-0.0033890623599290848,0.006287992000579834,-0.007656209170818329,0.004702887963503599,0.002026184229180217,-0.018114705367737214,0.06423978499071599,0.0010980878511439066
0.4992039203643799,-0.011105976998806,-0.004458770155906677,0.005541324615478516,0.004174085333943367,0.011652140878140926,0.0014541372656822205,-0.018039989266357852,0.0642456973431657,0.0011137549007627825
0.5095260143280029,-0.012696564197540283,-0.003344563767313957,0.0033578872680664062,0.013972887769341469,0.014555606991052628,-0.00044203357538208365,-0.0178870654627312,0.06431037550578776,0.0011139495829882787
0.51922607421875,-0.012145698070526123,-0.0040404461324214935,0.0017230510711669922,0.016850432381033897,0.013779029250144958,0.0005278896423988044,-0.017682642642782166,0.06440033526430554,0.0010947603827085304
0.5293340682983398,-0.008524484932422638,-0.006400423124432564,0.0012785792350769043,0.01578032411634922,0.01157442107796669,0.00011307583190500736,-0.017418069240519873,0.06450220369000441,0.001085470411498958
0.5393500328063965,-0.005486607551574707,-0.007368274033069611,0.0005789399147033691,0.009351720102131367,0.005211063660681248,0.003336565801873803,-0.0171804404625947,0.06453114169742726,0.0010981962947144445
0.5493249893188477,-0.0047727301716804504,-0.008334677666425705,-0.001442253589630127,0.00015722285024821758,-0.002466918434947729,0.0033059928100556135,-0.01703293295519091,0.06444251696550017,0.0011275134126081635
0.5597248077392578,-0.0025622546672821045,-0.009254658594727516,0.0007060766220092773,-0.0065568722784519196,-0.01018662378191948,0.0026111742481589317,-0.017006863549086863,0.06426103093485178,0.001161733480584109
0.5693979263305664,-0.00314977765083313,-0.008020760491490364,0.00044727325439453125,-0.005726465955376625,-0.011863615363836288,0.005255746189504862,-0.017024188685228536,0.06400878642653486,0.0012046520874422668
0.5794048309326172,-0.004918240010738373,-0.005280207842588425,-0.00118255615234375,-0.0020217422861605883,-0.011942977085709572,0.00464268634095788,-0.01699969843591389,0.06373193735655984,0.001253733050325548
0.5892999172210693,-0.006027393043041229,-0.005876308307051659,-0.0021240711212158203,0.002842837944626808,-0.010612417943775654,0.0023232330568134785,-0.01693966009488702,0.06343657011769446,0.0012773168247684364
0.599423885345459,-0.006485924124717712,-0.005417909473180771,-0.002425074577331543,0.009228299371898174,-0.010355156846344471,0.0037184630054980516,-0.016816935307868416,0.06316195847615437,0.0013032731464091196
0.6099138259887695,-0.006880998611450195,-0.0035962313413619995,-1.3828277587890625e-05,0.016171161085367203,-0.00656530074775219,0.006388761568814516,-0.016582138144429773,0.06297656219531185,0.0013449066447359086
0.6195077896118164,-0.008763894438743591,-0.004754053428769112,0.004087567329406738,0.017072107642889023,-0.006255841813981533,0.00874565914273262,-0.01629033836936616,0.06286001521080721,0.001412408513681653
0.6296319961547852,-0.008926399052143097,-0.004125677049160004,0.0057468414306640625,0.02028566040098667,-0.004917825106531382,0.010647528804838657,-0.015967096759000748,0.06276258932622153,0.001497322452787256
0.6394457817077637,-0.007459886372089386,-0.003170253708958626,0.007555842399597168,0.019294697791337967,-0.0016176365315914154,0.005213348660618067,-0.01562198252722013,0.06271469952770124,0.0015664100630269598
0.6495769023895264,-0.008202902972698212,-0.0021440740674734116,0.007547557353973389,0.019462494179606438,0.00025585340335965157,0.002588484203442931,-0.01531292797729825,0.06267914661643255,0.0015999306033256783
0.6604349613189697,-0.008391022682189941,-1.5686266124248505e-05,0.009370744228363037,0.018406016752123833,0.000673437025398016,-0.0031136099714785814,-0.015061342603039143,0.06262276163940522,0.0015887352135475765
0.6695818901062012,-0.008007414638996124,-0.0011930018663406372,0.011620163917541504,0.014307462610304356,0.005182922817766666,-0.01005183719098568,-0.014834824415682851,0.06257454394115147,0.0015091846699118896
0.679469108581543,-0.008774153888225555,-0.0009673964232206345,0.012432992458343506,0.007994705811142921,0.006383475847542286,-0.015970179811120033,-0.014670235702652128,0.06254761154176275,0.0013748154975826766
0.689690113067627,-0.007276557385921478,-0.0010713282972574234,0.010010063648223877,0.004318661987781525,0.006595419254153967,-0.017001835629343987,-0.014591053535918703,0.06251472198355996,0.0012027264227476684
0.6994428634643555,-0.006152059882879257,-0.0007041152566671371,0.009571254253387451,0.004454483278095722,0.009499596431851387,-0.018674567341804504,-0.014513749363450503,0.06247344375586455,0.0010167830935373745
0.7099349498748779,-0.006857357919216156,0.0002597849816083908,0.00992429256439209,0.008913513273000717,0.012153347954154015,-0.01498065609484911,-0.0144195902416643,0.06246147137896171,0.0008469715493918495
0.7195348739624023,-0.007802937179803848,0.0016167163848876953,0.00928276777267456,0.01849023997783661,0.016248490661382675,-0.011758231557905674,-0.014268088621063654,0.06250673403618309,0.0007047901065522165
0.7297379970550537,-0.007541485130786896,0.002686047926545143,0.0056955814361572266,0.025256650522351265,0.01903579942882061,-0.010555547662079334,-0.01403796526273537,0.06258092615688794,0.000584478051751541
0.7394428253173828,-0.0061992257833480835,0.004800143651664257,0.006121337413787842,0.026772255077958107,0.017755616456270218,-0.013859997503459454,-0.013800676994948375,0.06265767971041449,0.0004564986160678953
0.749751091003418,-0.004638016223907471,0.0021375101059675217,0.007538914680480957,0.019178716465830803,0.015371556393802166,-0.010833954438567162,-0.013579379500481147,0.06272912518369855,0.00032448018890008127
0.7597429752349854,-0.002978190779685974,-0.00022593699395656586,0.00865238904953003,0.008761230856180191,0.014495110139250755,-0.009576941840350628,-0.013455631716683387,0.06276298444376757,0.00020579003781727608
0.7698209285736084,-0.001961223781108856,-0.002970418892800808,0.006605863571166992,-0.0005256282165646553,0.00922023132443428,-0.011748217046260834,-0.01342301310880091,0.06279892278853663,9.478204583709114e-05
0.7798748016357422,-0.0005706623196601868,-0.003314034081995487,0.005142569541931152,-0.0033834665082395077,0.0012690972071141005,-0.011973254382610321,-0.013461454700874715,0.06276636294671832,-2.699463965143018e-05
0.7898697853088379,0.002014145255088806,-0.004402047023177147,0.005423188209533691,-0.006636251695454121,-0.004815693479031324,-0.00934657920151949,-0.013542395763119346,0.06265331609138436,-0.00013779660697401733
0.7997429370880127,0.0015614330768585205,-0.00352382380515337,0.00622481107711792,-0.009269052185118198,-0.007964881137013435,-0.00874257367104292,-0.013671263655931035,0.06249545836799756,-0.00022806338325435116
0.8107969760894775,0.0010421089828014374,-0.004555496387183666,0.0049512386322021484,-0.011218469589948654,-0.007321062032133341,-0.0074883317574858665,-0.01383320157197501,0.0623279349934046,-0.000303354992544795
0.8197829723358154,-0.000989280641078949,-0.008585205301642418,0.00349348783493042,-0.007342771627008915,-0.008334660902619362,-0.003442723536863923,-0.014002451888015403,0.06217715797388732,-0.0003592026865540378
0.8299059867858887,-0.001633480191230774,-0.008413380943238735,0.004050314426422119,0.001344776013866067,-0.00905926339328289,0.0016560580115765333,-0.014059516259191468,0.06204293384081681,-0.0003644385862929678
0.8396267890930176,-0.0030045397579669952,-0.005940429866313934,0.007155478000640869,0.007480964995920658,-0.00791783258318901,0.004171946085989475,-0.01399744772418632,0.06193361911028982,-0.000339910308002949
0.8520851135253906,-0.003664247691631317,-0.006781912408769131,0.011374235153198242,0.0072678467258811,-0.008138252422213554,0.004595868289470673,-0.013862354147834724,0.06184535339956615,-0.00030296620912734614
0.8604588508605957,-0.0020601078867912292,-0.009374030865728855,0.012371659278869629,0.005365816876292229,-0.006686564069241285,0.007638796232640743,-0.01373839627870174,0.061782118880904596,-0.000241499352077235
0.8697929382324219,-0.00033814460039138794,-0.012362324632704258,0.015091538429260254,-0.004182497970759869,-0.008363600820302963,0.00983009859919548,-0.013659666307908236,0.06173846724461674,-0.000151040725125817
0.8795480728149414,0.00016877055168151855,-0.01241296250373125,0.015384376049041748,-0.008886706084012985,-0.008767069317400455,0.012781945988535881,-0.013664528991118531,0.06168922332553409,-3.364923961013776e-05
0.8896989822387695,0.0004341714084148407,-0.00801521074026823,0.016531825065612793,-0.007351743057370186,-0.004676498472690582,0.013003840111196041,-0.01367656782797326,0.06163735356244779,0.00010902501445297436
0.899683952331543,-0.001616448163986206,-0.0055655017495155334,0.01514524221420288,0.0010228333994746208,0.0027822162955999374,0.010882366448640823,-0.013576704081980473,0.06162793002240592,0.00022906233119989974
0.911923885345459,-0.0035408399999141693,-0.003314100205898285,0.013054192066192627,0.009311972185969353,0.00898316502571106,0.010100889019668102,-0.013400481438764498,0.06167543943383105,0.00032649980770158704
0.9196979999542236,-0.0037021078169345856,0.0029229242354631424,0.01151043176651001,0.01329632755368948,0.013076177798211575,0.003938334062695503,-0.013205919884310096,0.061760427169870506,0.00039032522040653223
0.9294347763061523,-0.004356890916824341,0.0036925720050930977,0.011506795883178711,0.011420663446187973,0.015879686921834946,-0.004500690847635269,-0.01298557027107837,0.061865925257862775,0.0003801384927274491
0.9436750411987305,-0.004387691617012024,0.0026659127324819565,0.012309491634368896,0.003706816816702485,0.014406160451471806,-0.012436112388968468,-0.01279150889009928,0.06200365712983965,0.0002878612488079504
0.9509239196777344,-0.004532016813755035,0.0030785836279392242,0.010608911514282227,-0.0009435948450118303,0.013818933628499508,-0.016763482242822647,-0.012622965227658415,0.062148138254653165,0.00013870599188344282
0.9594941139221191,-0.003664504736661911,0.006170002743601799,0.006925463676452637,-0.0004834006540477276,0.01085243746638298,-0.024409949779510498,-0.012491741692921233,0.06227259780737952,-6.743406717791214e-05
0.969606876373291,-0.003491584211587906,0.006476586684584618,0.0015022754669189453,0.0017330986447632313,0.01145657617598772,-0.027997974306344986,-0.012414033457283237,0.06238976861688336,-0.00033143962516942187
0.9798550605773926,-0.0030871592462062836,0.0047261398285627365,0.00024753808975219727,0.0018678545020520687,0.006595774553716183,-0.027751099318265915,-0.012348678225683498,0.06245845551056375,-0.0006130360959588321
0.9902470111846924,-0.0024244189262390137,0.004774920642375946,0.0004011392593383789,0.00392479682341218,0.0003962460905313492,-0.025989843532443047,-0.012299894094693977,0.06245179124702835,-0.0008851444858829281
0.9997589588165283,-0.0024361945688724518,0.002681555226445198,0.004675924777984619,-0.0019525333773344755,-0.0004919180646538734,-0.02354532852768898,-0.012363845421733171,0.06240248105267571,-0.0011405224989364192
1.0105979442596436,-0.002789486199617386,-0.004622211679816246,0.005824267864227295,-0.008338560350239277,-0.007254393771290779,-0.019653650000691414,-0.012495991870168786,0.062313192130287326,-0.00136115129626384
1.0201730728149414,-0.003252767026424408,-0.007975500077009201,0.00627368688583374,-0.014626549556851387,-0.011836894787847996,-0.01680992729961872,-0.012675464886989618,0.06216595862368617,-0.0015385437580260665
1.0297927856445312,-0.00040306150913238525,-0.008188088424503803,0.0076097846031188965,-0.014009678736329079,-0.012736910954117775,-0.008527923375368118,-0.012872812513356787,0.06198634093931212,-0.0016530148995751084
1.0398619174957275,-0.001059114933013916,-0.009617161005735397,0.008195996284484863,-0.014785191044211388,-0.010084401816129684,-0.0030636494047939777,-0.013111720061256969,0.061833564374184226,-0.0016982672733204258
1.0499649047851562,-0.0003493279218673706,-0.00787882599979639,0.005532026290893555,-0.0071491096168756485,-0.012553063221275806,0.0012613774742931128,-0.013311268411887602,0.06168822452834235,-0.0016913952344250027
1.0601000785827637,-0.0006344988942146301,-0.005957475863397121,0.006988942623138428,-0.004869710188359022,-0.010146898217499256,0.0022808355279266834,-0.013419346172829166,0.06154595702437927,-0.00167174417812237
1.0698390007019043,-0.003239676356315613,-0.005578105337917805,0.007299482822418213,-0.007873022928833961,-0.011341502889990807,0.006824401672929525,-0.013528267138893013,0.06143493845245929,-0.0016174360366889681
1.0799250602722168,-0.0013864487409591675,-0.0016703056171536446,0.00823676586151123,-0.009444820694625378,-0.012527942657470703,0.006369001232087612,-0.013633538145815399,0.06130579209531051,-0.001544782919603077
1.0899879932403564,-0.0006579235196113586,-0.0035544857382774353,0.00987708568572998,-0.016441477462649345,-0.012350664474070072,0.0036109781358391047,-0.013671408501034935,0.061172125069457156,-0.001481851956337459
1.1006560325622559,0.0004038773477077484,-0.0034142863005399704,0.00894087553024292,-0.024991557002067566,-0.019749723374843597,0.0005451469332911074,-0.013744839428020674,0.06099504885227677,-0.0014494083144550324
1.110116958618164,0.00036678463220596313,0.0024012289941310883,0.007822275161743164,-0.03139316290616989,-0.024077892303466797,-0.002295487094670534,-0.01389552392161442,0.06078771969244538,-0.0014297157853528505
1.119931936264038,-1.884251832962036e-05,0.0006215479224920273,0.010931670665740967,-0.03555808216333389,-0.024863790720701218,-0.0030558195430785418,-0.014088310170247136,0.06054743814539388,-0.0014397265817131604
1.1301379203796387,-0.0020343996584415436,0.0010286951437592506,0.010683417320251465,-0.03885484114289284,-0.027441199868917465,-0.002012446289882064,-0.014337316896925504,0.06030444025996372,-0.0014370834278301119
1.1400938034057617,-0.0021978653967380524,0.0031296517699956894,0.007323741912841797,-0.03940531611442566,-0.031213566660881042,-0.00041614763904362917,-0.014632021503646484,0.06002512331492878,-0.0014225376900085455
1.1501569747924805,-0.0028748884797096252,0.004899810068309307,0.008423984050750732,-0.033240415155887604,-0.03539726138114929,0.0019131065346300602,-0.014891310381798513,0.05967938060520368,-0.001390779828446172
1.160243034362793,-0.0031356848776340485,0.00290708988904953,0.008028507232666016,-0.038238637149333954,-0.041119858622550964,0.0069821672514081,-0.015236120728274741,0.059314186722934904,-0.00132341617018746
1.1700358390808105,-0.003485962748527527,0.006529365666210651,0.006034553050994873,-0.046450577676296234,-0.05029147490859032,0.011373559944331646,-0.015565908767899799,0.058885770624117546,-0.0012093804247899818
1.1800870895385742,-0.0022101104259490967,0.0030900519341230392,0.0072174072265625,-0.06869968771934509,-0.06363818049430847,0.016676979139447212,-0.016060339043806056,0.058357077518572435,-0.001039191728519638
1.1900877952575684,-0.001413971185684204,-0.0007176734507083893,0.004130542278289795,-0.09311331808567047,-0.07982069253921509,0.028583547100424767,-0.016862191139412442,0.05768255241882956,-0.0007673242282811392
1.2001118659973145,-0.00372527539730072,-0.005686653777956963,-0.0020164847373962402,-0.09656450897455215,-0.09863805770874023,0.04227938503026962,-0.017772471237754554,0.056834671919138026,-0.0003503768914197351
1.2101099491119385,-0.006256595253944397,-0.010953940451145172,-0.011585414409637451,-0.09210824221372604,-0.12290273606777191,0.062425076961517334,-0.01866063358742024,0.05576395237806441,0.00021395490425011584
1.2202329635620117,-0.006991531699895859,-0.0037560444325208664,-0.018285036087036133,-0.08245454728603363,-0.15810732543468475,0.08234286308288574,-0.01947374780094185,0.054391699292949916,0.0009993405118206718
1.231712818145752,-0.006342042237520218,0.0010339617729187012,-0.019767165184020996,-0.1163075864315033,-0.19427324831485748,0.09829524904489517,-0.02040597046269036,0.052656997070155684,0.0019342940549198961
1.2401118278503418,-0.0032974816858768463,-0.009487377479672432,-0.03063833713531494,-0.13513508439064026,-0.2449215054512024,0.11451868712902069,-0.021573930710176298,0.0505412084100295,0.003079646126668419
1.250135898590088,-0.0005551613867282867,-0.01912408135831356,-0.038776516914367676,-0.15051469206809998,-0.31330764293670654,0.12298951297998428,-0.022971236650399577,0.047842257562553614,0.00433041808056787
1.260159969329834,0.0007659271359443665,-0.026132602244615555,-0.04529237747192383,-0.17412282526493073,-0.40227267146110535,0.1529996246099472,-0.02453281086001554,0.044397275175680366,0.005761980995620143
1.2700409889221191,0.004700955003499985,-0.019770968705415726,-0.052309274673461914,-0.11364684253931046,-0.5042204260826111,0.184958815574646,-0.025755183186935725,0.04000046989374081,0.007549962626170197
1.2802181243896484,0.001931365579366684,-0.035789959132671356,-0.06851357221603394,-0.03476827219128609,-0.5905649065971375,0.20925776660442352,-0.02633247070333395,0.03467793876727503,0.009529249674408893
1.2903029918670654,-0.007940365001559258,-0.043635375797748566,-0.08404695987701416,0.004758948460221291,-0.6694169044494629,0.26710397005081177,-0.02622802657340612,0.028476839463312666,0.011922003262402028
1.300281047821045,-0.01987476460635662,-0.04526249319314957,-0.10657304525375366,0.09646064043045044,-0.8015099763870239,0.32557767629623413,-0.025657687647236402,0.021256412702577242,0.014863328104839904
1.3105709552764893,-0.02822018414735794,-0.09546402096748352,-0.12343323230743408,0.06887496262788773,-0.9364681839942932,0.3810670077800751,-0.02475724581065012,0.012644933147898442,0.018425828432513554
1.3203730583190918,-0.025221869349479675,-0.11870507895946503,-0.16323977708816528,0.08111405372619629,-1.0427730083465576,0.46884027123451233,-0.023965475678371338,0.0028378053466427263,0.022657515646715653
1.3315119743347168,-0.047295525670051575,-0.14515738189220428,-0.19501852989196777,0.0861172005534172,-1.185575246810913,0.5540955066680908,-0.02313483705090108,-0.008187953927059476,0.027793169307316023
1.3410000801086426,-0.07325339317321777,-0.21185331046581268,-0.24920868873596191,0.1493353247642517,-1.3595949411392212,0.6308366060256958,-0.02209673607965475,-0.020778069149987678,0.03374463217143882
1.350909948348999,-0.08395062386989594,-0.23658864200115204,-0.26107537746429443,0.23654024302959442,-1.506493330001831,0.7236311435699463,-0.020418722678556066,-0.035021589337154914,0.04052790761544506
1.360386848449707,-0.09874418377876282,-0.2165256291627884,-0.26052242517471313,0.32676517963409424,-1.6479661464691162,0.8359693884849548,-0.01790286651286934,-0.05066939594765462,0.04848887892094921
1.370255947113037,-0.11730340868234634,-0.1912790834903717,-0.2384251356124878,0.3772903084754944,-1.7782753705978394,0.891205370426178,-0.014842182983610947,-0.06772308426286118,0.057327282290585396
1.3802719116210938,-0.14012578129768372,-0.1823749989271164,-0.2215980887413025,0.3382036089897156,-1.8843871355056763,0.9808878898620605,-0.011904029372405547,-0.08596907556846871,0.0669333726199655
1.3902521133422852,-0.1544511914253235,-0.1994609832763672,-0.21821486949920654,0.1754540652036667,-1.9886280298233032,1.0489195585250854,-0.010297894911797379,-0.10522438677762215,0.07731917154874518
1.4004578590393066,-0.14883753657341003,-0.20067909359931946,-0.22027605772018433,0.03854840248823166,-2.0775678157806396,1.1112916469573975,-0.010493679507301547,-0.12550085488564716,0.08817407586590027
1.4103097915649414,-0.13735125958919525,-0.1675223410129547,-0.23686015605926514,-0.07196345925331116,-2.1033027172088623,1.1604788303375244,-0.01217285225194745,-0.14640058101451658,0.09941332743332472
1.4203259944915771,-0.12985199689865112,-0.1427285373210907,-0.20861846208572388,-0.2527731955051422,-2.1197304725646973,1.1948585510253906,-0.015547110175474171,-0.1672265710504373,0.11091667686676632
1.4302699565887451,-0.12842445075511932,-0.1542491912841797,-0.15247052907943726,-0.3769087493419647,-2.2130720615386963,1.141766905784607,-0.020782003962783013,-0.18886878460691747,0.12176272156042894
1.440375804901123,-0.13624201714992523,-0.17728109657764435,-0.06602054834365845,-0.518588662147522,-2.144050359725952,1.1819970607757568,-0.02750424575028683,-0.2104182719589948,0.13234802744045002
1.4504289627075195,-0.1400558352470398,-0.15376247465610504,0.0015061497688293457,-0.4950964152812958,-2.1644949913024902,1.1295331716537476,-0.03504096407910093,-0.2316900283136212,0.14249456283904027
1.460507869720459,-0.15550360083580017,-0.14275850355625153,0.045610129833221436,-0.3372335433959961,-2.2058568000793457,1.132682204246521,-0.04192540702031404,-0.2531744385750327,0.15245051932148546
1.471250057220459,-0.1454554796218872,-0.10292832553386688,0.034262239933013916,-0.050450295209884644,-2.174268960952759,1.141880750656128,-0.04680829645397995,-0.27477521910989794,0.16299603594888692
1.4809339046478271,-0.12632739543914795,-0.0570979081094265,0.03381550312042236,-0.10633699595928192,-2.0654776096343994,1.0241960287094116,-0.05048173562065003,-0.29526141489012414,0.17309933333733787
1.4904789924621582,-0.13921737670898438,-0.09425632655620575,0.02406531572341919,0.043933797627687454,-2.0341625213623047,1.1823279857635498,-0.054091017808488004,-0.3153508797324629,0.18361393000360315
1.500514030456543,-0.1375763714313507,-0.14254850149154663,0.0673643946647644,0.1182064339518547,-1.8077850341796875,1.0725703239440918,-0.0569469202172292,-0.334150838740783,0.19470873680751238
1.5107231140136719,-0.19750764966011047,-0.2192830890417099,0.11684304475784302,0.1373579204082489,-1.5715968608856201,0.9874364137649536,-0.05925302982372752,-0.35023496044996427,0.20474244460477398
1.5205729007720947,-0.29273849725723267,-0.3051587641239166,0.11483234167098999,0.27415332198143005,-1.4070531129837036,0.9921022653579712,-0.06075029157287789,-0.3645782707572032,0.21486394659354477
1.5308470726013184,-0.24435955286026,-0.3346055746078491,0.13429045677185059,0.46151962876319885,-1.1909517049789429,0.9125558137893677,-0.06071707079944184,-0.3769370319712691,0.22509412274686552
1.5432779788970947,-0.18299910426139832,-0.2537704110145569,0.1325557827949524,0.5488311052322388,-0.9947025775909424,0.9059802293777466,-0.05934719475922181,-0.3872551635945333,0.2354291576296136
1.5515449047088623,-0.20630306005477905,-0.20202550292015076,0.12184524536132812,0.6802859902381897,-0.8388994932174683,0.9169673919677734,-0.057128577338306626,-0.39589581801844786,0.24622085445663427
1.5605299472808838,-0.20738914608955383,-0.23705992102622986,0.0877305269241333,0.8403003811836243,-0.6824893355369568,0.9425140619277954,-0.05379726456515338,-0.4028480138960414,0.2577142126079065
1.5707058906555176,-0.1951335370540619,-0.246996209025383,0.03681439161300659,1.0342105627059937,-0.4970983862876892,1.020607590675354,-0.04898722275133259,-0.408182022423802,0.2704939539419785
1.5806241035461426,-0.24313071370124817,-0.23133514821529388,0.06266409158706665,1.0296040773391724,-0.25658801198005676,1.0714119672775269,-0.04360481333284521,-0.411245538579277,0.28424232121870335
1.5921130180358887,-0.3217523694038391,-0.20273756980895996,0.13780957460403442,0.9766694903373718,-0.11021916568279266,1.214383602142334,-0.0388526830638888,-0.4124673349840885,0.29880000193857786
1.6006817817687988,-0.370718389749527,-0.19559818506240845,0.23602831363677979,1.154471516609192,0.0057103619910776615,1.4631718397140503,-0.034579075299267105,-0.4125646826573033,0.3151851531926573
1.610703945159912,-0.33877208828926086,-0.1689443290233612,0.3207494616508484,1.0009268522262573,0.24435275793075562,1.478137493133545,-0.030277080962099443,-0.41069852516779165,0.3334253237269422
1.6206779479980469,-0.3008289337158203,-0.20195651054382324,0.26679742336273193,0.5943412184715271,0.32635870575904846,1.5269548892974854,-0.028971674202000083,-0.4072484583177804,0.35012822420062395
1.6312150955200195,-0.3044891655445099,-0.3935343027114868,0.2683623433113098,0.555772066116333,0.43051832914352417,1.6996701955795288,-0.030211871246903735,-0.4031136452580915,0.36728416705462064
1.6421408653259277,-0.1881435513496399,-0.3753349184989929,0.2303958535194397,0.6161837577819824,0.6540587544441223,1.7867436408996582,-0.03154438168553463,-0.3971444704461986,0.3856381334044852
1.650743007659912,-0.1246260404586792,-0.18881279230117798,0.12275665998458862,0.5657989978790283,0.8235284686088562,1.943281650543213,-0.03317924480821936,-0.3890957302604612,0.40516162203550876
1.6606531143188477,-0.08921390771865845,-0.16340145468711853,0.08287793397903442,0.5128577351570129,0.9651199579238892,2.096630811691284,-0.03570825814933045,-0.3794927719506032,0.4259575330607748
1.6709659099578857,0.02927461266517639,-0.1278674602508545,0.11697864532470703,0.4364747703075409,1.139513373374939,2.2235772609710693,-0.039239252804970294,-0.3681657215337033,0.4478109028183035
1.6807489395141602,0.04951253533363342,-0.06603453308343887,0.17877060174942017,0.29349684715270996,1.3199610710144043,2.3062245845794678,-0.04375543330307717,-0.35495093449225223,0.470338569844081
1.6924738883972168,0.06868216395378113,-0.06125767156481743,0.22357386350631714,0.08017297834157944,1.4661755561828613,2.412870407104492,-0.05001757749889356,-0.33995285854103896,0.493218686694892
1.700760841369629,0.159406840801239,-0.06835651397705078,0.2603253126144409,-0.06499966233968735,1.6048036813735962,2.5319740772247314,-0.05802840368141601,-0.3234182134447326,0.5166596312605629
1.711195945739746,0.2432202398777008,-0.08014010637998581,0.28065699338912964,-0.11654435843229294,1.7584713697433472,2.655573844909668,-0.06683846816053196,-0.3052344835127017,0.5411128801582102
1.720660924911499,0.3287160396575928,-0.0312667191028595,0.2594582438468933,-0.03298608213663101,1.9419968128204346,2.7987141609191895,-0.07549741555103465,-0.28502076283379346,0.5670197676193516
1.7307379245758057,0.4147128760814667,-0.008855938911437988,0.21202290058135986,0.10177911072969437,2.132178783416748,2.9220986366271973,-0.08292561856739632,-0.2624645560039719,0.5948012630485261
1.7437679767608643,0.5027168989181519,0.040754154324531555,0.16572612524032593,0.19396761059761047,2.308809757232666,3.0015852451324463,-0.08875693174261999,-0.23773444081422668,0.6240565303104054
1.7515687942504883,0.5473340153694153,0.02260277420282364,0.1566336750984192,0.2685248553752899,2.456458568572998,3.0340349674224854,-0.09322441804812528,-0.21115642076903113,0.6541369921068367
1.7612059116363525,0.5705645084381104,-0.027890950441360474,0.1845533847808838,0.37350985407829285,2.5783629417419434,3.0781495571136475,-0.09607772526678289,-0.18305104381560638,0.684932400045828
1.7706799507141113,0.632919192314148,0.0011433586478233337,0.20050406455993652,0.46799153089523315,2.6722326278686523,3.0769290924072266,-0.09704671737592796,-0.15374569168342322,0.716179124980823
1.7808079719543457,0.6959944367408752,0.07112077623605728,0.18830937147140503,0.562882661819458,2.703770875930786,3.051185369491577,-0.09614162053620133,-0.1238066696156285,0.7474540206733294
1.7920918464660645,0.728142499923706,0.1223815530538559,0.1600356101989746,0.6617870926856995,2.671577215194702,2.9641401767730713,-0.09334548351637355,-0.09392339884399004,0.7782126676308924
1.8008460998535156,0.7443361282348633,0.15583297610282898,0.10452026128768921,0.6668732166290283,2.567511558532715,2.8149383068084717,-0.08885188038452682,-0.06495056900878513,0.8077778600724709
1.8107237815856934,0.7668598294258118,0.17733395099639893,0.01487511396408081,0.46901848912239075,2.2892725467681885,2.5875494480133057,-0.08445475490176209,-0.038169275695941175,0.8352392884088798
1.8207659721374512,0.74028480052948,0.1724710613489151,-0.05822533369064331,0.07175315916538239,1.8874320983886719,2.203537940979004,-0.08221454575365088,-0.015147552785957363,0.8595069187951525
1.8308920860290527,0.6625968813896179,0.21406885981559753,-0.04860121011734009,-0.5201529264450073,1.359419822692871,1.666122555732727,-0.0845090042660318,0.002756992457707929,0.8790211707262616
1.8427400588989258,0.5327174067497253,0.34993070363998413,-0.021207571029663086,-1.1036882400512695,0.8054682612419128,1.060383915901184,-0.0925844376449361,0.014831816217766584,0.8927695804365172
1.8510169982910156,0.4016043245792389,0.4662342369556427,-0.04494178295135498,-1.349225401878357,0.2958861291408539,0.5415101051330566,-0.10498832052670815,0.021059355906205664,0.901006374723127
1.8608970642089844,0.31591174006462097,0.49997279047966003,-0.11371880769729614,-1.2744958400726318,-0.03171597421169281,0.1592136174440384,-0.11816099060404822,0.02265739197422262,0.9047402074947617
1.8712189197540283,0.2569139003753662,0.4316941499710083,-0.1489202380180359,-0.936162531375885,-0.13787521421909332,-0.06840510666370392,-0.12944294198608358,0.02174239307010516,0.9053364909660756
1.8808929920196533,0.18014433979988098,0.2701037526130676,-0.09497642517089844,-0.34139400720596313,-0.019094232469797134,-0.1672576516866684,-0.1359236571152162,0.020700932490758654,0.9042173282578105
1.8922300338745117,0.12234263122081757,0.13236713409423828,-0.03429490327835083,0.24222378432750702,0.16372427344322205,-0.1302407681941986,-0.1364273995357633,0.02121215191111118,0.9026412643018633
1.9009928703308105,0.09500133991241455,0.02796068787574768,-0.0241737961769104,0.6300346255302429,0.34556305408477783,-0.028491245582699776,-0.1318757051338808,0.023675453020512688,0.9017444370815707
1.9109411239624023,0.09001581370830536,-0.055392809212207794,-0.028961896896362305,0.7146033048629761,0.4286743998527527,0.04159851744771004,-0.12499306314386704,0.02760392712861455,0.901659590198025
1.92091703414917,0.07995066046714783,-0.06707337498664856,0.018165946006774902,0.5589468479156494,0.40856489539146423,0.07339959591627121,-0.11846736446572415,0.03191147626405605,0.9020746823907014
1.9309611320495605,0.07245111465454102,-0.056756988167762756,0.04086661338806152,0.23366467654705048,0.29792678356170654,0.07685909420251846,-0.11442547284104103,0.03557687033082222,0.9027171247440031
1.9425311088562012,0.08376610279083252,-0.04071478545665741,0.017427563667297363,-0.08010230958461761,0.15813717246055603,0.06566663086414337,-0.1136830166819368,0.037932269203914154,0.903410065477148
1.9511549472808838,0.08558038622140884,-0.035309746861457825,-0.007441341876983643,-0.29182168841362,0.04375059902667999,0.0656224712729454,-0.11556879574644169,0.03900275523767817,0.9041524706011232
1.9611189365386963,0.07744071632623672,-0.025323353707790375,-0.037491440773010254,-0.3970375955104828,-0.01697027124464512,0.06471992284059525,-0.11908006245689981,0.03917948983033602,0.904927576797783
1.9708828926086426,0.061107244342565536,-0.026061132550239563,-0.06604117155075073,-0.3861463963985443,-0.017051586881279945,0.05696677416563034,-0.12303588113233549,0.03908188549121085,0.9057059552168636
1.9814069271087646,0.037294693291187286,-0.031393468379974365,-0.08735352754592896,-0.2851332128047943,0.011123592033982277,0.0540788397192955,-0.12642616832955023,0.03912282345805641,0.9064027949368086
1.9926800727844238,0.024285584688186646,-0.0354909747838974,-0.10688495635986328,-0.11970030516386032,0.045728132128715515,0.044210441410541534,-0.12848039748573747,0.03948057478311731,0.9069798773248222
2.001330852508545,0.02815321460366249,-0.023075684905052185,-0.10079187154769897,0.08407705277204514,0.07714597135782242,0.01350020058453083,-0.1285935125617036,0.04015143961929246,0.907286839374632
2.011169910430908,0.0278940349817276,-0.008365854620933533,-0.07866430282592773,0.1961061805486679,0.06642195582389832,-0.013324649073183537,-0.12714702265874617,0.04088273665731942,0.9072214762130694
2.021152973175049,0.034671153873205185,-0.013566277921199799,-0.07460331916809082,0.24395360052585602,0.03413166105747223,-0.04159969463944435,-0.12491396619402653,0.04134606937828964,0.9068595627859821
2.0313498973846436,0.04430239275097847,-0.02744171768426895,-0.06585860252380371,0.23486582934856415,0.0010747751221060753,-0.0530189573764801,-0.12252048259523614,0.04143849938159615,0.9062668129293903
2.042004108428955,0.04431344196200371,-0.020603373646736145,-0.041616618633270264,0.20069028437137604,-0.021883537992835045,-0.051288701593875885,-0.12035061990723035,0.041247168872021636,0.9056550354747498
2.051050901412964,0.04266293719410896,-0.02395254373550415,-0.005908370018005371,0.1433539241552353,-0.02610762231051922,-0.037319839000701904,-0.11863690845518624,0.04094903950441348,0.9051284593486151
2.0613389015197754,0.03472227230668068,-0.022398613393306732,0.014406263828277588,0.052058104425668716,-0.015591597184538841,-0.013148187659680843,-0.11764061136086165,0.04070429003403769,0.904839684654029
2.0711798667907715,0.03756887838244438,-0.024169400334358215,0.004997968673706055,-0.04147882014513016,-0.008805818855762482,0.004759971983730793,-0.11762601707019497,0.040588040534667226,0.904814546202808
2.0816330909729004,0.04190489277243614,-0.032352887094020844,0.005589962005615234,-0.09783237427473068,-0.017724478617310524,0.006628179457038641,-0.11833765019540357,0.04048127634046105,0.9049208448610312
2.0934557914733887,0.035762012004852295,-0.0347728356719017,0.013704359531402588,-0.12391815334558487,-0.03191934898495674,0.0022582518868148327,-0.11945320914273404,0.040311016548180284,0.9050377701812153
2.103898048400879,0.03121419996023178,-0.030001647770404816,0.01734304428100586,-0.12445664405822754,-0.04720669239759445,-0.012653320096433163,-0.12064150683519359,0.0400098411484353,0.9050372506180505
2.1164698600769043,0.02888408675789833,-0.02387963980436325,0.009214997291564941,-0.08440618216991425,-0.04610640928149223,-0.01351820770651102,-0.1216066524136449,0.03964079914530277,0.9049665088701019
2.1300439834594727,0.02499731257557869,-0.02257157862186432,0.004347741603851318,-0.020450102165341377,-0.025058647617697716,-0.018100442364811897,-0.12205667498995901,0.03940795437965874,0.9048432776593356
2.1345279216766357,0.015210721641778946,-0.01585407555103302,0.007749438285827637,0.05322300270199776,0.004153522662818432,-0.019283577799797058,-0.1218070548852861,0.0394278892785017,0.9046689229396173
2.1453709602355957,0.009940255433321,-0.006042122840881348,-0.0059621334075927734,0.10571124404668808,0.023931488394737244,-0.016682734712958336,-0.12091492212538968,0.03969134256085336,0.9044812235361387
2.151123046875,0.009903237223625183,-0.0022026151418685913,-0.008655905723571777,0.13458187878131866,0.0278363935649395,-0.009802352637052536,-0.11956812675675908,0.04012209310820062,0.9043319166003658
2.1613619327545166,0.008577760308980942,-0.008059985935688019,0.0013005733489990234,0.1209195926785469,0.03458723798394203,-0.005864069797098637,-0.11801403772731404,0.040712343807915746,0.9042390174521523
2.1712849140167236,0.007111113518476486,-0.016529090702533722,0.00427854061126709,0.08897138386964798,0.016254127025604248,0.00475991889834404,-0.11661636274604853,0.04129174334254569,0.9042137754822019
2.181549072265625,0.001943390816450119,-0.024309784173965454,-0.008956074714660645,0.034661270678043365,-0.0066125718876719475,0.01466368231922388,-0.11553970837129406,0.0418503672806885,0.9043593764159252
2.1921567916870117,0.005704838782548904,-0.02262616902589798,-0.01722055673599243,-0.041023436933755875,-0.027428194880485535,0.02853395789861679,-0.11524266837691152,0.042163940038073784,0.9046286356544264
2.2012858390808105,0.004395093768835068,-0.0139685720205307,-0.015059471130371094,-0.13078847527503967,-0.04697499796748161,0.03326879069209099,-0.11580513153211158,0.04221029332707948,0.9050273842089827
2.211337089538574,-0.004213377833366394,-0.007563143968582153,-0.008058607578277588,-0.21726909279823303,-0.061421845108270645,0.041043784469366074,-0.11737545808313482,0.04192841013593689,0.9055054769232623
2.2217319011688232,-0.010767638683319092,-0.0006160885095596313,-0.0039029717445373535,-0.2800384759902954,-0.06872770190238953,0.04271092265844345,-0.11981442820239001,0.04147205815721414,0.9060374976193402
2.2314658164978027,-0.006844226270914078,0.009146787226200104,0.0077353715896606445,-0.27709248661994934,-0.0656655952334404,0.035809341818094254,-0.12253795967882682,0.040991514839466114,0.9065625750492985
2.2425570487976074,-0.0013778097927570343,0.014050386846065521,0.014590680599212646,-0.2692659795284271,-0.07276292145252228,0.031721655279397964,-0.12502336751318013,0.040477083366764435,0.9070301400962875
2.251330852508545,0.0021014437079429626,0.013161808252334595,0.017328381538391113,-0.2352171689271927,-0.07131984084844589,0.02526508830487728,-0.12710338586102055,0.03988708862768567,0.9074366219745752
2.2614288330078125,0.004606012254953384,0.0009666234254837036,0.02826625108718872,-0.15373003482818604,-0.06431572884321213,0.020172856748104095,-0.12829137292540815,0.03921354867143486,0.9077466616423286
2.2714149951934814,0.0065639689564704895,-0.007715150713920593,0.031788766384124756,-0.10077498853206635,-0.05977122113108635,0.019435161724686623,-0.12882940748716656,0.03867247725636881,0.9080054664024144
2.2814300060272217,0.009091202169656754,-0.01557333767414093,0.03757995367050171,-0.02551085501909256,-0.05135616287589073,0.015149069018661976,-0.12890624045394897,0.038201302462776164,0.9082098158211329
2.292517900466919,0.007790420204401016,-0.018321022391319275,0.045673370361328125,0.0207369327545166,-0.028951968997716904,0.006732256151735783,-0.1285073269548478,0.037772042727627284,0.9083192251299371
2.301424980163574,0.0038349702954292297,-0.004111200571060181,0.04328840970993042,0.05405893549323082,-0.021802976727485657,0.0001257522962987423,-0.12793416127347193,0.037403217462174454,0.9083290097443693
2.311400890350342,0.0014102645218372345,-0.002336934208869934,0.034260332584381104,0.0671599879860878,-0.028783034533262253,-0.015531344339251518,-0.1273760600953746,0.03712198869990407,0.9082226562737689
2.321368932723999,0.002964463084936142,-0.0027552545070648193,0.020209670066833496,0.07233211398124695,-0.04716790094971657,-0.032237086445093155,-0.12685941687718405,0.03675232524330177,0.9079613235611387
2.331453800201416,0.0038309507071971893,0.0008872002363204956,0.007991313934326172,0.061866212636232376,-0.07099906355142593,-0.044641610234975815,-0.12638698904760498,0.03618390750070666,0.9075473304466738
2.3421878814697266,0.005068983882665634,0.00325581431388855,0.0005574226379394531,0.025518324226140976,-0.09505406767129898,-0.050609756261110306,-0.12602971914506295,0.03537986850650406,0.9070658070521572
2.351428985595703,0.006345920264720917,-0.0023801326751708984,-0.0022402405738830566,-0.009431389160454273,-0.10325060784816742,-0.062073443084955215,-0.1259736902486338,0.034414885450463006,0.9065068180976242
2.3616061210632324,0.0002870410680770874,-0.006179019808769226,0.006833016872406006,-0.037518683820962906,-0.10946030914783478,-0.06838886439800262,-0.12617309186837772,0.03338578501056725,0.9058748262043929
2.37154483795166,-0.004691217094659805,-0.005909860134124756,-0.00042569637298583984,-0.04838872700929642,-0.11866218596696854,-0.08595773577690125,-0.1265477902266312,0.03226782354746403,0.9051376068625822
2.3822669982910156,-0.0007767751812934875,-0.007145360112190247,-0.022026360034942627,-0.0656028613448143,-0.14272411167621613,-0.11832819133996964,-0.1271933705676391,0.030938614223155334,0.9041451058874597
2.393476963043213,0.0016315598040819168,-0.00012877583503723145,-0.035807669162750244,-0.07332941144704819,-0.18632054328918457,-0.17026415467262268,-0.12798042221003547,0.029205066659857212,0.9027365614963815
2.401618003845215,0.00784887745976448,0.013309374451637268,-0.04751080274581909,-0.08806201815605164,-0.23936858773231506,-0.23711562156677246,-0.12883150394517068,0.026923156452627783,0.9007170096003777
2.4118030071258545,0.014956345781683922,0.03960004448890686,-0.06582015752792358,-0.10437612980604172,-0.29942867159843445,-0.3208450973033905,-0.12987808235925546,0.02394365980741742,0.8979386305662118
2.421602964401245,0.020601456984877586,0.060498401522636414,-0.07959198951721191,-0.1079101487994194,-0.3634161651134491,-0.41001784801483154,-0.13103852686718637,0.020222484801423524,0.8942797694112709
2.4316248893737793,0.023214880377054214,0.0709044337272644,-0.08836042881011963,-0.11410374194383621,-0.43352174758911133,-0.5007367730140686,-0.13219339590442697,0.015695067539050752,0.8897177501310053
2.4421939849853516,0.03816879168152809,0.08350805938243866,-0.08899039030075073,-0.13052105903625488,-0.5013894438743591,-0.6005054712295532,-0.13344046457228312,0.010323833792148423,0.8841832031641037
2.45157790184021,0.05001503601670265,0.09558551013469696,-0.07629305124282837,-0.16283223032951355,-0.5525277853012085,-0.7061595916748047,-0.13489537976068508,0.004206942973137527,0.87759216801373
2.4616518020629883,0.06059041619300842,0.09799765050411224,-0.06102365255355835,-0.20944499969482422,-0.5984153747558594,-0.817757248878479,-0.13677297901689886,-0.002601008131661416,0.8698956417350101
2.4717488288879395,0.07954583317041397,0.10343921184539795,-0.04532778263092041,-0.2735498249530792,-0.6433459520339966,-0.9507666826248169,-0.13913586773530467,-0.010047979502369303,0.8609543114863523
2.4816479682922363,0.10083948075771332,0.10467664897441864,-0.030534446239471436,-0.34017863869667053,-0.6969097852706909,-1.1061838865280151,-0.1420778481463102,-0.018214781479342555,0.850525763838175
2.492403984069824,0.12241482734680176,0.09488804638385773,-0.016043365001678467,-0.4442622661590576,-0.7620363235473633,-1.2933905124664307,-0.14569348622060177,-0.027263503025063876,0.8383123831999014
2.5016050338745117,0.15901899337768555,0.0924612283706665,-0.005590200424194336,-0.565654993057251,-0.8273271918296814,-1.5028587579727173,-0.15033783157303243,-0.03733278291477087,0.8239943370074393
2.5118539333343506,0.20819076895713806,0.09020593762397766,0.01923590898513794,-0.6154923439025879,-0.8616657257080078,-1.714453101158142,-0.15559949673633805,-0.04833206412115827,0.8074678239345386
2.5218238830566406,0.24350684881210327,0.0806533694267273,0.04218214750289917,-0.6138052344322205,-0.8624348640441895,-1.914175033569336,-0.16079186780627877,-0.059943771777482543,0.7887548769369932
2.5320959091186523,0.27652519941329956,0.1009117066860199,0.04990905523300171,-0.5918706059455872,-0.8337542414665222,-2.0931742191314697,-0.16549837084339436,-0.07183358390711825,0.7680518909056175
2.543910026550293,0.3094824254512787,0.1072581559419632,0.05725228786468506,-0.4833321273326874,-0.7745100855827332,-2.227386713027954,-0.1693374286928423,-0.08358602334410757,0.7457140909163311
2.5521578788757324,0.32896852493286133,0.09022986888885498,0.0391044020652771,-0.2042030245065689,-0.7527704238891602,-2.342528820037842,-0.17076124357054587,-0.0951423619080127,0.7223131662170721
2.5618600845336914,0.3369268476963043,0.03707578778266907,0.06252247095108032,0.03294774144887924,-0.7603926658630371,-2.5025482177734375,-0.1691279864351745,-0.10685575985434331,0.6977773704930086
2.5717530250549316,0.3338215947151184,0.024638637900352478,0.1009221076965332,0.17465271055698395,-0.7778047323226929,-2.651355504989624,-0.1651677987869381,-0.11885732723040354,0.6718594724218188
2.5819599628448486,0.36844098567962646,0.07785351574420929,0.07047683000564575,0.27219152450561523,-0.7885852456092834,-2.729233980178833,-0.15957834867178158,-0.1310194790550875,0.6450568850974393
2.5923900604248047,0.44460928440093994,0.14763881266117096,0.022648632526397705,0.3069192171096802,-0.7685996890068054,-2.8369319438934326,-0.15288287522021016,-0.14312675897612223,0.6175292553120227
2.6018528938293457,0.475882351398468,0.1898774951696396,0.0019273757934570312,0.3039788007736206,-0.747857928276062,-2.9172203540802,-0.14558194903488697,-0.15490652376491706,0.5891386574449524
2.611898899078369,0.47506505250930786,0.20600073039531708,-0.0039598941802978516,0.3949304521083832,-0.7181373834609985,-2.9344871044158936,-0.1375263099613322,-0.16631304928959414,0.5604747824558468
2.621767997741699,0.46372801065444946,0.21116897463798523,-0.0059999823570251465,0.541809618473053,-0.6519075036048889,-2.9623594284057617,-0.12789404548053052,-0.1769491015106184,0.5319407450044631
2.632004976272583,0.41616982221603394,0.22038397192955017,-0.003174901008605957,0.7080190777778625,-0.6210996508598328,-2.940075635910034,-0.11641141306611089,-0.18672879087054609,0.5037579167782825
2.6427440643310547,0.38374364376068115,0.20471084117889404,0.0024873018264770508,0.9013757109642029,-0.5981733202934265,-2.8950769901275635,-0.10296616862058111,-0.19582273107015827,0.47645913079991054
2.651963949203491,0.35531237721443176,0.15548419952392578,0.026605069637298584,1.054808259010315,-0.5530503392219543,-2.86405611038208,-0.08759348458100369,-0.20410733258351646,0.4500449268199316
2.663525104522705,0.3054809868335724,0.11043352633714676,0.05833327770233154,1.101857304573059,-0.49948033690452576,-2.8530685901641846,-0.07108386899665549,-0.21142185090192644,0.4241998930568694
2.6720519065856934,0.2657753527164459,0.08521337807178497,0.0837525725364685,1.0463436841964722,-0.45286694169044495,-2.827810764312744,-0.054492566298356616,-0.21779579562082033,0.39865725745619
2.6823019981384277,0.2400101125240326,0.06225266307592392,0.1093754768371582,0.971867024898529,-0.3933194577693939,-2.78855037689209,-0.03851065475198727,-0.2231935982833635,0.3733853058089761
2.6920437812805176,0.2190459668636322,0.03890412300825119,0.12002980709075928,0.9336274862289429,-0.34231680631637573,-2.7161476612091064,-0.023048607825908188,-0.22764374708346216,0.34864974516274067
2.701978921890259,0.20415928959846497,0.01705559343099594,0.11334317922592163,0.9016730189323425,-0.2645399868488312,-2.6307780742645264,-0.008029942052904799,-0.23107439206733466,0.3246564914762967
2.7119898796081543,0.19195705652236938,0.029667189344763756,0.12937742471694946,0.9092999696731567,-0.202335387468338,-2.5349767208099365,0.006702770647730551,-0.23338197301378044,0.30157141161036877
2.7219879627227783,0.16992580890655518,0.03702304884791374,0.17618495225906372,0.9750345349311829,-0.16578882932662964,-2.4309866428375244,0.02159810053797862,-0.2348938394720827,0.27954177416189147
2.7318711280822754,0.1377672404050827,0.02707720920443535,0.22853350639343262,1.0285900831222534,-0.1318245530128479,-2.3107924461364746,0.03691226499403608,-0.2357933795654015,0.25879128129459317
2.7420058250427246,0.10724632441997528,0.050937652587890625,0.2514050602912903,0.9830146431922913,-0.09393176436424255,-2.197615385055542,0.05207510239469259,-0.23606220668909839,0.23920288654669053
2.751923084259033,0.08351252973079681,0.08340079337358475,0.255950927734375,0.7997708916664124,-0.07891317456960678,-2.0627264976501465,0.06577856908422171,-0.23577835861369922,0.22052303753810976
2.762104034423828,0.07184407114982605,0.06223497539758682,0.26964104175567627,0.5129740238189697,-0.08152733743190765,-1.973284125328064,0.07697468599514136,-0.2353143648086369,0.20248247853409268
2.7720279693603516,0.06241852045059204,0.003311052918434143,0.2775154709815979,0.16158293187618256,-0.04842038452625275,-1.931980013847351,0.08472649783823889,-0.23446177442459093,0.1841446799224412
2.7821569442749023,0.03955383598804474,-0.04041249305009842,0.27238762378692627,-0.10751111805438995,-0.016569776460528374,-1.8695003986358643,0.08940631137455665,-0.2332134657215765,0.16564326298438176
2.792689800262451,0.013321876525878906,-0.08431656658649445,0.25317513942718506,-0.37532252073287964,0.05864202231168747,-1.8447961807250977,0.09125564026219884,-0.231314394180592,0.1469097169211048
2.802217960357666,-0.009002313017845154,-0.10394194722175598,0.2260150909423828,-0.49895763397216797,0.10252665728330612,-1.8245327472686768,0.0911151463907255,-0.2287456656805091,0.1279258213570432
2.8122498989105225,-0.025091826915740967,-0.12815041840076447,0.1985657811164856,-0.4793020784854889,0.10952898859977722,-1.79523766040802,0.09034099863124162,-0.2259859732777284,0.10907296661273405
2.822153091430664,-0.02663782238960266,-0.1291045993566513,0.1561233401298523,-0.3921748995780945,0.1934172362089157,-1.7605690956115723,0.0900110869126838,-0.2228468652566393,0.09063391430800849
2.8321149349212646,-0.027861177921295166,-0.0784299299120903,0.104714035987854,-0.20034945011138916,0.2595196068286896,-1.6856096982955933,0.09085401016214201,-0.21895126310195848,0.0730794623172066
2.842106819152832,-0.03883068263530731,-0.05408662557601929,0.0788692831993103,-0.024184534326195717,0.30393341183662415,-1.5986356735229492,0.09328071559225792,-0.21464011496612798,0.05668967692359511
2.852038860321045,-0.05030187964439392,-0.03968345373868942,0.08660316467285156,0.09097878634929657,0.33839040994644165,-1.4954625368118286,0.0969583270399562,-0.20996817385520544,0.04156185809479044
2.8621368408203125,-0.06464400887489319,-0.027770236134529114,0.09852868318557739,0.10505172610282898,0.34421101212501526,-1.3948643207550049,0.10094119215026931,-0.20514781549308006,0.027538919748095365
2.872123956680298,-0.10336177051067352,-0.07784215360879898,0.10283327102661133,0.02954157628118992,0.34195801615715027,-1.2978228330612183,0.10436938565162915,-0.20037496928751597,0.014417741832699598
2.8822059631347656,-0.1546185463666916,-0.1349700391292572,0.08889138698577881,-0.10447055846452713,0.3799959421157837,-1.1953563690185547,0.10648789937033339,-0.19548777575075837,0.002038118870246428
2.893734931945801,-0.1916954070329666,-0.1504354476928711,0.054961979389190674,-0.25397881865501404,0.4146019518375397,-1.0889921188354492,0.10690927392141003,-0.19026057769204183,-0.009589212363470474
2.9022698402404785,-0.21840372681617737,-0.1870139241218567,0.01741725206375122,-0.43979477882385254,0.431095689535141,-1.0046721696853638,0.10547899959951547,-0.18485307460018693,-0.02056663081745561
2.9138410091400146,-0.22772160172462463,-0.2390715777873993,-0.0024985671043395996,-0.6495227813720703,0.4344177544116974,-0.9353601932525635,0.10183317877942716,-0.17939126549685677,-0.03116788102458313
2.9220738410949707,-0.2194053828716278,-0.25677794218063354,-0.007571101188659668,-0.7932271957397461,0.4393720328807831,-0.8778148889541626,0.09630673625854441,-0.1740440399511829,-0.041408566118444845
2.93227481842041,-0.20332416892051697,-0.2616852819919586,-0.018878519535064697,-0.9163846373558044,0.4776487350463867,-0.8343114256858826,0.0892633862837707,-0.16848577887523658,-0.05137069208136021
2.942483901977539,-0.18500490486621857,-0.23704102635383606,-0.03642761707305908,-0.9681714177131653,0.4892478585243225,-0.7661222219467163,0.08125523470288415,-0.1628370309267566,-0.06090739274613701
2.9522829055786133,-0.1561635434627533,-0.1789664477109909,-0.04888206720352173,-0.9304097890853882,0.4512636065483093,-0.6491647958755493,0.07292933169192055,-0.15743348610119373,-0.06945703989188073
2.9622960090637207,-0.10808810591697693,-0.12342946231365204,-0.0756562352180481,-0.8866026997566223,0.40514805912971497,-0.5539727807044983,0.06487907102281101,-0.15263536326029625,-0.0768105356901531
2.972270965576172,-0.07373611629009247,-0.11978698521852493,-0.08670622110366821,-0.8798214793205261,0.3449877202510834,-0.4699220061302185,0.05695593792111076,-0.1485000254207085,-0.08319300300124347
2.9823079109191895,-0.06408493220806122,-0.15540553629398346,-0.06057816743850708,-0.9064486026763916,0.2911417782306671,-0.39397451281547546,0.04874593833581115,-0.1450299187132796,-0.0887769117465325
2.992396831512451,-0.0716736912727356,-0.2179335057735443,-0.0209653377532959,-0.9685089588165283,0.2683982849121094,-0.30677276849746704,0.039996569484995206,-0.14205177256457752,-0.09359325749014395
3.0022740364074707,-0.0771946907043457,-0.25968578457832336,-0.0027361512184143066,-1.0836633443832397,0.2524363398551941,-0.22192206978797913,0.03019011394749205,-0.13929169496476274,-0.09766195353007184
3.0128068923950195,-0.07359664142131805,-0.26710861921310425,0.001497507095336914,-1.1933388710021973,0.2380056530237198,-0.11400012671947479,0.019117008046195202,-0.13676965566898255,-0.10090977158149196
3.022368907928467,-0.07046318054199219,-0.2678251564502716,0.0013861656188964844,-1.2366559505462646,0.2164851725101471,-0.01051714550703764,0.0070926106407458835,-0.13445875868058296,-0.103172780982289
3.0324268341064453,-0.0699140876531601,-0.25897809863090515,-0.018035411834716797,-1.2036160230636597,0.20861998200416565,0.07102128118276596,-0.00510228016271263,-0.132347656875577,-0.1044880019591384
3.04252290725708,-0.07367502152919769,-0.23968738317489624,-0.04254966974258423,-1.146799921989441,0.2105529010295868,0.12128977477550507,-0.016909768582590225,-0.1302641104525964,-0.1050747902967693
3.052361011505127,-0.0879666805267334,-0.21077096462249756,-0.06556457281112671,-1.0587488412857056,0.2173355668783188,0.15010277926921844,-0.028065794307433077,-0.12813243061788843,-0.10513084729976632
3.0623528957366943,-0.11146171391010284,-0.19366779923439026,-0.07356643676757812,-0.930168628692627,0.2515002191066742,0.14512985944747925,-0.03814410258106835,-0.1258083162536452,-0.10489340774773581
3.072360038757324,-0.13680367171764374,-0.20134632289409637,-0.0867304801940918,-0.7674575448036194,0.31620845198631287,0.11802846938371658,-0.04677647877569093,-0.12296346934655907,-0.10463747576854718
3.0823659896850586,-0.15622040629386902,-0.19920717179775238,-0.10772156715393066,-0.6099134683609009,0.3928843140602112,0.09861349314451218,-0.05370981224660332,-0.11942758479809248,-0.10440386557202098
3.0930237770080566,-0.15704645216464996,-0.16547438502311707,-0.1184391975402832,-0.5209745764732361,0.4499344229698181,0.1000107005238533,-0.05941487460462158,-0.11517002174700064,-0.10407567236980855
3.1025338172912598,-0.14275532960891724,-0.12249662727117538,-0.10849660634994507,-0.4932864308357239,0.47183308005332947,0.1109834536910057,-0.0645579550762112,-0.11050702425302698,-0.10360021616352826
3.112945079803467,-0.13116958737373352,-0.11808432638645172,-0.08691853284835815,-0.4663558006286621,0.468686580657959,0.10319589078426361,-0.06944924339807755,-0.10576290066068283,-0.10302610002000932
3.1225059032440186,-0.11445129662752151,-0.12576726078987122,-0.07074058055877686,-0.43765169382095337,0.4676801562309265,0.07454667240381241,-0.07407708635773676,-0.10103949654957882,-0.10260187239262089
3.132434844970703,-0.0951053649187088,-0.10906854271888733,-0.062152087688446045,-0.38121163845062256,0.47483259439468384,0.022003941237926483,-0.07821861451954162,-0.09631675540603638,-0.10251540869873453
3.1432018280029297,-0.08341644704341888,-0.08609288930892944,-0.05901998281478882,-0.30627667903900146,0.48486313223838806,-0.03946075215935707,-0.08166693025474936,-0.09154631284840811,-0.10292815140417741
3.152534008026123,-0.08699755370616913,-0.07974286377429962,-0.0599590539932251,-0.22048352658748627,0.5065343976020813,-0.08833082765340805,-0.08423688036346835,-0.08666633596796919,-0.10381864459668814
3.162562847137451,-0.0896419808268547,-0.07242798805236816,-0.06483721733093262,-0.14361058175563812,0.5253418684005737,-0.1289656013250351,-0.08594613253126457,-0.08160231205544632,-0.10506401742742173
3.172481060028076,-0.08350026607513428,-0.04727745056152344,-0.06777065992355347,-0.0868610143661499,0.5284135937690735,-0.15901245176792145,-0.08698355459177451,-0.07643950778794226,-0.10661079974696588
3.1825380325317383,-0.07469934225082397,-0.021600015461444855,-0.05662059783935547,-0.031831853091716766,0.5109933018684387,-0.1738678365945816,-0.08744617971587083,-0.0713859911140824,-0.10833811585980495
3.1931490898132324,-0.06876756250858307,-0.006900474429130554,-0.039209842681884766,0.001562656369060278,0.504341721534729,-0.15641102194786072,-0.08747146682463249,-0.06645365806119587,-0.11002445778894673
3.202578067779541,-0.06527912616729736,0.0014607906341552734,-0.03054267168045044,0.02986966073513031,0.49707743525505066,-0.13788287341594696,-0.0871809824597771,-0.06158065195445939,-0.11146849582376327
3.213420867919922,-0.06232474744319916,-0.0004603639245033264,-0.028860151767730713,0.01880289614200592,0.47896137833595276,-0.12148840725421906,-0.086873191486802,-0.05678599133861959,-0.11276628782788502
3.2224698066711426,-0.05888916179537773,-0.0027899518609046936,-0.026742517948150635,-0.022219905629754066,0.4645709693431854,-0.1122288629412651,-0.08680690987440447,-0.05217092462294366,-0.11393291031189624
3.232759952545166,-0.054770007729530334,-0.012663111090660095,-0.02474677562713623,-0.08657316863536835,0.4493211805820465,-0.11891302466392517,-0.0872977708824866,-0.04769425817441469,-0.11511347109267742
3.242887020111084,-0.05610434338450432,-0.035874076187610626,-0.02427572011947632,-0.12375009804964066,0.42096731066703796,-0.1447422206401825,-0.08829577696070653,-0.043459294947625744,-0.11646981523848947
3.2524890899658203,-0.05630715936422348,-0.06455928087234497,-0.0187910795211792,-0.16664153337478638,0.38685542345046997,-0.18310463428497314,-0.0896885197768035,-0.03956549987646395,-0.11818928274853671
3.262579917907715,-0.055089667439460754,-0.0730559453368187,-0.00923997163772583,-0.21194297075271606,0.3578764796257019,-0.19858478009700775,-0.09150929737323624,-0.03602669318403535,-0.12020372862626869
3.273282051086426,-0.05237391218543053,-0.04865776002407074,0.0048157572746276855,-0.2701852321624756,0.33100059628486633,-0.1777711659669876,-0.09383925567297713,-0.032783107494618824,-0.12220483867567146
3.2828309535980225,-0.05018465220928192,-0.020465627312660217,0.018546700477600098,-0.3237147629261017,0.30378255248069763,-0.13378825783729553,-0.09677311334523399,-0.029762665933203765,-0.12387191148535237
3.292973041534424,-0.050864078104496,-0.003890976309776306,0.030722081661224365,-0.36085933446884155,0.26096585392951965,-0.08504650741815567,-0.10020409905955022,-0.0270491627151261,-0.12506761556074344
3.3026790618896484,-0.05112987384200096,-0.006940051913261414,0.0377315878868103,-0.34228190779685974,0.2167656421661377,-0.06050707399845123,-0.10372925591681476,-0.024750530115431695,-0.12587157856025208
3.3127708435058594,-0.04682625085115433,-0.011149607598781586,0.026570141315460205,-0.3105188012123108,0.19210220873355865,-0.06554194539785385,-0.10699561647684364,-0.022794815892574805,-0.1265801188185232
3.322751998901367,-0.04409141093492508,-0.011061273515224457,-0.0068086981773376465,-0.2539188861846924,0.17996272444725037,-0.07207920402288437,-0.10982305114120079,-0.02102419837252365,-0.12733400929056882
3.332751989364624,-0.044327639043331146,-0.008465252816677094,-0.047715067863464355,-0.18955112993717194,0.17135445773601532,-0.09456741064786911,-0.11203187121853782,-0.019363291871409255,-0.12821663457176288
3.343090057373047,-0.04293837398290634,-0.007149316370487213,-0.08080810308456421,-0.1290624886751175,0.16005732119083405,-0.11125211417675018,-0.11360987483573719,-0.0178314327702787,-0.12929445331560635
3.3526978492736816,-0.042291127145290375,-0.004856966435909271,-0.09650164842605591,-0.061473436653614044,0.1500173807144165,-0.10735730081796646,-0.1145585601966299,-0.016411152037156884,-0.13042457141938887
3.362844944000244,-0.04206298664212227,-0.004856899380683899,-0.09764683246612549,-0.004523332696408033,0.14116770029067993,-0.10134867578744888,-0.11488104343882709,-0.015074525556555255,-0.1314835909014166
3.3727598190307617,-0.03974022716283798,-0.0077758654952049255,-0.09314489364624023,0.052309323102235794,0.1160128116607666,-0.08751008659601212,-0.1146244974896799,-0.013894710388540525,-0.13243439855059103
3.382807970046997,-0.03380897268652916,-0.014852076768875122,-0.07414436340332031,0.0893552228808403,0.08358350396156311,-0.07173485308885574,-0.11389873044442123,-0.01298288882786005,-0.1332384053624929
3.3931589126586914,-0.02655564248561859,-0.021954290568828583,-0.06195831298828125,0.12809371948242188,0.04903355985879898,-0.05493238568305969,-0.11279993025207734,-0.012403117580708695,-0.13384858300295702
3.402841091156006,-0.019170355051755905,-0.028189249336719513,-0.050860464572906494,0.14202657341957092,0.028443593531847,-0.04716607555747032,-0.11142738940089349,-0.012094129984037564,-0.13434766892572297
3.414686918258667,-0.01641073450446129,-0.030175000429153442,-0.0463218092918396,0.14279648661613464,0.01203816570341587,-0.03145534545183182,-0.11000170955569602,-0.011936452141400973,-0.13473917799211457
3.4227781295776367,-0.015423275530338287,-0.03025233745574951,-0.043636322021484375,0.13277289271354675,-4.033511504530907e-05,-0.02527627721428871,-0.1086058610818097,-0.011914885423708875,-0.13500918622130034
3.4328129291534424,-0.013251510448753834,-0.04132365435361862,-0.036757588386535645,0.08719605207443237,-0.006990652531385422,-0.024880051612854004,-0.1074941816775512,-0.011979888952298996,-0.135258186819603
3.443089008331299,-0.011355402879416943,-0.046063169836997986,-0.03475242853164673,0.043759096413850784,-0.02479548193514347,-0.01285561267286539,-0.10682827095692368,-0.012305367523296213,-0.13545653357392407
3.4527621269226074,-0.007474088110029697,-0.04312952607870102,-0.02436584234237671,0.010331014171242714,-0.03863703832030296,-0.0068136462941765785,-0.1065327172045158,-0.012755655524007104,-0.13555677371270308
3.4628589153289795,-0.0050145406275987625,-0.04475905001163483,-0.01352149248123169,-0.014796176925301552,-0.04314284026622772,0.0031047642696648836,-0.10651418418926864,-0.01326498355836708,-0.1355871592762024
3.4728269577026367,-0.0060296375304460526,-0.03729398548603058,-0.007870733737945557,-0.03271913528442383,-0.041479386389255524,0.013666595332324505,-0.10669479585775277,-0.013732946480593622,-0.13550286794736088
3.482805013656616,-0.0034525739029049873,-0.02593272179365158,-0.003058016300201416,-0.047864265739917755,-0.0444144569337368,0.012689747847616673,-0.10700829651001614,-0.014176819558975609,-0.13537445160556183
3.493626117706299,-0.001865946687757969,-0.020478323101997375,0.0051024556159973145,-0.05341722071170807,-0.04782143980264664,0.007930146530270576,-0.10740026667405174,-0.01465294256143844,-0.13528453172215574
3.5029289722442627,-0.0011154748499393463,-0.01405944675207138,0.013143837451934814,-0.049427006393671036,-0.04340725019574165,-0.003655669977888465,-0.10775836482930296,-0.01514750272945596,-0.1352712720799769
3.513185977935791,-0.0007920004427433014,-0.008110128343105316,0.016374707221984863,-0.037267014384269714,-0.0255169328302145,-0.02273349091410637,-0.10788276200231962,-0.015534509417102096,-0.13541040760571327
3.5229358673095703,-0.004713460803031921,-0.006545737385749817,0.01616525650024414,-0.022938409820199013,-0.002143433317542076,-0.04499592259526253,-0.10767520471561146,-0.015718404719703455,-0.13576474124667007
3.533247947692871,-0.01059178076684475,-0.004089765250682831,0.01832789182662964,-0.012188559398055077,0.020710483193397522,-0.059112273156642914,-0.10715409373060622,-0.01565241935054314,-0.1363000076917755
3.5433509349823,-0.014275172725319862,0.00044459104537963867,0.016551554203033447,-0.0005426725838333368,0.04387150704860687,-0.0743822529911995,-0.10639961952926769,-0.015338145874500837,-0.13697520713732433
3.5534110069274902,-0.014621182344853878,0.0013679563999176025,0.01818317174911499,0.007011949084699154,0.06156812235713005,-0.08380424976348877,-0.10560914668927736,-0.01488144585081999,-0.1377772760977645
3.5630359649658203,-0.01712973788380623,0.00263175368309021,0.02394956350326538,0.00758878979831934,0.07698516547679901,-0.08463462442159653,-0.10498274284489624,-0.0142605137699751,-0.1386335501175151
3.573051929473877,-0.01668858714401722,0.0019104629755020142,0.02421039342880249,0.007427419535815716,0.08421710878610611,-0.08291379362344742,-0.10448058112774067,-0.013537235666714652,-0.13948516640609104
3.583030939102173,-0.018129076808691025,-0.0021173208951950073,0.020175516605377197,0.02403249591588974,0.089444100856781,-0.08707871288061142,-0.10405046314898346,-0.01279396060413983,-0.14034527307561817
3.5932278633117676,-0.022141478955745697,-0.008636459708213806,0.016858696937561035,0.04959915950894356,0.10196348279714584,-0.0915246456861496,-0.10360922166608741,-0.012011581385776468,-0.14125931277322748
3.603023052215576,-0.023515313863754272,-0.003005005419254303,0.012341201305389404,0.07558974623680115,0.10569057613611221,-0.09815565496683121,-0.10296395242553387,-0.011243175907123431,-0.14222309293934038
3.613039970397949,-0.024439863860607147,0.0050611719489097595,0.008845329284667969,0.09689947962760925,0.10395219922065735,-0.1087651476264,-0.10215670809534773,-0.010573565433611605,-0.143278487261036
3.623012065887451,-0.02500358410179615,0.0025819167494773865,0.0001347064971923828,0.10779766738414764,0.09550544619560242,-0.11596900224685669,-0.10128980480683739,-0.010021312837971585,-0.1444360198147094
3.6330389976501465,-0.02520785480737686,0.004201062023639679,-0.011392414569854736,0.12168756872415543,0.08551056683063507,-0.12062841653823853,-0.10033721634695579,-0.00958498502237128,-0.1456514387323726
3.6432628631591797,-0.021419145166873932,0.009167492389678955,-0.024682998657226562,0.146555095911026,0.07319530844688416,-0.1251818835735321,-0.09928707045042956,-0.009373840439340418,-0.14692496454121526
3.653014898300171,-0.01744971051812172,0.011507280170917511,-0.029637455940246582,0.1601686328649521,0.06435343623161316,-0.12660875916481018,-0.09800918453301025,-0.009282816046069897,-0.1482227021892253
3.663303852081299,-0.015838399529457092,0.009200870990753174,-0.030571401119232178,0.1498880386352539,0.05789020657539368,-0.1270045042037964,-0.09663170323944582,-0.00924475522855234,-0.14952831780062986
3.6732211112976074,-0.01362233329564333,0.0015727058053016663,-0.02548539638519287,0.12298784404993057,0.04485718533396721,-0.12794971466064453,-0.0952968113569716,-0.0093544296916693,-0.1508430451811822
3.6831789016723633,-0.011247722432017326,-0.01212812215089798,-0.01912921667098999,0.09568165242671967,0.031958431005477905,-0.1329505890607834,-0.09437559075358422,-0.00960839426802763,-0.15219066490113375
3.693175792694092,-0.006880763918161392,-0.020793303847312927,-0.009323656558990479,0.07004302740097046,0.026814360171556473,-0.13055677711963654,-0.09391396829077911,-0.009963454284390641,-0.15356369707084466
3.7031688690185547,-0.0034727882593870163,-0.02313634753227234,-0.0015853643417358398,0.06205328181385994,0.020280560478568077,-0.1314590573310852,-0.09352396352024013,-0.010351542228177602,-0.1549106773626305
3.7131857872009277,-0.00035284459590911865,-0.024502933025360107,0.003009200096130371,0.06797874718904495,0.01849091798067093,-0.1315409243106842,-0.09313410414653037,-0.010741499777551261,-0.15626961679588808
3.7231669425964355,0.0005434583872556686,-0.024307340383529663,0.0029901862144470215,0.09052480757236481,0.021100815385580063,-0.12807855010032654,-0.0926464819122152,-0.01104353477463783,-0.15760773550010787
3.733232021331787,0.0007805796340107918,-0.019731923937797546,0.003796398639678955,0.10487014800310135,0.0247797928750515,-0.12231547385454178,-0.09198978673057397,-0.011219709395899002,-0.15888694331552466
3.743263006210327,6.099604070186615e-05,-0.015268459916114807,0.0037260055541992188,0.1246558427810669,0.02671937458217144,-0.11407991498708725,-0.09107780557612094,-0.011323601781820198,-0.16007589526875396
3.7532389163970947,-0.0023667458444833755,-0.015247099101543427,0.007221698760986328,0.12976093590259552,0.027833685278892517,-0.10110557824373245,-0.08987659406152308,-0.011351408010979816,-0.16116118888867556
3.7632639408111572,-0.0030434448271989822,-0.01210881769657135,0.004030406475067139,0.13380254805088043,0.029160205274820328,-0.08456841856241226,-0.08836499969549122,-0.01129858309471661,-0.1620905598430472
3.773202896118164,-0.0047302208840847015,-0.00916820764541626,0.005565345287322998,0.12818263471126556,0.03691697493195534,-0.07307202368974686,-0.08671507922589798,-0.011104800413050972,-0.16287304879996198
3.783834934234619,-0.0063081663101911545,-0.008823014795780182,0.0036740899085998535,0.11662344634532928,0.03706318140029907,-0.06090591102838516,-0.0851433736676692,-0.01080599302368817,-0.16353662835567806
3.7933778762817383,-0.002070765942335129,-0.0015273094177246094,0.00494462251663208,0.10503318905830383,0.029802827164530754,-0.052462998777627945,-0.08368659968440154,-0.010493837161216159,-0.1640934052488545
3.803281784057617,0.0023846523836255074,0.0017926394939422607,0.0072975754737854,0.09157995879650116,0.02370445430278778,-0.04209717735648155,-0.08239161346149813,-0.010247574422581068,-0.16455539648304407
3.8133788108825684,0.004930826835334301,0.007960416376590729,0.011479020118713379,0.08922365307807922,0.016598474234342575,-0.04631168022751808,-0.08128605974469681,-0.010076182274566208,-0.16497466336484864
3.8232550621032715,0.004488043487071991,0.00842321664094925,0.019752323627471924,0.08431410789489746,0.015321488492190838,-0.052651867270469666,-0.08031655052821016,-0.009967949619007146,-0.16546168134924155
3.833387851715088,0.0010079778730869293,0.011362902820110321,0.01904505491256714,0.07083994895219803,0.013728829100728035,-0.05272393301129341,-0.07943398546982482,-0.00992025668582166,-0.1659919128687716
3.843532085418701,0.002245549112558365,0.019371695816516876,0.018856346607208252,0.057100165635347366,0.00846109725534916,-0.05476657673716545,-0.07873195990192186,-0.009921319602070428,-0.16652651055863685
3.8533358573913574,0.003649377264082432,0.017926909029483795,0.02103567123413086,0.049753155559301376,0.00890881847590208,-0.0574510432779789,-0.07817613976158148,-0.009966824865584695,-0.16709485214893716
3.863381862640381,0.002933754585683346,0.015754498541355133,0.019944965839385986,0.04699358716607094,0.013275603763759136,-0.05866597965359688,-0.0776767491590707,-0.010013898410965198,-0.16768439450612646
3.8733468055725098,0.005878077819943428,0.018962010741233826,0.018299341201782227,0.05042285472154617,0.015072394162416458,-0.0627184584736824,-0.077260335084138,-0.009951728361912077,-0.1682918289949419
3.883452892303467,0.008429096080362797,0.022737674415111542,0.01846754550933838,0.04976239055395126,0.01003209501504898,-0.06256239861249924,-0.07687096263223274,-0.009862409738855257,-0.16892189258255946
3.8935189247131348,0.010352138429880142,0.02470219135284424,0.01601630449295044,0.04147999733686447,0.00987301580607891,-0.056049637496471405,-0.0766146844724267,-0.009755519577989945,-0.16951052847894785
3.9034359455108643,0.010529229417443275,0.020757481455802917,0.016505002975463867,0.03628683090209961,0.013188119046390057,-0.053876765072345734,-0.07642370533276624,-0.009642215881716902,-0.1700585289856947
3.91471004486084,0.008730907924473286,0.013191789388656616,0.01822119951248169,0.020892594009637833,0.019296789541840553,-0.05187464877963066,-0.0763445075688355,-0.009521945296069426,-0.17058785903151907
3.923440933227539,0.008677889592945576,0.008450090885162354,0.017017483711242676,0.0011423262767493725,0.015478881075978279,-0.04460262134671211,-0.07653965324966178,-0.009377086212205302,-0.17106773292130645
3.93339204788208,0.01264946535229683,0.010019540786743164,0.016595542430877686,-0.012443024665117264,0.006144501734524965,-0.03835223615169525,-0.07687856216985679,-0.009289806503832333,-0.17148330918990448
3.9434309005737305,0.012610137462615967,0.005166411399841309,0.0199548602104187,-0.018165092915296555,0.002766814548522234,-0.03466003015637398,-0.07724669720912634,-0.009265929110092448,-0.17185437835917816
3.9533989429473877,0.011241023428738117,0.0017110034823417664,0.019389748573303223,-0.01879897341132164,0.0019401246681809425,-0.031239626929163933,-0.07765155788799996,-0.009239799275467253,-0.17218331508412335
3.9634671211242676,0.007845152169466019,0.002593129873275757,0.014262795448303223,-0.013757610693573952,0.004942306317389011,-0.029741065576672554,-0.0780523847092957,-0.009170415987680055,-0.1724824268073074
3.973423957824707,0.0053621139377355576,0.0006244629621505737,0.010099828243255615,-0.010302725248038769,0.005475915502756834,-0.023807117715477943,-0.07842000398760654,-0.009067693319135357,-0.17274705715487193
3.9836339950561523,0.0020013172179460526,-0.0008606165647506714,0.007298171520233154,-0.010991951450705528,0.004322500433772802,-0.014686856418848038,-0.0787464182893783,-0.008956903570502378,-0.17294048130166054
3.993544101715088,0.002120453864336014,0.0005444064736366272,0.006868839263916016,-0.008159429766237736,-0.0010054646991193295,-0.005615703295916319,-0.07897479691183722,-0.008877585907663488,-0.17304946397843712
4.003609895706177,0.0019175997003912926,-0.00046388059854507446,0.006980419158935547,-0.0025417578872293234,-0.0036257486790418625,0.0023191850632429123,-0.07911375664892237,-0.008827258276293274,-0.17305751360719568
4.013589859008789,0.000698077492415905,-0.002568542957305908,0.008193492889404297,0.0030832544434815645,-0.0028502806089818478,0.008375213481485844,-0.07921986279275088,-0.008736672236309827,-0.17298854792506424
4.023941993713379,0.0024889614433050156,-0.003262057900428772,0.008531808853149414,0.014226452447474003,-0.007581386249512434,0.011867149733006954,-0.07919613865844094,-0.008650437145332021,-0.17287275659452686
4.03439998626709,0.004262088797986507,-0.0014649108052253723,0.00863558053970337,0.018953030928969383,-0.00999412126839161,0.013077876530587673,-0.07904647406980757,-0.008607529970531849,-0.1727348281148692
4.0453290939331055,0.006526940502226353,0.00265512615442276,0.006542980670928955,0.020886752754449844,-0.013845052570104599,0.014380162581801414,-0.0788779376994227,-0.008629293433550999,-0.1725908889153008
4.053771018981934,0.006958337500691414,0.00674312561750412,0.005090594291687012,0.013602706603705883,-0.015263983979821205,0.015073862858116627,-0.07871092190567167,-0.008709877493065128,-0.17243638068028624
4.063657999038696,0.004037037491798401,0.0014121383428573608,0.00551074743270874,0.009655635803937912,-0.0145659688860178,0.01572979800403118,-0.07859416368806471,-0.008825355906213944,-0.17228216341155123
4.073616981506348,0.0006618406623601913,0.0007419213652610779,0.007849574089050293,0.00880062859505415,-0.01016332022845745,0.015613045543432236,-0.07853176922957429,-0.008898832416675311,-0.17211968490916266
4.083765029907227,-0.0021988609805703163,0.0016333013772964478,0.009930908679962158,0.008751093409955502,-0.006278300657868385,0.016994427889585495,-0.07844885840110032,-0.008937364711096709,-0.1719580258593637
4.094017028808594,-0.0014014486223459244,0.004012875258922577,0.009481310844421387,0.00977411400526762,-0.002534606959670782,0.018506623804569244,-0.07834251058264834,-0.00895656340077969,-0.17177132623553315
4.10371994972229,-0.0022437740117311478,0.00677189975976944,0.006441593170166016,0.01377684436738491,0.0003775595687329769,0.01441947091370821,-0.07819227743897908,-0.008922743133713766,-0.1715974272273123
4.1146159172058105,-0.002556620165705681,0.004397928714752197,0.004959583282470703,0.017999637871980667,0.006170778069645166,0.00974157452583313,-0.0780328012554325,-0.008823103043619062,-0.17146683477549307
4.125709056854248,-0.004535851068794727,0.003359086811542511,0.004557430744171143,0.016850482672452927,0.011217202059924603,0.007482415530830622,-0.07792690895727886,-0.008643785075616592,-0.171377291713711
4.133652925491333,-0.006032202392816544,0.00412866473197937,0.00886380672454834,0.012615024112164974,0.009785397909581661,0.002021869644522667,-0.07790494606815732,-0.008443800747006817,-0.17131748310609338
4.1438539028167725,-0.009431428276002407,-0.00011672824621200562,0.011602044105529785,0.009385941550135612,0.010763576254248619,0.0016982955858111382,-0.07783189139515873,-0.008294192417865325,-0.17130225014152575
4.153666019439697,-0.01174925360828638,-0.0019164979457855225,0.012217104434967041,0.0069039082154631615,0.016001304611563683,0.005791148170828819,-0.07778519970640628,-0.008157926682753594,-0.1712625909745345
4.163712978363037,-0.010773373767733574,0.0010238811373710632,0.011577010154724121,0.004519847221672535,0.017827168107032776,0.0046587721444666386,-0.07778977968505113,-0.008019494504171656,-0.17120953490234753
4.175337791442871,-0.010218190029263496,-0.0012717097997665405,0.008858025074005127,0.0009362306445837021,0.016962172463536263,5.324138328433037e-06,-0.07784249158443796,-0.007872356514226065,-0.1711804099664003
4.1838178634643555,-0.01022658497095108,-0.006079807877540588,0.005065202713012695,0.0012811101041734219,0.017937954515218735,-0.00015659607015550137,-0.07796651395358961,-0.007741566680522435,-0.17118660588457227
4.1937761306762695,-0.010707798413932323,-0.007144086062908173,0.004911541938781738,0.007344861049205065,0.01774984784424305,-0.003600915428251028,-0.07799328202143983,-0.007610920010108541,-0.1712060996648878
4.203746795654297,-0.011166431941092014,-0.007781364023685455,0.005588710308074951,0.01609707437455654,0.015533031895756721,-0.00754132866859436,-0.07792844840527688,-0.007518174571363514,-0.1712746013299856
4.21379280090332,-0.011116720736026764,-0.0024122968316078186,0.001582801342010498,0.015832122415304184,0.007899169810116291,-0.0034013381227850914,-0.07783865324080791,-0.0074914575270537,-0.1713331510923245
4.22525691986084,-0.007006693631410599,0.002043001353740692,-0.0034769773483276367,0.006860199384391308,-0.009139202535152435,0.0027311230078339577,-0.0777470965072443,-0.0076192774112471134,-0.1713496865179176
4.23380708694458,-0.005025963298976421,-0.0015951767563819885,-0.004162788391113281,-0.0044759283773601055,-0.017518173903226852,0.0027132262475788593,-0.07770778385394736,-0.007907135753470691,-0.17132753868974226
4.243854999542236,-0.0052860453724861145,-0.009152159094810486,-0.003657698631286621,-0.012773539870977402,-0.022839168086647987,0.012124039232730865,-0.07784942761980482,-0.008243263721795718,-0.17126932385718865
4.2537829875946045,-0.005161329172551632,-0.008268974721431732,-8.702278137207031e-05,-0.018196651712059975,-0.03014497458934784,0.018707426264882088,-0.07800430754231456,-0.008613356745027981,-0.17112381366768192
4.263946056365967,-0.003982287831604481,-0.002875976264476776,0.004219412803649902,-0.018573489040136337,-0.039146989583969116,0.02179722487926483,-0.07810478296821297,-0.009061427655169794,-0.17092638026126258
4.27625298500061,-0.004623308777809143,-0.0034674033522605896,0.005978941917419434,-0.01864093355834484,-0.04583294317126274,0.023973828181624413,-0.07817762534226626,-0.009581736846390358,-0.17070558320389978
4.284327983856201,-0.004712065681815147,-0.005124136805534363,0.005452632904052734,-0.008927052840590477,-0.04783164709806442,0.021507473662495613,-0.0782017509190771,-0.010150895410311764,-0.170479945608813
4.294037818908691,-0.0075795892626047134,-0.006571635603904724,0.003660261631011963,-0.0006793760694563389,-0.050873689353466034,0.01683053746819496,-0.07821495783033232,-0.010733682556075529,-0.1703037786963827
4.303911924362183,-0.009350641630589962,-0.006689667701721191,-0.0005745291709899902,0.00192359765060246,-0.05356081947684288,0.021312370896339417,-0.078241510023115,-0.01128370151202157,-0.17011849843576735
4.3138628005981445,-0.007703179493546486,-0.004936181008815765,-0.000960230827331543,-0.003914351109415293,-0.05783119797706604,0.025496408343315125,-0.07821218220879914,-0.011849533019462071,-0.16988843923614594
