timestamp,accel_x,accel_y,accel_z,rotation_x,rotation_y,rotation_z, pitch,roll,yaw
0.043138980865478516,-0.015252478420734406,0.0021327733993530273,0.002308070659637451,0.01122409850358963,-0.012672234326601028,0.017709752544760704,-0.22908316628284173,0.10426563072709955,0.01200598882965581
0.05675220489501953,-0.01402159035205841,0.004207998514175415,0.002132117748260498,0.007212312892079353,-0.01774449087679386,0.01882242038846016,-0.22895778214078216,0.104173297600299,0.012179476381415375
0.06877994537353516,-0.012106984853744507,0.0038406848907470703,0.005711376667022705,0.000346882501617074,-0.01756392791867256,0.016311487182974815,-0.2289119234185687,0.10403866983992627,0.012367165525313119
0.07743215560913086,-0.012741968035697937,0.005352795124053955,0.005738377571105957,-0.006985598709434271,-0.018133312463760376,0.015424652956426144,-0.22892605850888614,0.10389116133524573,0.012532472322834694
0.07877397537231445,-0.013408280909061432,0.004287973046302795,0.007084071636199951,-0.00738415727391839,-0.01889919303357601,0.011720196343958378,-0.2289853332933273,0.10372982594889246,0.012677660867242785
0.08627700805664062,-0.017089977860450745,0.006293192505836487,0.007252871990203857,-0.003463451750576496,-0.011948341503739357,0.006535820662975311,-0.22904152338229736,0.1035938950157474,0.012778313109508017
0.0943610668182373,-0.0174894779920578,0.010846048593521118,0.008287370204925537,0.0030543352477252483,-0.007578094955533743,0.0012816169764846563,-0.2290356393034582,0.10348634958037697,0.012821719867348081
0.10193920135498047,-0.017098724842071533,0.012161940336227417,0.00799793004989624,0.007033364847302437,0.002618882106617093,-0.010563856922090054,-0.22898489567480382,0.1034440351509096,0.012774050070779286
0.11194801330566406,-0.01738448441028595,0.011309310793876648,0.009657502174377441,0.007348083425313234,0.008372729644179344,-0.025911709293723106,-0.228935976887414,0.10343855243757116,0.012569950395298788
0.12193489074707031,-0.01804789900779724,0.009628430008888245,0.010677337646484375,0.004123261664062738,0.01846131682395935,-0.04813818261027336,-0.22892277395576963,0.10349300704526042,0.012182957101361696
0.13220787048339844,-0.017036497592926025,0.003458648920059204,0.014518320560455322,-0.003950776532292366,0.02089979499578476,-0.05384363606572151,-0.22897516664663306,0.10356858168032644,0.011658908096573333
0.14198803901672363,-0.018741175532341003,0.0028217434883117676,0.01618725061416626,-0.0008045182330533862,0.01307862438261509,-0.05279061943292618,-0.22906510950804373,0.10361357079513416,0.011101836891582258
0.1521010398864746,-0.014378823339939117,0.007405698299407959,0.013307392597198486,0.011933630332350731,-0.00635770196095109,-0.045100316405296326,-0.2290742926861686,0.10355250194048149,0.010589768072210484
0.16226911544799805,-0.01190716028213501,0.009291082620620728,0.012986361980438232,0.013457224704325199,-0.018175479024648666,-0.05738441273570061,-0.2289871662710941,0.10329862847898634,0.010070817836578492
0.17214393615722656,-0.010880015790462494,0.010019198060035706,0.010958671569824219,0.0003463500179350376,-0.02733231708407402,-0.046253036707639694,-0.22900726314494926,0.10293186669745541,0.009501344775497071
0.18217706680297852,-0.00823693722486496,0.005212754011154175,0.013140201568603516,0.0046263160184025764,-0.02955498918890953,-0.03375508636236191,-0.22897583910350824,0.10254968149268313,0.009129029243379086
0.19234704971313477,-0.009597942233085632,0.007711067795753479,0.011502683162689209,-0.013866874389350414,-0.008120713755488396,-0.029708683490753174,-0.22910542999161737,0.1023038485399639,0.008781363219768072
0.2021160125732422,-0.01752621680498123,0.004616305232048035,0.013132870197296143,-0.0013409622479230165,-0.01903834380209446,-0.013852488249540329,-0.2293846107312302,0.10184724942270289,0.00853283220021809
0.21217107772827148,-0.014464251697063446,0.0063966065645217896,0.007204949855804443,0.022583812475204468,-0.015413781628012657,-0.01106202881783247,-0.22940539658614922,0.1014119431286638,0.00833849019375097
0.22250986099243164,-0.008099548518657684,0.015332728624343872,0.008043825626373291,0.03444366902112961,-0.006042649503797293,0.011387087404727936,-0.22922304636302818,0.10105928809246269,0.008260285586376837
0.23227310180664062,-0.017428487539291382,0.013322055339813232,0.002675473690032959,0.03341631963849068,0.0014111828058958054,0.01321545522660017,-0.22901577527782807,0.1008871533954911,0.008331429429800766
0.24255990982055664,-0.01721832901239395,0.013577938079833984,0.0005509257316589355,0.02411576174199581,0.011751703917980194,0.018008878454566002,-0.228909706661535,0.10085672652291883,0.008419354643975403
0.25257301330566406,-0.01898324489593506,0.0030518323183059692,0.0015417933464050293,0.025321107357740402,0.009093248285353184,0.022526079788804054,-0.2288288562847332,0.100896806642265,0.008595124586685795
0.262296199798584,-0.020702771842479706,-0.00015591084957122803,0.004915773868560791,0.026378650218248367,0.004123257007449865,0.01422047894448042,-0.2286756678130009,0.1009198159361672,0.008738017109596456
0.27237892150878906,-0.017321735620498657,0.002664119005203247,0.006040692329406738,0.021907901391386986,-0.00247170589864254,0.01585661806166172,-0.2285845914702903,0.10086130197953291,0.008840380164376183
0.2826550006866455,-0.013556644320487976,-5.5849552154541016e-05,0.00613933801651001,0.012162063270807266,-0.006215045228600502,0.013710642233490944,-0.22852594532322806,0.10061194911861766,0.00891861641358471
0.2922811508178711,-0.015041045844554901,-0.0015673190355300903,0.0052716732025146484,0.008997796103358269,-0.0028594620525836945,0.012659919448196888,-0.22854247712787182,0.10039633645246278,0.00899048371628316
0.30229806900024414,-0.01436622440814972,-0.002184167504310608,0.004623532295227051,0.011695310473442078,-0.008782332763075829,0.017427509650588036,-0.22869014561452156,0.10028602497142829,0.009108826745904519
0.3123030662536621,-0.012480571866035461,-0.0009467452764511108,-0.0016281604766845703,0.016044387593865395,-0.011302836239337921,0.020225053653120995,-0.22873564433464424,0.09997881874306963,0.009233295961168082
0.3223280906677246,-0.011155784130096436,-0.00021272897720336914,-0.0037571191787719727,0.025836031883955002,-0.014577459543943405,0.0198958870023489,-0.22870268220794876,0.09966596345842776,0.009353726259746694
0.3323211669921875,-0.010223813354969025,-0.001966997981071472,-0.0002757906913757324,0.03060876578092575,-0.022075900807976723,0.019231589511036873,-0.22845151166244762,0.0992810511222389,0.009466802421622678
0.3424530029296875,-0.012382328510284424,-0.0014827996492385864,0.0014328360557556152,0.024180691689252853,-0.024675944820046425,0.016960712149739265,-0.22817372278493225,0.09882534727123964,0.009565429431500905
0.35257601737976074,-0.010952770709991455,-0.002816632390022278,0.004940450191497803,0.016079438850283623,-0.025882579386234283,0.012124890461564064,-0.2280235685632502,0.0984018164584325,0.009653192295657408
0.36239099502563477,-0.011172860860824585,-0.00555892288684845,0.00394749641418457,0.00987187772989273,-0.021986372768878937,0.011494520120322704,-0.22790949167503938,0.09804385173617441,0.00972137396602381
0.37241101264953613,-0.011411838233470917,-0.0040192753076553345,0.004049181938171387,0.009571872651576996,-0.02458064816892147,0.009921816177666187,-0.22781705812938496,0.09767443735563232,0.009785228351995471
0.38281702995300293,-0.01142631471157074,-0.0011713802814483643,0.0020182132720947266,0.008147081360220909,-0.023478899151086807,0.00532253785058856,-0.22771305800268854,0.0972935610259058,0.009825231679633983
0.39247989654541016,-0.010507002472877502,-0.0015125572681427002,0.0008572936058044434,0.0018708598800003529,-0.021008770912885666,0.003302955999970436,-0.2276560410362942,0.09695789280485369,0.009830029933651408
0.40249109268188477,-0.01084669679403305,0.00012250244617462158,0.0015432238578796387,-0.0026141696143895388,-0.01958983950316906,-0.00022706371964886785,-0.22765360622450495,0.09664722258130959,0.009822927977259437
0.4124789237976074,-0.012363851070404053,0.002601116895675659,0.003412902355194092,-0.003502200823277235,-0.022518783807754517,-0.004461276810616255,-0.22767805792703102,0.09633977994343271,0.009779390382902564
0.42259693145751953,-0.011205434799194336,0.0018186867237091064,0.006774604320526123,-0.01083015464246273,-0.02194673754274845,-0.0085130101069808,-0.2277450502045473,0.09596491345708222,0.009700158195268786
0.4337611198425293,-0.01173151284456253,0.001795247197151184,0.007837414741516113,-0.02193625271320343,-0.01436041109263897,-0.013723538257181644,-0.2278944260132191,0.09566104010625025,0.009569932431193962
0.4424271583557129,-0.011632435023784637,-0.00010068714618682861,0.008195221424102783,-0.02824368327856064,-0.016420632600784302,-0.016406139358878136,-0.22811768001701102,0.09537499221805668,0.009409729914564072
0.452606201171875,-0.011764809489250183,0.0008051842451095581,0.00811988115310669,-0.032606739550828934,-0.015168060548603535,-0.0251893512904644,-0.2283782108156149,0.09506093115178106,0.009213040444741442
0.4626469612121582,-0.008827388286590576,0.0019910186529159546,0.0075678229331970215,-0.05515199899673462,-0.0011742138303816319,-0.02529960684478283,-0.22883702543182313,0.0947955923748634,0.00895405282794383
0.47380900382995605,-0.011981405317783356,8.55177640914917e-05,0.00830686092376709,-0.06097732484340668,-0.0021323305554687977,-0.025528479367494583,-0.2294148540358,0.0946305742698978,0.008736340595289832
0.48264408111572266,-0.011608198285102844,-0.0013720542192459106,0.006270706653594971,-0.051049862056970596,-0.007635486777871847,-0.027631843462586403,-0.23000284915920066,0.09441601054298816,0.008481050859676246
0.492717981338501,-0.010029733180999756,-0.0001423656940460205,0.01057809591293335,-0.026618223637342453,-0.013995291665196419,-0.022751335054636,-0.23043244991324058,0.09413515499963282,0.008246113715848125
0.5026960372924805,-0.009360536932945251,0.004663914442062378,0.011894583702087402,-0.0033046440221369267,-0.020124292001128197,-0.014681424014270306,-0.23060509548790128,0.09382637169226066,0.008038830792489895
0.5127639770507812,-0.007652543485164642,0.007613196969032288,0.012994945049285889,0.016165975481271744,-0.03072744607925415,-0.006594042759388685,-0.2305536373805456,0.09343269665251115,0.00791035335069561
0.5227131843566895,-0.00824730098247528,0.008125245571136475,0.013224542140960693,0.022719748318195343,-0.04871603474020958,-0.006809758488088846,-0.2303568039714219,0.09290856634548086,0.007799290097192916
0.5329020023345947,-0.005458414554595947,0.00615382194519043,0.013436496257781982,0.018614038825035095,-0.05917706340551376,-0.007887007668614388,-0.23015619377025937,0.09224672331933687,0.00768754502340647
0.5427920818328857,-0.005593150854110718,0.0022825151681900024,0.016780495643615723,0.009761689230799675,-0.0732438787817955,-0.010059614665806293,-0.23004194336192454,0.09148614849905283,0.007571361515002469
0.5527560710906982,-0.007745176553726196,-0.0004839599132537842,0.021664679050445557,-0.0022103842347860336,-0.07208727300167084,-0.01715523563325405,-0.2300310378888841,0.09063667467012348,0.007411124763913879
0.5627131462097168,-0.009476810693740845,-0.0017443746328353882,0.01988464593887329,-0.009000645950436592,-0.06652525812387466,-0.02142721228301525,-0.230118830551495,0.08982789771359227,0.007206588667744483
0.5726709365844727,-0.006606273353099823,-0.0018741041421890259,0.016348063945770264,-0.008437237702310085,-0.06514951586723328,-0.01684337854385376,-0.23025208485406487,0.08908920540975006,0.007005020167819571
0.5829410552978516,-0.006390973925590515,0.0011165887117385864,0.011743664741516113,-0.009364018216729164,-0.05351096764206886,-0.022097796201705933,-0.2304245075713838,0.08841449077339243,0.006806950014833118
0.5928001403808594,-0.0042147040367126465,0.003044992685317993,0.005739748477935791,-0.012307344004511833,-0.04020847752690315,-0.01936778984963894,-0.23065366124836295,0.08789018044572815,0.006596675893171176
0.6031608581542969,-0.006333291530609131,0.0021112263202667236,0.0048607587814331055,-0.015456797555088997,-0.026497991755604744,-0.016805028542876244,-0.23090749318831072,0.08749958963774851,0.006413339728069245
0.6129350662231445,-0.0101570263504982,0.0016367137432098389,0.003911375999450684,-0.013070588931441307,-0.01484563946723938,-0.01769297942519188,-0.23114416500456167,0.08726203056952549,0.00624511038900628
0.6232881546020508,-0.012079894542694092,0.00011941790580749512,0.005452454090118408,-0.010305162519216537,-0.002618534956127405,-0.017673803493380547,-0.231323467412045,0.08714009937187189,0.0060788549441691455
0.6337919235229492,-0.012629836797714233,-0.00028771162033081055,0.006847739219665527,-0.0034273159690201283,0.005258474033325911,-0.01766645349562168,-0.23144387981311415,0.08709602060766154,0.005898278764439662
0.6428370475769043,-0.012050896883010864,-0.000705331563949585,0.007035195827484131,3.372831270098686e-05,0.008319512009620667,-0.011333191767334938,-0.23149669915854063,0.08708228668255827,0.005745673448819235
0.652885913848877,-0.012029163539409637,-0.0009692460298538208,0.008517086505889893,0.006672605872154236,0.0035309256054461002,-0.012984031811356544,-0.23148567084041652,0.08709112119057304,0.005608917316341631
0.6630010604858398,-0.008603177964687347,-0.0008255839347839355,0.007745623588562012,0.014194171875715256,-0.0005058939568698406,-0.013452215120196342,-0.23141644021627358,0.08701847905418249,0.0054614900199517055
0.6733090877532959,-0.005978308618068695,-0.00010345876216888428,0.008517861366271973,0.008191323839128017,-0.002333399374037981,-0.011846808716654778,-0.23133296658321584,0.08695345491730622,0.005310405758609273
0.6832208633422852,-0.005976684391498566,-0.004375100135803223,0.007053256034851074,0.004094050265848637,-0.003361645620316267,-0.01245800405740738,-0.23130078198380513,0.08685670990941563,0.005170939151837364
0.6930599212646484,-0.007542409002780914,-0.0024223625659942627,0.004688382148742676,-0.0051927752792835236,0.0007942612282931805,-0.012559416703879833,-0.2313482066403809,0.08672568363405345,0.005025134466722915
0.7029361724853516,-0.005976162850856781,-0.00466996431350708,0.00509268045425415,-0.0057552349753677845,-0.0009983121417462826,-0.011460596695542336,-0.23143126567552064,0.08659133669298814,0.004884003545923141
0.713001012802124,-0.008101016283035278,-0.005316123366355896,0.005868077278137207,-0.0010880451882258058,-7.712515071034431e-05,-0.011549280025064945,-0.23149941686593917,0.08643937861608751,0.00474079843023945
0.7232451438903809,-0.008640863001346588,-0.003776371479034424,0.005587935447692871,0.003778615267947316,0.003622272051870823,-0.010778561234474182,-0.23150084261157478,0.08631948333795293,0.004599701892618567
0.734050989151001,-0.007717616856098175,-0.001196146011352539,0.0036801695823669434,0.006834958679974079,0.004692951682955027,-0.005577354226261377,-0.23146795175837745,0.0862321821335646,0.004487025127293523
0.7429671287536621,-0.00835651159286499,0.0013494938611984253,0.0006872415542602539,0.005965703167021275,0.004856736399233341,-0.005693201906979084,-0.23142354816373212,0.08619776130218686,0.004403543249190483
0.753277063369751,-0.00749688595533371,5.46872615814209e-06,0.0018439292907714844,0.0069513386115431786,0.0005860910750925541,-0.004848713520914316,-0.23137782006840404,0.0861758103003721,0.004340788802706415
0.7630410194396973,-0.007855795323848724,-0.0022882670164108276,0.0026955604553222656,0.006639482453465462,-0.005682990420609713,-0.0068817706778645515,-0.23128882281747154,0.08608779662960321,0.004257082685420624
0.7730710506439209,-0.0067947059869766235,-0.0026376843452453613,0.005412936210632324,-0.004074031487107277,-0.008798311464488506,-0.007172587793320417,-0.23127155696897364,0.08593734322440008,0.004177764194389457
0.7832551002502441,-0.006320588290691376,-0.0042055100202560425,0.006618082523345947,-0.013302416540682316,-0.009829487651586533,-0.007556881755590439,-0.2313303189632798,0.08578005961689343,0.0040977459468356375
0.7930679321289062,-0.004797495901584625,-0.003228291869163513,0.004882931709289551,-0.015619833022356033,-0.006896636914461851,-0.007594379596412182,-0.23143938935912237,0.08561206361268975,0.004005005187734769
0.8031020164489746,-0.004830852150917053,-0.0022177845239639282,0.005520164966583252,-0.013057606294751167,-0.0057434882037341595,-0.007901974022388458,-0.23157697475780975,0.08546043967399604,0.00391423297001946
0.8130819797515869,-0.0073381513357162476,-0.0013314634561538696,0.004489123821258545,-0.0036600097082555294,-0.005952546838670969,-0.00968986190855503,-0.23166968587435355,0.08530996867494291,0.003816581437624169
0.8230218887329102,-0.008436709642410278,0.00026269257068634033,0.004097640514373779,-0.0018194990698248148,-0.007817026227712631,-0.009836068376898766,-0.23170926501737135,0.08513759832073628,0.0036950253514606668
0.8334751129150391,-0.0063658058643341064,0.001796811819076538,0.007049918174743652,-0.0008568160701543093,-0.005349295679479837,-0.008244031108915806,-0.2317321684909518,0.08498513799967879,0.0035850825375718567
0.8430571556091309,-0.006980739533901215,0.0010021626949310303,0.008827388286590576,-0.006760777905583382,-0.008577579632401466,-0.006693804636597633,-0.2317490611673463,0.08484858405294173,0.0034989981004521185
0.8533000946044922,-0.008740238845348358,-0.002138882875442505,0.010163426399230957,-0.04628828167915344,-0.011936979368329048,-0.02243282087147236,-0.23198191409727656,0.084653590537311,0.003363132001357465
0.8632631301879883,-0.006779231131076813,-0.0029783695936203003,0.011343181133270264,-0.10569381713867188,0.006593827158212662,-0.03364499285817146,-0.23273483251236105,0.08453468363666769,0.0031133691615664242
0.8732650279998779,-0.004919886589050293,-0.012442559003829956,0.013611674308776855,-0.19568409025669098,-0.029707012698054314,-0.05364208668470383,-0.2341972954109246,0.08439328092137265,0.0028241030041489803
0.8831949234008789,-0.006966516375541687,-0.02304767072200775,0.012508273124694824,-0.34084659814834595,-0.034632790833711624,-0.1240193098783493,-0.2369123178747887,0.0838203253109921,0.002116729311336087
0.8931519985198975,-0.004542388021945953,-0.030478328466415405,0.029456496238708496,-0.47924187779426575,-0.06304459273815155,-0.14338748157024384,-0.24107380538644452,0.08305616378510944,0.0011021875789630515
0.9031338691711426,-0.002174466848373413,-0.05771094560623169,0.033917367458343506,-0.5838263630867004,-0.08818057179450989,-0.18176469206809998,-0.24649404612758183,0.08194988422575467,-0.00016055529760534336
0.9131040573120117,-0.0026168450713157654,-0.051231205463409424,0.029485762119293213,-0.6625553965568542,-0.12007401138544083,-0.2051251381635666,-0.25279822068883995,0.08053230152716752,-0.0016172070155067286
0.9231340885162354,0.002045579254627228,-0.031180858612060547,0.013008534908294678,-0.7318287491798401,-0.15778915584087372,-0.2354540228843689,-0.2598647718902649,0.07870905574543417,-0.0033554562345256404
0.933229923248291,0.005739547312259674,-0.02624383568763733,0.00614166259765625,-0.7990514636039734,-0.21438272297382355,-0.2554948627948761,-0.2675373583533457,0.07633210464571219,-0.005257786238973421
0.9432740211486816,0.006048649549484253,-0.04326742887496948,0.0007115602493286133,-0.9012201428413391,-0.27153149247169495,-0.30794182419776917,-0.27621265145747076,0.07328458659699129,-0.007510026391553782
0.9537630081176758,0.007965214550495148,-0.048448145389556885,-4.9948692321777344e-05,-1.0100044012069702,-0.325296550989151,-0.32925695180892944,-0.2860044301589867,0.06957613669731924,-0.010139529976888124
0.9632840156555176,0.008386913686990738,-0.05402025580406189,-0.0015124082565307617,-1.1300647258758545,-0.4441624879837036,-0.3693963885307312,-0.2968718763596301,0.06499558425844285,-0.012965323570194323
0.9764308929443359,0.014223486185073853,-0.05825072526931763,-0.006327629089355469,-1.4261361360549927,-0.5188683867454529,-0.5361552834510803,-0.3097948332102379,0.05881426351342893,-0.016826964406869597
0.9869399070739746,0.013374663889408112,-0.0763329565525055,0.018467485904693604,-1.7442432641983032,-0.6291530728340149,-0.6050038933753967,-0.32595554544917044,0.051379071193294955,-0.02210695257568115
0.994530200958252,-0.00220552459359169,-0.14943477511405945,0.04274553060531616,-1.9298334121704102,-0.7320832014083862,-0.5989137291908264,-0.34474543584635314,0.04283966023756075,-0.02749063503902333
1.0060648918151855,0.01179543137550354,-0.15183410048484802,0.03083503246307373,-1.8975598812103271,-0.8615743517875671,-0.6056302785873413,-0.36430697784440713,0.032895233161696055,-0.033175600985679676
1.0134739875793457,0.03843723610043526,-0.013683617115020752,0.014061689376831055,-1.6125566959381104,-0.9572142362594604,-0.5533434152603149,-0.38213897518655265,0.02167579706500784,-0.03889794521910585
1.0235610008239746,0.0398724339902401,0.049667030572891235,-0.017094194889068604,-1.0786157846450806,-0.9958782196044922,-0.4666902720928192,-0.39594631738598157,0.009789517057744515,-0.044220537712116564
1.0334200859069824,0.037677980959415436,0.08603906631469727,-0.07223409414291382,-0.03059823252260685,-0.9577669501304626,-0.2918699085712433,-0.4018963358102839,-0.0016457950362034667,-0.048387212189105785
1.0434842109680176,0.02044663205742836,0.1640051305294037,-0.1452193260192871,1.4722023010253906,-1.1399754285812378,-0.08598995953798294,-0.3947515151328122,-0.012678769980142217,-0.050326166612687996
1.0533220767974854,0.008190283551812172,0.2817969024181366,-0.21402060985565186,3.0288004875183105,-1.2525266408920288,0.018876269459724426,-0.3721338847773623,-0.024519280208082386,-0.05015124439692327
1.063136100769043,0.010749179869890213,0.4312010407447815,-0.1913723349571228,4.31414270401001,-1.2328094244003296,0.060280703008174896,-0.33521960033165693,-0.03680791646339642,-0.04850036805826142
1.073254108428955,-0.0048550888895988464,0.48186996579170227,-0.14987891912460327,5.406619071960449,-1.0248215198516846,0.09180331975221634,-0.2865304764802677,-0.04705242825014104,-0.04550213181191528
1.0833220481872559,-0.06461618095636368,0.43520069122314453,-0.11860537528991699,6.326457500457764,-0.8787034749984741,-0.006143222562968731,-0.22774311823893484,-0.05560675083119998,-0.041823955503311035
1.093203067779541,-0.10996223986148834,0.4531571865081787,-0.09561789035797119,6.956594467163086,-0.6867619752883911,-0.23838722705841064,-0.16114095971844541,-0.06301442382527427,-0.03896850379622427
1.1032400131225586,-0.11500103771686554,0.49382132291793823,-0.003889799118041992,7.498618125915527,-0.4761991500854492,-0.45580795407295227,-0.08875362327761353,-0.06847301849531678,-0.03771287494858047
1.1132330894470215,-0.1417301744222641,0.4522559344768524,0.04357349872589111,7.920648574829102,-0.46839356422424316,-0.7409646511077881,-0.01115368752555634,-0.07336705508327683,-0.03809082648731982
1.123302936553955,-0.1396578699350357,0.4265904724597931,0.06635236740112305,7.994274139404297,-0.39423009753227234,-1.175093412399292,0.06926977366424039,-0.07752444287445902,-0.04156075268258263
1.1333730220794678,-0.12006623297929764,0.4417869448661804,0.1528269648551941,7.499383926391602,-0.2286345362663269,-1.7075202465057373,0.1480616158874431,-0.07980425220891901,-0.04988674883713053
1.1432430744171143,-0.14213860034942627,0.3755376935005188,0.199978768825531,6.550732135772705,0.11587650328874588,-2.0624935626983643,0.21984902432623976,-0.0778603218366532,-0.06344616647228406
1.1533560752868652,-0.14418862760066986,0.25437799096107483,0.2056322693824768,5.4438886642456055,0.5269554257392883,-2.322920322418213,0.28131284629246184,-0.07031621061827752,-0.08156385553165969
1.1636219024658203,-0.12553097307682037,0.18080401420593262,0.15673941373825073,4.638222694396973,0.9426692724227905,-2.4787347316741943,0.3329803855271756,-0.05631670488665955,-0.10337352221124162
1.1732029914855957,-0.08800667524337769,0.16493284702301025,0.12555348873138428,4.268486499786377,1.267907977104187,-2.533700704574585,0.37836395913407084,-0.03641808604959286,-0.12802144289311443
1.1845569610595703,-0.04490964114665985,0.20019930601119995,0.09047889709472656,4.261037349700928,1.4639480113983154,-2.562152862548828,0.4214923821727139,-0.012438432374274376,-0.15448733957292773
1.1933600902557373,0.003502362407743931,0.2942146062850952,0.060904860496520996,4.457917213439941,1.5506776571273804,-2.603205442428589,0.4650821706507777,0.015032020644193877,-0.18316234347677549
1.2037830352783203,0.08235810697078705,0.3631306290626526,0.10677731037139893,4.598317623138428,1.529431700706482,-2.680185556411743,0.5096494368129474,0.04528197629897342,-0.2145904728290026
1.2136931419372559,0.11538902670145035,0.36135727167129517,0.2035629153251648,4.631798267364502,1.466943621635437,-2.878024101257324,0.5541053337335161,0.07818600782918395,-0.24996557986422457
1.223433017730713,0.15802010893821716,0.30709701776504517,0.31357675790786743,4.502615451812744,1.5383059978485107,-3.1383867263793945,0.5967404759007866,0.11562452898986891,-0.29108368877758417
1.2341809272766113,0.19039346277713776,0.26538652181625366,0.42570698261260986,4.396886825561523,1.6380531787872314,-3.275942802429199,0.6364581222644929,0.1583396247802875,-0.33749024869429733
1.2446541786193848,0.17110612988471985,0.21533840894699097,0.41076022386550903,4.204120635986328,1.8702012300491333,-3.467587947845459,0.6727767246274532,0.20724206165702508,-0.3891640490372141
1.255897045135498,0.18233098089694977,0.16882014274597168,0.35909032821655273,4.019035816192627,2.143878936767578,-3.516075849533081,0.704624484377686,0.2634419795278824,-0.4457890253094453
1.263592004776001,0.18459327518939972,0.14556503295898438,0.2868705987930298,3.9452085494995117,2.2428390979766846,-3.468473434448242,0.7325785890888392,0.3249317114777413,-0.5055823011721797
1.2737350463867188,0.17239001393318176,0.14257055521011353,0.19810378551483154,3.8597679138183594,2.1889755725860596,-3.4043867588043213,0.7572531964404136,0.3895263272449812,-0.5680867161798591
1.2838521003723145,0.18773862719535828,0.20239299535751343,0.23167991638183594,3.6044766902923584,2.18487811088562,-3.3070731163024902,0.7776398471156872,0.45580771700067924,-0.6320838913260957
1.2938241958618164,0.20155346393585205,0.15333092212677002,0.2756524085998535,3.2364912033081055,2.190009117126465,-3.1376235485076904,0.7928001981985158,0.5223856425613207,-0.6952169236505494
1.3035941123962402,0.17465335130691528,-0.004069030284881592,0.22974127531051636,2.8176116943359375,2.122257947921753,-2.926927328109741,0.8025589154044277,0.5869070239383342,-0.7550758467681039
1.313650131225586,0.13158991932868958,-0.1698000431060791,0.22562766075134277,2.3163020610809326,2.058997631072998,-2.6457719802856445,0.8073723948341058,0.6470423485731549,-0.8095030601737108
1.3237099647521973,0.11182337999343872,-0.35188382863998413,0.2316068410873413,1.8483355045318604,1.9695900678634644,-2.2002859115600586,0.80843134430207,0.7007618395670854,-0.8558286099904583
1.333914041519165,0.09639018774032593,-0.5152633786201477,0.13306128978729248,1.3750550746917725,1.8346922397613525,-1.6748794317245483,0.8076971149266995,0.7462156197393308,-0.8924247501619391
1.343717098236084,0.0629861056804657,-0.59093177318573,0.061653345823287964,0.8722212314605713,1.727513074874878,-1.080011248588562,0.806241080398789,0.7826023264162851,-0.9180634526688014
1.3537611961364746,0.021580040454864502,-0.670512855052948,0.0035873055458068848,0.40828245878219604,1.5883891582489014,-0.5346547961235046,0.8049540903906248,0.8097871307679676,-0.9327495574641865
1.3636960983276367,-0.022888004779815674,-0.727357029914856,-0.047860026359558105,0.09111568331718445,1.4541144371032715,-0.011578308418393135,0.8045944879685082,0.8288024739289922,-0.9379408719139413
1.3738510608673096,-0.0450173020362854,-0.6885814666748047,-0.07737159729003906,-0.060855455696582794,1.2713583707809448,0.42718935012817383,0.8062285470788008,0.8409920045550808,-0.9359058357279386
1.3839530944824219,-0.047362565994262695,-0.5630251169204712,-0.13519281148910522,-0.12207939475774765,1.0743049383163452,0.7490712404251099,0.8100819771906019,0.8478494575367033,-0.9291480899049209
1.3939599990844727,-0.04152679443359375,-0.41156017780303955,-0.13979846239089966,-0.17013294994831085,0.8820793032646179,0.9473853707313538,0.8155512395926292,0.8505364541394989,-0.919339063803872
1.4038958549499512,-0.032786548137664795,-0.3158576488494873,-0.12484371662139893,-0.1994900405406952,0.6324465870857239,1.0203025341033936,0.8217592861024745,0.8496706368888169,-0.9076743123556194
1.4138250350952148,-0.0353580117225647,-0.22336935997009277,-0.08233785629272461,-0.17939773201942444,0.31811976432800293,1.0081697702407837,0.8281297349905774,0.8455736636537876,-0.8956098981399873
1.4240679740905762,-0.022655248641967773,-0.13070499897003174,-0.0012773871421813965,-0.10450724512338638,0.02536005899310112,0.8934882283210754,0.83435251800415,0.8390210339831583,-0.8845567144051045
1.4346508979797363,0.006589263677597046,-0.026652514934539795,0.03537249565124512,-0.005168857052922249,0.019683130085468292,0.7560696601867676,0.8400999478521721,0.832461141285946,-0.8757212981516845
1.4437899589538574,0.029399722814559937,0.08917975425720215,-0.06597763299942017,0.07119542360305786,0.14542853832244873,0.6504330039024353,0.8455622904017316,0.8282920519394076,-0.8689846609107866
1.4538841247558594,0.017485380172729492,0.1890944242477417,-0.285933256149292,0.06594241410493851,0.20115390419960022,0.5411738157272339,0.8504527069859228,0.8261704389096974,-0.8637421565323311
1.4638161659240723,-0.010881096124649048,0.26488667726516724,-0.32275378704071045,0.007175244856625795,0.1491951048374176,0.4107694625854492,0.8542110597101139,0.8245393526379956,-0.8591931012849322
1.4746131896972656,-0.005751430988311768,0.2552573084831238,-0.2290685772895813,0.04124373197555542,0.003969281911849976,0.2752111554145813,0.8568618334584166,0.8228627688229553,-0.8558657768124333
1.4840350151062012,0.019922465085983276,0.20064634084701538,-0.15688693523406982,0.11770442128181458,-0.1492338478565216,0.1790047436952591,0.8590322440043314,0.8210550737754794,-0.8544520757173232
1.4939680099487305,0.033016741275787354,0.15951836109161377,-0.11614170670509338,0.17069801688194275,-0.3487521708011627,0.14211778342723846,0.8611987953536873,0.8185363519892153,-0.8544126034572277
1.504216194152832,0.04464799165725708,0.13688045740127563,-0.11535364389419556,0.1660984754562378,-0.5193081498146057,0.12510044872760773,0.8633890295731937,0.8145695915059556,-0.8549724914218373
1.5140089988708496,0.04855450987815857,0.13676095008850098,-0.10762947797775269,0.08582573384046555,-0.5422717332839966,0.1087055429816246,0.8651090514697238,0.8093157952676716,-0.855234185439027
1.524034023284912,0.04478377103805542,0.07963919639587402,-0.11944842338562012,-0.028683271259069443,-0.47721973061561584,0.14946842193603516,0.8662264164267075,0.8034436301096392,-0.8541966659179328
1.5341460704803467,0.017935067415237427,-0.0034922361373901367,-0.1862407624721527,-0.13476310670375824,-0.468615859746933,0.20858952403068542,0.8669310201629237,0.7965700619516243,-0.8513541987191067
1.5440950393676758,-0.00877031683921814,-0.02276664972305298,-0.17529642581939697,-0.17422743141651154,-0.49977779388427734,0.27385374903678894,0.8675403790225635,0.7884012842355633,-0.8469573199095044
1.554029941558838,-0.002494603395462036,-0.02376866340637207,-0.10782045125961304,-0.15711574256420135,-0.5611799955368042,0.3054295778274536,0.8684216228905519,0.7792622411453439,-0.8419454870036996
1.5639472007751465,-0.0038906335830688477,-0.0267753005027771,-0.0519830584526062,-0.19038954377174377,-0.5903887152671814,0.33878567814826965,0.8694605300791465,0.7693067411323026,-0.8365261807448361
1.5739850997924805,-0.02456679940223694,-0.035588860511779785,-0.0074204206466674805,-0.23966041207313538,-0.5866138935089111,0.3949718475341797,0.870416169205713,0.7585312561554158,-0.8301021165835183
1.584031105041504,-0.03466108441352844,-0.06404304504394531,0.015961527824401855,-0.2328949123620987,-0.6280206441879272,0.4374404847621918,0.8715351401290397,0.7468418742971479,-0.822820018640199
1.5941739082336426,-0.047510743141174316,-0.05060702562332153,0.041738539934158325,-0.2675822675228119,-0.593375563621521,0.46559375524520874,0.8727816359397483,0.7347320338561634,-0.8150544231797422
1.6040329933166504,-0.059921324253082275,-0.03268146514892578,0.054823726415634155,-0.3912767767906189,-0.49723997712135315,0.48860716819763184,0.8735362246890634,0.7224303077588796,-0.8061404625028236
1.6139678955078125,-0.07205274701118469,-0.06517583131790161,0.02743995189666748,-0.5834272503852844,-0.4389372169971466,0.5158591866493225,0.8731668299442533,0.7094211326000317,-0.7952505245894743
1.6241121292114258,-0.08185061812400818,-0.09344655275344849,0.028134822845458984,-0.7362679839134216,-0.40141648054122925,0.5374515652656555,0.8714643079154063,0.6953051234950436,-0.7822892869425803
1.6346139907836914,-0.056853681802749634,-0.10969394445419312,0.047170281410217285,-0.7428995966911316,-0.42179229855537415,0.5948454737663269,0.8692203538760777,0.6803656559625858,-0.7681082345389774
1.6440770626068115,-0.02138608694076538,-0.12354540824890137,0.044961631298065186,-0.6641658544540405,-0.5089248418807983,0.6616125106811523,0.8676433084678238,0.6646480793064916,-0.7536448816266761
1.6541650295257568,0.01103973388671875,-0.06892293691635132,0.035889625549316406,-0.6087587475776672,-0.5860038995742798,0.6914159059524536,0.86678806667983,0.6482386596557961,-0.7393536281973196
1.6640830039978027,0.03910088539123535,0.005636870861053467,0.01869255304336548,-0.7059193849563599,-0.5850111246109009,0.6666807532310486,0.8656654447771616,0.6313096698507443,-0.7249172241572039
1.6741690635681152,0.03907805681228638,0.01595890522003174,0.004616379737854004,-0.9174559712409973,-0.5392174124717712,0.6131022572517395,0.8628559925087869,0.6140306135002498,-0.7096078957462365
1.6841390132904053,0.016823381185531616,-0.009314179420471191,-0.01257622241973877,-1.2234411239624023,-0.5332013368606567,0.514129638671875,0.8573057449356263,0.5962457747279002,-0.6931840709726321
1.6941518783569336,0.0005244016647338867,-0.038127362728118896,0.006776273250579834,-1.6480019092559814,-0.5472889542579651,0.4232562482357025,0.8479994067173805,0.5772779699142283,-0.675226481907899
1.7041621208190918,-0.004937022924423218,-0.09328728914260864,0.057893335819244385,-1.9801236391067505,-0.38515704870224,0.4161733090877533,0.8346753798212793,0.5575946390366809,-0.6552454177948555
1.714250087738037,-0.009167373180389404,-0.18172955513000488,0.09208095073699951,-1.8950711488723755,-0.4711120128631592,0.578341007232666,0.8205324398791813,0.5378062850695241,-0.6338316941814144
1.7253541946411133,-0.01972860097885132,-0.1797378659248352,0.06326103210449219,-1.627874493598938,-0.7379961609840393,0.7061107158660889,0.8085143757124811,0.5164494381961283,-0.6127944891811908
1.7348320484161377,0.025683462619781494,-0.026057660579681396,0.08781111240386963,-1.5124273300170898,-0.9693605303764343,0.8382478356361389,0.798657023175725,0.49304223995841256,-0.5922044317540852
1.7441730499267578,0.09711906313896179,-0.00023686885833740234,0.09699547290802002,-1.7580256462097168,-1.1192258596420288,0.977053701877594,0.7885435043042456,0.4667524962386149,-0.5700873854604389
1.7540831565856934,0.09244528412818909,-0.11630630493164062,0.08623862266540527,-2.450363874435425,-1.2193198204040527,1.0733814239501953,0.7743414947829361,0.43674767994857,-0.5442177855817609
1.764246940612793,0.05982673168182373,-0.2604280114173889,0.13536596298217773,-3.486375331878662,-1.1747989654541016,1.1740230321884155,0.7518934463860228,0.403331852719762,-0.5133614188267919
1.7744159698486328,0.03242489695549011,-0.4098701477050781,0.19935500621795654,-4.482800483703613,-1.027211308479309,1.3032556772232056,0.7194382853733687,0.36824490159614,-0.47754251758158245
1.7844009399414062,-0.004633724689483643,-0.5554417371749878,0.22830253839492798,-5.212838172912598,-0.9696614742279053,1.4013822078704834,0.6783917974944034,0.33348879605436177,-0.43900510536665394
1.794464111328125,-0.027843520045280457,-0.5095135569572449,0.21911168098449707,-5.662972927093506,-0.9141281247138977,1.463373064994812,0.6309130028661151,0.3005328643316849,-0.4004100176428136
1.804335117340088,-0.004365488886833191,-0.34526169300079346,0.1971907615661621,-5.877186298370361,-0.9228739738464355,1.6214395761489868,0.5797015230397097,0.2698380530724928,-0.3626057846706099
1.814277172088623,0.044918447732925415,-0.25980108976364136,0.1312037706375122,-6.065026760101318,-0.981292724609375,1.7638908624649048,0.5262556921615865,0.2407986116867913,-0.32553033497682426
1.8241991996765137,0.10480044782161713,-0.14730998873710632,0.09500151872634888,-6.352720260620117,-1.0152482986450195,1.8386865854263306,0.46978674454105657,0.21360936670537448,-0.28959867648469273
1.8342251777648926,0.14037252962589264,-0.08084291219711304,0.11265236139297485,-6.684163570404053,-1.0904245376586914,1.8536138534545898,0.4095777736137331,0.18839449277075537,-0.2550812667736679
1.8441760540008545,0.16195127367973328,-0.14651432633399963,0.13866561651229858,-7.040282249450684,-1.2649385929107666,1.6833603382110596,0.3450321416232047,0.16484100162648202,-0.22321495872731295
1.8543081283569336,0.1972062587738037,-0.1904929280281067,0.21417748928070068,-7.3209614753723145,-1.4189531803131104,1.518187165260315,0.276486774279463,0.1427895730913215,-0.1950573182402429
1.8644230365753174,0.22062277793884277,-0.22725677490234375,0.29248112440109253,-7.618999481201172,-1.657691240310669,1.2901915311813354,0.20415107394564067,0.12148693984003704,-0.17043662314716965
1.8744502067565918,0.2541787624359131,-0.22318996489048004,0.32973021268844604,-7.777813911437988,-1.865260124206543,1.0424224138259888,0.12877393290386643,0.10038087471503986,-0.1500725459463564
1.8847641944885254,0.26745104789733887,-0.1903170347213745,0.36986440420150757,-7.796283721923828,-2.0376014709472656,0.8979200720787048,0.05195489526653723,0.07938848484871514,-0.13338430423128483
1.8946800231933594,0.284263551235199,-0.1897442489862442,0.3436504006385803,-8.163900375366211,-2.306307554244995,0.6495441794395447,-0.026966730017680518,0.057081524443639495,-0.12001967255834602
1.904867172241211,0.32492950558662415,-0.09788860380649567,0.3212594985961914,-8.618565559387207,-2.134502410888672,0.4943774938583374,-0.11068769770118408,0.03543262657792773,-0.11062145630670375
1.9144680500030518,0.307998389005661,-0.0812537670135498,0.34632396697998047,-8.889631271362305,-2.0265884399414062,0.41118407249450684,-0.19838188952092664,0.015720606735106224,-0.10370664671284362
1.92445707321167,0.23364482820034027,-0.15259814262390137,0.24699586629867554,-8.919715881347656,-1.995640754699707,0.2478944957256317,-0.28758849629910577,-0.0033757668922589695,-0.09970640194770944
1.9343900680541992,0.22054755687713623,-0.09578365087509155,0.24995046854019165,-9.091174125671387,-2.0364246368408203,-0.009523626416921616,-0.37764544764343494,-0.023817955023997615,-0.09966872227648801
1.9443669319152832,0.19489958882331848,-0.05700260400772095,0.28546059131622314,-9.202147483825684,-1.8441365957260132,-0.1926194131374359,-0.4692704585118675,-0.04512865978958014,-0.10435869862937605
1.9544248580932617,0.14278623461723328,-0.11941415071487427,0.30221015214920044,-9.051915168762207,-1.8249870538711548,-0.37002143263816833,-0.5605242265947852,-0.06787433918763745,-0.11344034542247704
1.9653220176696777,0.10671321302652359,-0.1670926809310913,0.24534392356872559,-8.811888694763184,-1.8543730974197388,-0.6247703433036804,-0.6492735342629825,-0.0949408003487234,-0.128354065313974
1.975337028503418,0.11483855545520782,-0.1233978271484375,0.25965845584869385,-8.285240173339844,-1.732372760772705,-0.6982983946800232,-0.7339186037969969,-0.1263851354070752,-0.14940385327231567
1.9844450950622559,0.11476658284664154,-0.07003867626190186,0.25058603286743164,-7.234316349029541,-1.7402721643447876,-0.6448610424995422,-0.8101365803330658,-0.1609701633545009,-0.1742706858922441
1.994542121887207,0.08955517411231995,0.04668086767196655,0.1910673975944519,-5.8415751457214355,-1.8985906839370728,-0.6321548819541931,-0.8735488668662743,-0.19936525137298508,-0.20128017953720326
2.004492998123169,0.06832343339920044,0.1892659068107605,0.1710515022277832,-4.387065410614014,-1.931072473526001,-0.596895158290863,-0.9221621423676539,-0.24025876246050362,-0.22886323568286704
2.016080856323242,0.04426918923854828,0.2628819942474365,0.12329185009002686,-2.893005132675171,-1.7920877933502197,-0.4899621605873108,-0.9560000663039702,-0.27889372775554744,-0.2536476725219087
2.0245320796966553,-0.0008776336908340454,0.26338088512420654,0.011260926723480225,-1.5479544401168823,-1.6788702011108398,-0.39516347646713257,-0.9758379281650358,-0.311638493910863,-0.27230852206835443
2.0345349311828613,-0.030015677213668823,0.23545902967453003,-0.0849657654762268,-0.5363172888755798,-1.465242624282837,-0.33178630471229553,-0.9843279018409073,-0.3374452105207729,-0.28433287630349574
2.0445170402526855,-0.03551381826400757,0.20023632049560547,-0.10835504531860352,0.05883872136473656,-1.169643521308899,-0.261103093624115,-0.9853587192898214,-0.3559523707113838,-0.29066233637019173
2.054702043533325,-0.04737469553947449,0.13343346118927002,-0.11409783363342285,0.3359663486480713,-0.8722366690635681,-0.22207310795783997,-0.9824927902574146,-0.3683659159979808,-0.2933184843971076
2.06659197807312,-0.05198274552822113,0.05126297473907471,-0.08683121204376221,0.33459457755088806,-0.6225082874298096,-0.2321811467409134,-0.9783844154379013,-0.3769766877413903,-0.29473435225285427
2.0746560096740723,-0.04330065846443176,-0.03319472074508667,-0.025534212589263916,0.11421932280063629,-0.3654491901397705,-0.2730570435523987,-0.97527675525457,-0.3842093459402058,-0.29744425003923897
2.0846550464630127,-0.05681523680686951,-0.08613932132720947,0.04134929180145264,-0.15397191047668457,-0.1037193164229393,-0.24384936690330505,-0.9744824036869028,-0.39022930498946656,-0.30192586994498966
2.094675064086914,-0.09592123329639435,-0.10980963706970215,0.050258755683898926,-0.3439677953720093,0.09739359468221664,-0.1801227480173111,-0.9760398515509573,-0.3945705077571746,-0.30717082482665264
2.104605197906494,-0.12099942564964294,-0.09297025203704834,0.02432924509048462,-0.3651297986507416,0.26566728949546814,-0.11936778575181961,-0.9788620628570069,-0.3968947091136884,-0.31218343161356277
2.1167330741882324,-0.12156379222869873,-0.04856306314468384,0.0013954639434814453,-0.20224496722221375,0.381926029920578,-0.052925802767276764,-0.9812380099790871,-0.39644850348063854,-0.3155971114827975
2.124648094177246,-0.10905659198760986,-0.011217355728149414,-0.025856077671051025,0.12608177959918976,0.46524327993392944,0.009418532252311707,-0.9815540098087481,-0.3927401670772978,-0.31629395982120245
2.134871006011963,-0.09242941439151764,0.018791019916534424,-0.0405501127243042,0.5273844003677368,0.504919707775116,0.05029640719294548,-0.9786873788118426,-0.385617428613068,-0.3135434194359513
2.1447348594665527,-0.0724601000547409,0.05034273862838745,-0.04604828357696533,0.9370685815811157,0.5782521963119507,0.061702460050582886,-0.972055280341566,-0.37539304679213464,-0.30772696345741374
2.1550989151000977,-0.05075883865356445,0.07764339447021484,-0.0437275767326355,1.253563642501831,0.6458421349525452,0.08307161182165146,-0.9620258034331826,-0.3625430831925382,-0.29955763462384966
2.16732120513916,-0.049346283078193665,0.05953902006149292,-0.04692131280899048,1.4762444496154785,0.7071307897567749,0.11608947813510895,-0.949503029380062,-0.34769287709895497,-0.2896901802893674
2.1749870777130127,-0.07880422472953796,0.04018449783325195,-0.01732337474822998,1.619596242904663,0.7478263974189758,0.1509968638420105,-0.9352894852537433,-0.33154425535274656,-0.2787535201282036
2.184907913208008,-0.11010302603244781,0.03960639238357544,0.024143993854522705,1.692177176475525,0.7782317399978638,0.19998784363269806,-0.9200706217903599,-0.31464972044738615,-0.2671903294513866
2.195141077041626,-0.11442503333091736,0.03607553243637085,0.06725960969924927,1.6904375553131104,0.8030332326889038,0.2556958496570587,-0.9045700914846407,-0.2973042349332156,-0.25527123307627886
2.2054829597473145,-0.1036127507686615,0.024828970432281494,0.10133284330368042,1.6228305101394653,0.8402628898620605,0.3093867599964142,-0.8894337689941485,-0.2797789857724495,-0.243346135159764
2.218986988067627,-0.09290796518325806,0.00585860013961792,0.12644517421722412,1.5073046684265137,0.905620813369751,0.37546876072883606,-0.8752218974669307,-0.2619351517071303,-0.23154555927282794
2.2263779640197754,-0.08653680980205536,-0.01636481285095215,0.1400977373123169,1.3551331758499146,0.9668633937835693,0.42699265480041504,-0.8623304862942703,-0.24368445571533826,-0.21993594994972557
2.234799861907959,-0.08391959965229034,-0.0349079966545105,0.14040130376815796,1.1873165369033813,1.0140156745910645,0.45516106486320496,-0.8509673637531658,-0.2253783356243915,-0.20884115957359248
2.2447659969329834,-0.08691467344760895,-0.05021631717681885,0.14880096912384033,1.020742416381836,1.0493359565734863,0.46588483452796936,-0.8411677006511202,-0.2072674701002655,-0.1984557682091047
2.2549991607666016,-0.0870722085237503,-0.06480401754379272,0.15160948038101196,0.8726032972335815,1.0645712614059448,0.4545403718948364,-0.8328061994652158,-0.18956868006530259,-0.18890037914148386
2.266387939453125,-0.08825419098138809,-0.06878352165222168,0.14714348316192627,0.7586804628372192,1.0409431457519531,0.42245355248451233,-0.8255730386007489,-0.17270186305916518,-0.1803388778094337
2.2748830318450928,-0.09498699009418488,-0.07039409875869751,0.1480422019958496,0.6772225499153137,1.0000905990600586,0.3943319022655487,-0.8191722697737458,-0.15688818380651712,-0.1726994055300333
2.2849621772766113,-0.09419159591197968,-0.06529796123504639,0.141413152217865,0.6181253790855408,0.9706243276596069,0.38056257367134094,-0.8133360407054787,-0.14192146000514275,-0.16571038934465895
2.295070171356201,-0.08701862394809723,-0.04731804132461548,0.1280955672264099,0.5648279786109924,0.9568568468093872,0.386284738779068,-0.8079914694749558,-0.12746204204453962,-0.15905291698086366
2.305063009262085,-0.0837763100862503,-0.021437227725982666,0.11011290550231934,0.5285778641700745,0.9505259990692139,0.3996056020259857,-0.8030328599316925,-0.11318134752272589,-0.152473715064439
2.3161869049072266,-0.08054443448781967,-0.0026409029960632324,0.0893334150314331,0.4940474033355713,0.9500067830085754,0.423284649848938,-0.7983899371825587,-0.09889163008475592,-0.14581434141038083
2.324936866760254,-0.07415781915187836,0.0036991238594055176,0.06464135646820068,0.4834509491920471,0.956464409828186,0.4542476236820221,-0.7939287642692113,-0.08442022789928887,-0.138923217705499
2.3349008560180664,-0.071967214345932,0.02193617820739746,0.044533491134643555,0.50025475025177,0.9500390887260437,0.4808443784713745,-0.7894078407276964,-0.0697472089848069,-0.1317354103775793
2.345031976699829,-0.07463409006595612,0.04631263017654419,0.02873969078063965,0.5468523502349854,0.919221043586731,0.49189436435699463,-0.7844901887980854,-0.05515117472621199,-0.12436761932291547
2.354933977127075,-0.07382327318191528,0.06809777021408081,0.019933581352233887,0.614820659160614,0.8632726073265076,0.47625619173049927,-0.7789279069642034,-0.04113351348550501,-0.11714021982830135
2.366070032119751,-0.06354359537363052,0.0798344612121582,0.02480757236480713,0.6911202669143677,0.7940120100975037,0.44334617257118225,-0.7725547080285488,-0.028078339365320167,-0.11035961700671972
2.3750460147857666,-0.048947811126708984,0.09034937620162964,0.03149878978729248,0.7473925948143005,0.7120921015739441,0.39742928743362427,-0.7654391612524355,-0.01629807001046037,-0.1042707500564529
2.385085105895996,-0.033004894852638245,0.10634618997573853,0.03349792957305908,0.7768146395683289,0.6291224360466003,0.3527933657169342,-0.7578200754798038,-0.0059451002293537825,-0.09898215818666148
2.3951449394226074,-0.014891691505908966,0.11272609233856201,0.03232932090759277,0.7482690811157227,0.5643959641456604,0.3135734498500824,-0.7501565446722189,0.003148218545432671,-0.09440724516330004
2.4066162109375,0.0014650523662567139,0.10620200634002686,0.02601027488708496,0.6738079190254211,0.5108450651168823,0.2773377001285553,-0.7429962989413186,0.011229918238129407,-0.09044409915739508
2.4161438941955566,0.010958516038954258,0.09611177444458008,0.014571070671081543,0.5626283884048462,0.43750494718551636,0.23079881072044373,-0.7367419095496454,0.01822972780960841,-0.08711577550777556
2.425057888031006,0.01706806942820549,0.08046400547027588,0.0067084431648254395,0.3816929757595062,0.3758082985877991,0.17561863362789154,-0.7319211872723681,0.02401021299721428,-0.08451898880050074
2.4350829124450684,0.020550604909658432,0.04913818836212158,0.006765186786651611,0.1540547013282776,0.35427528619766235,0.13768281042575836,-0.729195653518471,0.02898235199329058,-0.08253174842677344
2.445034980773926,0.021572411060333252,0.019968032836914062,0.008905470371246338,-0.03023231402039528,0.3259802460670471,0.09761342406272888,-0.7285757933683776,0.033427452341735595,-0.08096729083591862
2.455080986022949,0.01998474821448326,0.005985260009765625,0.008493602275848389,-0.1603386104106903,0.29869407415390015,0.0519089512526989,-0.7295245999847102,0.037245783005289156,-0.07992683304190303
2.4674320220947266,0.017527299001812935,-0.00975710153579712,0.01019752025604248,-0.2394307553768158,0.2605682611465454,0.024289570748806,-0.7315670198211845,0.04045481755996469,-0.07933544590308765
2.47515606880188,0.02110479027032852,-0.015616953372955322,-0.007249236106872559,-0.23736721277236938,0.2050904482603073,0.009310461580753326,-0.7339899221979822,0.04304317084050086,-0.07897538310131792
2.4851908683776855,0.0376180000603199,-0.005160868167877197,-0.0306394100189209,-0.17085395753383636,0.13700486719608307,0.0022474923171103,-0.7360623165848253,0.04487134506832474,-0.07880218924934551
2.495232105255127,0.05870433524250984,0.00906306505203247,-0.04928147792816162,-0.08336662501096725,0.0820765569806099,0.02248416095972061,-0.7373358974420852,0.04610117159218232,-0.07858871240734971
2.5053679943084717,0.06906412541866302,0.02460634708404541,-0.06307244300842285,-0.006248935125768185,0.05269389972090721,0.05357922986149788,-0.7377555210629474,0.047131530232989174,-0.07804112362991314
2.5166521072387695,0.06479726731777191,0.02841728925704956,-0.06998038291931152,0.04359034448862076,0.027109045535326004,0.08612358570098877,-0.7375131960459682,0.04816616011197256,-0.07710782241859289
2.5260181427001953,0.052207402884960175,0.013711035251617432,-0.06923454999923706,0.07630009204149246,0.006016543135046959,0.11067420244216919,-0.7368699511149054,0.049191921410829294,-0.0758054759433152
2.5373759269714355,0.03961896896362305,0.004786849021911621,-0.05569934844970703,0.09877185523509979,0.0031910620164126158,0.13853342831134796,-0.7359195917650913,0.050324297172635125,-0.0741839571905803
2.5452020168304443,0.030915088951587677,0.0033542513847351074,-0.038250505924224854,0.10710062086582184,0.006947717163711786,0.15949970483779907,-0.7348061785812638,0.05168246006711676,-0.07222781390414526
2.5554561614990234,0.02598479390144348,0.0029019713401794434,-0.030120015144348145,0.11206603795289993,0.012048780918121338,0.16242730617523193,-0.7336271811446328,0.05319320528352191,-0.07011565508211254
2.566227912902832,0.02792992815375328,0.0013540983200073242,-0.028169333934783936,0.11364023387432098,0.01187620684504509,0.14181123673915863,-0.7324247587122252,0.05464660059561836,-0.06813331954559505
2.5752620697021484,0.03417592495679855,-0.006769835948944092,-0.03309166431427002,0.11105365306138992,0.002589631360024214,0.11651558429002762,-0.7312230646620811,0.05581248868910261,-0.06648810936417554
2.585275173187256,0.03254302591085434,-0.013713061809539795,-0.03681778907775879,0.10200955718755722,-0.006729834713041782,0.08516138792037964,-0.7300354006623426,0.056922401039203596,-0.06502902532605731
2.5952529907226562,0.020520634949207306,-0.01808786392211914,-0.033251941204071045,0.07978526502847672,-0.005408151540905237,0.059661731123924255,-0.7290060338942572,0.05770810408859331,-0.06396159924126676
2.6054539680480957,0.00850943848490715,-0.022758901119232178,-0.026069283485412598,0.05727490037679672,0.012125834822654724,0.03993489593267441,-0.7281904433893017,0.05834524809182231,-0.06322568017441588
2.616702079772949,-0.007320567965507507,-0.020577311515808105,-0.022970914840698242,0.02839529514312744,0.029394792392849922,0.03513630852103233,-0.7276391546225336,0.0590214203692649,-0.0626528653533131
2.625293016433716,-0.024755019694566727,-0.018119335174560547,-0.025893747806549072,0.018266761675477028,0.04699535667896271,0.016183389350771904,-0.727351352333369,0.05973447926889277,-0.06225531331025632
2.6352760791778564,-0.032886192202568054,-0.019500792026519775,-0.033947646617889404,0.020569495856761932,0.051056236028671265,0.007487261667847633,-0.7271171956891381,0.06041534727813473,-0.06207100420556609
2.6452460289001465,-0.03977369889616966,-0.022472679615020752,-0.03658294677734375,0.05010981112718582,0.04162305220961571,0.0006714334012940526,-0.7267244352598728,0.06101563628967439,-0.061960764496978855
2.6552510261535645,-0.04328932613134384,-0.011400401592254639,-0.035540878772735596,0.08132478594779968,0.025236088782548904,-0.01242189109325409,-0.7259767397054694,0.061412521212569515,-0.06199570774231601
2.666516065597534,-0.046004436910152435,0.008011162281036377,-0.033902645111083984,0.0891030803322792,0.01142147183418274,-0.033692024648189545,-0.7249945739514108,0.061500681237108425,-0.06226179391335932
2.6753029823303223,-0.051109157502651215,0.010690748691558838,-0.0301666259765625,0.06939780712127686,0.016640691086649895,-0.05232866480946541,-0.7240651885298229,0.061318258927560286,-0.06282603428770092
2.6854681968688965,-0.0599270723760128,0.004287123680114746,-0.023034334182739258,0.04408419504761696,0.03454778715968132,-0.07626276463270187,-0.723406799497318,0.06101519458334821,-0.06370431557274317
2.69551420211792,-0.07627128064632416,-6.091594696044922e-05,-0.018471956253051758,0.02723688632249832,0.04650719836354256,-0.10069705545902252,-0.7229987938221297,0.06056779334576022,-0.06494564417624334
2.7054829597473145,-0.0865994244813919,0.005352139472961426,-0.01903247833251953,0.017941655591130257,0.0627245157957077,-0.13706384599208832,-0.7227596996465869,0.059920408052883505,-0.06662910680863446
2.7180750370025635,-0.08429604768753052,0.014623701572418213,-0.02003157138824463,0.02683526650071144,0.08210234344005585,-0.16663095355033875,-0.7225233047485939,0.059134492280912256,-0.06877290597489819
2.7254018783569336,-0.08170279115438461,0.018666207790374756,-0.019931018352508545,0.03614354506134987,0.0937800407409668,-0.19067983329296112,-0.7221992562603824,0.05824264825766312,-0.07130462418554857
2.735434055328369,-0.0819135457277298,0.023335158824920654,-0.019062280654907227,0.04396556690335274,0.08581137657165527,-0.21746788918972015,-0.7218132875483123,0.05709906510895361,-0.0742008052204052
2.745370864868164,-0.07925301045179367,0.027417898178100586,-0.019500732421875,0.052440546452999115,0.08352825045585632,-0.23661041259765625,-0.7214156497987544,0.05562661459073176,-0.07745336162379213
2.7556610107421875,-0.06515955924987793,0.024080097675323486,-0.013643085956573486,0.06507906317710876,0.08278802037239075,-0.24049165844917297,-0.7209228712079443,0.053921575663791105,-0.08095632376575303
2.767033100128174,-0.061419274657964706,0.025233089923858643,-0.012437403202056885,0.09589049965143204,0.07259716838598251,-0.24544966220855713,-0.7202209821513766,0.05211722305861256,-0.08450975270235969
2.775459051132202,-0.062381867319345474,0.03474515676498413,-0.011320710182189941,0.13376526534557343,0.05102543160319328,-0.2569737136363983,-0.7191581172635391,0.049998974454462095,-0.0882531196257675
2.7873101234436035,-0.05173073709011078,0.0354236364364624,-0.008931219577789307,0.16650590300559998,0.03787261247634888,-0.2659629285335541,-0.7177704614843391,0.04758507041047036,-0.09214746169493118
2.7957370281219482,-0.03649846836924553,0.030481576919555664,-0.006540656089782715,0.18179050087928772,0.02995072491466999,-0.26786118745803833,-0.7161688488196982,0.04506306216995135,-0.09610326314771701
2.8056468963623047,-0.02858762815594673,0.02872556447982788,-0.0028302669525146484,0.1905440390110016,0.027885178104043007,-0.26725637912750244,-0.7144524848966294,0.04254055619422878,-0.10003607603680544
2.8167030811309814,-0.0259072408080101,0.0286596417427063,3.987550735473633e-05,0.1928575038909912,0.02877267822623253,-0.2679539918899536,-0.7127029716932245,0.040040591632284905,-0.10393714305912916
2.8256969451904297,-0.019832326099276543,0.02355116605758667,0.003979206085205078,0.19118984043598175,0.026592880487442017,-0.273379921913147,-0.7109656664776545,0.03751943260938869,-0.10788106251131163
2.8355488777160645,-0.012923527508974075,0.017927467823028564,0.007397174835205078,0.18713028728961945,0.029588624835014343,-0.26867911219596863,-0.7092663564034984,0.0350546212753948,-0.11178285893913992
2.84554386138916,-0.007307721301913261,0.01107478141784668,0.010600030422210693,0.18889889121055603,0.03769715130329132,-0.25880706310272217,-0.7076005642322396,0.032733572050477,-0.1155684912816016
2.855767011642456,0.0009567867964506149,0.009939968585968018,0.01178884506225586,0.1985383778810501,0.036023177206516266,-0.2414068728685379,-0.7057420890234363,0.03092414260246142,-0.1189369669603972
2.8666679859161377,0.006873084232211113,0.013827025890350342,0.010500431060791016,0.21154765784740448,0.02456759102642536,-0.230433851480484,-0.7037642240984576,0.0291756109460906,-0.12210302897349667
2.8756861686706543,0.017892995849251747,0.01636427640914917,0.00864863395690918,0.22054442763328552,0.017175763845443726,-0.2217482626438141,-0.701659027435365,0.027400804643206128,-0.1251608676769113
2.8858819007873535,0.023548278957605362,0.009528696537017822,0.014404475688934326,0.22276043891906738,0.013333622366189957,-0.21228793263435364,-0.6994829375174755,0.025662403874778864,-0.12809152817726777
2.8956918716430664,0.019496489316225052,0.004100799560546875,0.019594311714172363,0.2135825753211975,0.013891421258449554,-0.2018355429172516,-0.6973454798816214,0.023994327336049302,-0.1308688309966059
2.9056789875030518,0.010254312306642532,0.0010040998458862305,0.022369563579559326,0.20452064275741577,0.02584954723715782,-0.19534115493297577,-0.695295976573712,0.022496149395070372,-0.13351401846063937
2.9165470600128174,0.009652428328990936,-0.005365252494812012,0.02250427007675171,0.18625546991825104,0.03706429898738861,-0.18394161760807037,-0.6933782541494025,0.021199029997976456,-0.13603145168460454
2.9256680011749268,0.007769080810248852,-0.00993490219116211,0.013654887676239014,0.16134800016880035,0.04630599915981293,-0.16575142741203308,-0.6916827387367191,0.02012742549747415,-0.1383462970016779
2.935723066329956,0.008763906545937061,-0.012133598327636719,0.006848275661468506,0.14064328372478485,0.050258658826351166,-0.1452426314353943,-0.6902193403740887,0.019307491299531913,-0.14039623865088918
2.9456639289855957,0.01721568964421749,-0.017592310905456543,0.0008380413055419922,0.13185085356235504,0.038407858461141586,-0.12714672088623047,-0.6888891801204611,0.01861619912688334,-0.14217856877279192
2.955833911895752,0.02327585779130459,-0.01675313711166382,0.0003459453582763672,0.13819296658039093,0.016867725178599358,-0.11159848421812057,-0.6875655736405764,0.01790160491714673,-0.14375135012335732
2.9680490493774414,0.027893928810954094,-0.01243966817855835,0.003182530403137207,0.14059114456176758,-0.016187163069844246,-0.09560274332761765,-0.6861904018904208,0.01704012909687552,-0.14512133515418044
2.9758119583129883,0.031726911664009094,-0.006552994251251221,0.004890918731689453,0.13418354094028473,-0.047737278044223785,-0.08167361468076706,-0.6848147966818344,0.015972787422857574,-0.14629433121437344
2.9857289791107178,0.035018157213926315,-0.004402339458465576,0.009277701377868652,0.11146997660398483,-0.07159120589494705,-0.07081138342618942,-0.6835949940217626,0.014722868272180558,-0.1473070684865502
2.9957470893859863,0.03493787348270416,-0.008182883262634277,0.012229979038238525,0.07237320393323898,-0.08589913696050644,-0.05867242068052292,-0.6829016556031035,0.013618087006344285,-0.14802221344540822
3.005774974822998,0.03249874711036682,-0.01616799831390381,0.014063060283660889,0.02464563213288784,-0.09224224835634232,-0.05201265588402748,-0.6825537117352669,0.012490325298391612,-0.1486025297843627
3.0171689987182617,0.0268322192132473,-0.02461719512939453,0.015938103199005127,-0.017449358478188515,-0.09189870208501816,-0.04110434651374817,-0.6825484822313943,0.011396111498436206,-0.149074877895236
3.0258970260620117,0.01997262053191662,-0.03317826986312866,0.019931256771087646,-0.0396374836564064,-0.08106709271669388,-0.025442564859986305,-0.682785545021552,0.010504358236180131,-0.14934146073536606
3.036789894104004,0.011477550491690636,-0.03230553865432739,0.0223696231842041,-0.04077776521444321,-0.06446756422519684,-0.00041556230280548334,-0.6831358510274179,0.009951203913208601,-0.14933137100752622
3.045865058898926,-0.0010283743031322956,-0.023961007595062256,0.019080638885498047,-0.013943755999207497,-0.06304650753736496,0.015884848311543465,-0.6833942186740923,0.00966969591770029,-0.1490486845810626
3.0559780597686768,-0.009391054511070251,-0.010654270648956299,0.01792961359024048,0.025236837565898895,-0.062496647238731384,0.03228373825550079,-0.6833337575335309,0.009532581242039904,-0.1485544061626641
3.0670270919799805,-0.009121933951973915,-0.0012705326080322266,0.019148051738739014,0.061454229056835175,-0.054078128188848495,0.05217542126774788,-0.6829014881789879,0.009595393238045351,-0.14780950949780028
3.0759270191192627,-0.005200063344091177,0.0062111616134643555,0.016467928886413574,0.079567089676857,-0.048516564071178436,0.07209895551204681,-0.6821873375430693,0.009923564374506706,-0.14679788526231444
3.0860650539398193,-0.0019900212064385414,0.014299988746643066,0.014810562133789062,0.09000694751739502,-0.046156205236911774,0.07645189017057419,-0.6813008806453125,0.010360922881807398,-0.14564121614694153
3.0959601402282715,0.0008032368496060371,0.014582931995391846,0.015401244163513184,0.09477011114358902,-0.03784722834825516,0.07150518149137497,-0.6803083532406965,0.010783295112046665,-0.14453571374053395
3.10598087310791,0.004619675688445568,0.008710324764251709,0.019437313079833984,0.07761456072330475,-0.041261933743953705,0.07244501262903214,-0.679344358998261,0.01114532922501689,-0.1435042611265278
3.1166720390319824,0.0003502247855067253,0.0014286637306213379,0.021914541721343994,0.05715082585811615,-0.03477633744478226,0.06340064853429794,-0.6786033548377342,0.01140924630115895,-0.14256640446070165
3.125854969024658,-0.0032892944291234016,0.0036022067070007324,0.027041733264923096,0.026427004486322403,-0.031153639778494835,0.05495868995785713,-0.6781634477686522,0.011532957586411579,-0.1418160740869195
3.135983943939209,-0.005394827574491501,-0.0036572813987731934,0.027947664260864258,0.0004622309934347868,-0.020400550216436386,0.05071233585476875,-0.678080422739771,0.01161032710662233,-0.1411971312341191
3.1459250450134277,-0.0059291161596775055,-0.008895933628082275,0.026427626609802246,-0.018852610141038895,-0.010330606251955032,0.05070275068283081,-0.6782630072677055,0.011788702332469992,-0.1405966372806179
3.1560511589050293,-0.007617895491421223,-0.009638309478759766,0.022542834281921387,-0.024294747039675713,-0.006902850698679686,0.052186984568834305,-0.678589283034951,0.012079500653367166,-0.13995683546258955
3.166903018951416,-0.010942920111119747,-0.007567942142486572,0.021968841552734375,-0.011109969578683376,0.001984916627407074,0.05924728885293007,-0.6788896272191167,0.012492388068186587,-0.13924958053348518
3.1761419773101807,-0.01183025911450386,-0.003260195255279541,0.02333378791809082,0.0034765463788062334,0.004119750577956438,0.06387612968683243,-0.6790403489533728,0.013026369050895449,-0.13844865867000022
3.1860151290893555,-0.012507493607699871,0.003464639186859131,0.024328410625457764,0.019908782094717026,0.0030568831134587526,0.06359995901584625,-0.6790262792744601,0.013602439362337279,-0.13761282530817115
3.196107864379883,-0.014941010624170303,0.006587028503417969,0.02246302366256714,0.02726897783577442,0.012528814375400543,0.06251993775367737,-0.6788767199752671,0.014178888060361565,-0.13681395016692685
3.2060141563415527,-0.01836969703435898,0.0024091601371765137,0.022501587867736816,0.022163964807987213,0.024881087243556976,0.0621257945895195,-0.6787551397021088,0.01481866199587936,-0.13604130304728115
3.217855930328369,-0.02162402868270874,-0.0005046725273132324,0.022432684898376465,0.017242010682821274,0.039884183555841446,0.06318024545907974,-0.6786564073006387,0.015567863582114606,-0.1352926732805621
3.2259950637817383,-0.02644934132695198,-0.0006629228591918945,0.023821353912353516,0.01213326770812273,0.052455902099609375,0.058620113879442215,-0.678565621013159,0.016453418277943204,-0.13455612109288195
3.236064910888672,-0.028403624892234802,-0.0026842355728149414,0.023403942584991455,0.016216542571783066,0.06510081142187119,0.056073810905218124,-0.6784572668112866,0.017394355882059512,-0.1338863021220845
3.2460010051727295,-0.029961057007312775,-0.0022531747817993164,0.022413432598114014,0.01697021722793579,0.07151849567890167,0.05964244529604912,-0.6783347538001107,0.018432802063565824,-0.13321892065547217
3.2563371658325195,-0.03139742463827133,0.0029069185256958008,0.020920097827911377,0.03345957770943642,0.07678694278001785,0.05717385932803154,-0.6781354486954659,0.019529914557710453,-0.13254965631100282
3.266806125640869,-0.02834031917154789,0.010418891906738281,0.020898759365081787,0.03993505612015724,0.08058434724807739,0.05205393210053444,-0.6778747310426149,0.020616210561572892,-0.1319344213636917
3.276308059692383,-0.02541467547416687,0.013396084308624268,0.018838465213775635,0.03963414952158928,0.0871521383523941,0.049441635608673096,-0.6775787378735244,0.021713524353430755,-0.13138848384438132
3.2875239849090576,-0.02708529308438301,0.014950454235076904,0.013967156410217285,0.03940911218523979,0.09186513721942902,0.041732851415872574,-0.677287582084164,0.02277557189208534,-0.13092327525673972
3.296416997909546,-0.026592344045639038,0.013129591941833496,0.00855708122253418,0.04266481101512909,0.09390401095151901,0.034076955169439316,-0.6769807666157337,0.023743013020670424,-0.13062172782019157
3.3062679767608643,-0.02597181312739849,0.01680624485015869,0.009359955787658691,0.05054830014705658,0.08913961797952652,0.025292251259088516,-0.6766490149009758,0.024545831320890877,-0.13047293305538119
3.316390037536621,-0.025965867564082146,0.02172231674194336,0.007487356662750244,0.06197817623615265,0.08619570732116699,0.014615851454436779,-0.6762345730371275,0.025117149979230566,-0.130514336284557
3.326291084289551,-0.02399148978292942,0.02294844388961792,0.004436314105987549,0.06530340015888214,0.07801607996225357,0.005980817601084709,-0.6757581217382086,0.025491136042924814,-0.13072625900819027
3.336390972137451,-0.018814854323863983,0.018754005432128906,0.00041407346725463867,0.06254956871271133,0.07345040142536163,-0.0016703906003385782,-0.6753256926695197,0.025731531897322333,-0.13105539602538063
3.346250057220459,-0.016103699803352356,0.013911008834838867,9.679794311523438e-05,0.051430605351924896,0.06721780449151993,-0.0020616089459508657,-0.6750206339726651,0.02594659294343644,-0.1313897757942079
3.35626220703125,-0.015645455569028854,0.004901289939880371,-0.0009319186210632324,0.036909256130456924,0.062220294028520584,-0.008293619379401207,-0.6748537297369436,0.02613801074566492,-0.13172021404507386
3.3666720390319824,-0.011847637593746185,0.0015161633491516113,-0.0016737580299377441,0.02694983035326004,0.05606093257665634,-0.009253688156604767,-0.6747921873870013,0.02623654524634684,-0.1321085378170133
3.3762779235839844,-0.006787445396184921,0.004762470722198486,-0.001864314079284668,0.015053607523441315,0.051388904452323914,-0.007774888537824154,-0.6747774998690101,0.026302218802415962,-0.13247531094358778
3.3863580226898193,-0.010327810421586037,0.0047411322593688965,0.0010230541229248047,-0.001789555069990456,0.047905225306749344,-0.010194104164838791,-0.6749416239879776,0.02634517503274145,-0.13282538714857153
3.3964240550994873,-0.014765139669179916,-0.0033011436462402344,0.003832876682281494,-0.008314649574458599,0.04476860165596008,-0.010347927920520306,-0.6752554906369186,0.02634799221507303,-0.13319585493543576
3.4068031311035156,-0.018695035949349403,-0.008812904357910156,0.004177212715148926,0.000358999939635396,0.041473738849163055,-0.004945439752191305,-0.6755335039092446,0.02638416725024078,-0.13350276723429882
3.416722059249878,-0.01942996308207512,-0.003988146781921387,-0.000613868236541748,0.012773241847753525,0.036845918744802475,-0.0022081893403083086,-0.6756274044617072,0.02648717812261023,-0.13371913908179014
3.426344871520996,-0.019692927598953247,0.001550436019897461,-0.0023862123489379883,0.027107175439596176,0.030776305124163628,-0.0018057856941595674,-0.6755301473369414,0.026587478705678395,-0.13389262063255758
3.4364562034606934,-0.01726645603775978,0.002395808696746826,-0.0036757588386535645,0.03335636481642723,0.023103516548871994,-0.002043126616626978,-0.6752485658884513,0.026620177224963158,-0.1340679185199491
3.446354866027832,-0.011326182633638382,-0.001827538013458252,-0.00518721342086792,0.030004510655999184,0.020215852186083794,-0.0021043792366981506,-0.6749315276997209,0.026646630870775224,-0.13420708452502755
3.4563820362091064,-0.007103780284523964,-0.0032854080200195312,-0.004685878753662109,0.02330709435045719,0.016175393015146255,0.0008915702346712351,-0.6746881302728004,0.026725106612330955,-0.13428062600071028
3.4678821563720703,-0.003591325134038925,-0.0038884878158569336,-0.0054215192794799805,0.02107776142656803,0.009259695187211037,-0.0008035317296162248,-0.6745224661437267,0.026717809508157192,-0.13436606553988936
3.4764251708984375,-0.0027575772255659103,-0.006896555423736572,-0.0023657679557800293,0.016965573653578758,0.00610491493716836,-0.0028741394635289907,-0.6743493716879483,0.026584342105567448,-0.1345093556242622
3.4863271713256836,-0.0051082707941532135,-0.008291542530059814,0.0016461610794067383,0.012478413060307503,0.006862850859761238,-0.0003321521799080074,-0.6741622181941177,0.026386057625787766,-0.13469567639452912
3.4965500831604004,-0.008430162444710732,-0.007242918014526367,0.0036510229110717773,0.015163330361247063,0.012314829975366592,0.004247473087161779,-0.6740113859715751,0.02622079230566841,-0.13484055438735842
3.5064899921417236,-0.011989731341600418,-0.005163311958312988,0.002425253391265869,0.020182855427265167,0.01963692530989647,0.009238502942025661,-0.6738494931809615,0.02618379659617296,-0.13491504262869491
3.516541004180908,-0.009380850940942764,-0.004911065101623535,-0.000246584415435791,0.030494963750243187,0.02239130064845085,0.013028713874518871,-0.6736049177994037,0.026257291727285793,-0.1349230313783255
3.5263450145721436,-0.0038134530186653137,-0.002540886402130127,0.0009421706199645996,0.04261714220046997,0.026720799505710602,0.020433900877833366,-0.6732080030306616,0.02648588749573298,-0.13481231184452716
3.5365350246429443,-0.00023814663290977478,0.0004814267158508301,0.0043035149574279785,0.04939292371273041,0.025546258315443993,0.026103556156158447,-0.6726993360767258,0.0268398822092584,-0.13457975245745252
3.546360969543457,0.0037227943539619446,-0.00018554925918579102,0.009723246097564697,0.04615984484553337,0.025124147534370422,0.025237761437892914,-0.6721669925417558,0.027226774249294657,-0.134305650783258
3.5564188957214355,0.006605435162782669,-0.0024709701538085938,0.01771646738052368,0.03138016536831856,0.031204942613840103,0.03149869665503502,-0.671714220870293,0.027667101556437493,-0.13399804282080696
3.5665669441223145,0.007610533386468887,-0.007472336292266846,0.02372664213180542,0.008052205666899681,0.04350848123431206,0.04226745292544365,-0.6714758807768211,0.028249335900359277,-0.13358334286100454
3.576530933380127,0.00615953654050827,-0.009011566638946533,0.024501800537109375,-0.006011364050209522,0.05820357799530029,0.04856092855334282,-0.6714539552133809,0.028991553231054863,-0.13308386703372313
3.586514949798584,0.006765298545360565,-0.005517184734344482,0.02423107624053955,-0.006394327152520418,0.07301288843154907,0.055877432227134705,-0.6715122867148166,0.02989571390511896,-0.1325200824004796
3.5968151092529297,0.008000785484910011,-0.0007907748222351074,0.02287137508392334,0.0029408347327262163,0.07974877953529358,0.06131549924612045,-0.6714976599809995,0.03098794203381666,-0.13185392198828247
3.6065211296081543,0.009882785379886627,0.007241606712341309,0.021152496337890625,0.01387497503310442,0.08061457425355911,0.06041748449206352,-0.6713921805677042,0.03218762911649694,-0.13112948544574288
3.6166181564331055,0.012562815099954605,0.011574804782867432,0.01938652992248535,0.01921200007200241,0.0852789655327797,0.056566230952739716,-0.6712366971984621,0.033419008785487134,-0.1304267242790425
3.6264748573303223,0.017052628099918365,0.008580267429351807,0.02079373598098755,0.009376147761940956,0.09323275834321976,0.05965283513069153,-0.6711246592582453,0.03475647259969003,-0.12970209788096024
3.6366219520568848,0.014248980209231377,0.0023586153984069824,0.023798644542694092,-0.0049823857843875885,0.10436583310365677,0.06099996715784073,-0.6711585231181562,0.03623413091151569,-0.1289235597521248
3.646472930908203,0.009104590862989426,-0.004301607608795166,0.02532351016998291,-0.012222721241414547,0.12130939960479736,0.06503492593765259,-0.6713043662925057,0.037879190270994595,-0.1281047116064543
3.656934976577759,0.004772217944264412,-0.011547267436981201,0.026174068450927734,-0.009644532576203346,0.14546290040016174,0.08285189419984818,-0.6714379472942468,0.039793169928977336,-0.12716528557677165
3.6671390533447266,-0.004488598555326462,-0.010999321937561035,0.02605140209197998,0.0014541917480528355,0.16084212064743042,0.10421577841043472,-0.6715176536628373,0.04207638692263718,-0.1259617673687364
3.6767311096191406,-0.012593567371368408,-0.004617273807525635,0.019545137882232666,0.022861231118440628,0.1772177666425705,0.12046254426240921,-0.671434749077306,0.04467139340334477,-0.12452046533132317
3.686708927154541,-0.005656436085700989,0.000798344612121582,0.012132525444030762,0.05438719689846039,0.20453141629695892,0.14616765081882477,-0.671085562058026,0.047630894814591145,-0.12284139480296795
3.6968159675598145,0.0036629140377044678,0.0012888312339782715,0.0027064085006713867,0.07234339416027069,0.20577901601791382,0.17488116025924683,-0.6704788399457022,0.050966476485308304,-0.1208250926370725
3.7067131996154785,0.006130333989858627,0.005461156368255615,-0.007798969745635986,0.08918975293636322,0.201882004737854,0.19323672354221344,-0.6696916183162431,0.054468001538374444,-0.11851061951646838
3.7182400226593018,0.01435120403766632,0.00902014970779419,-0.011954069137573242,0.10152388364076614,0.18834435939788818,0.21081006526947021,-0.6687336369304527,0.05799589189544329,-0.1159959796147299
3.726820945739746,0.02982834354043007,0.0019484758377075195,-0.015755772590637207,0.10263628512620926,0.16576609015464783,0.21870048344135284,-0.6676926446657796,0.06136824831061634,-0.11337447499247204
3.7373790740966797,0.03754861280322075,-0.0031984448432922363,-0.01697176694869995,0.09243105351924896,0.14733301103115082,0.2238406538963318,-0.6666691458960672,0.06449068313494306,-0.11073245547478393
3.746845006942749,0.03454582393169403,-0.009921908378601074,-0.0176733136177063,0.06325292587280273,0.14717721939086914,0.24347907304763794,-0.6658467310299738,0.06749786300507328,-0.10797948505225043
3.757863998413086,0.02692895382642746,-0.021158993244171143,-0.020224034786224365,0.03996118903160095,0.1538335233926773,0.27061161398887634,-0.6652731651386575,0.07067870590055784,-0.10496757474506743
