timestamp,accel_x,accel_y,accel_z,rotation_x,rotation_y,rotation_z, pitch,roll,yaw
0.04777789115905762,0.02035057544708252,-0.05385357141494751,0.030742347240447998,0.08452330529689789,-0.3071455657482147,0.5597912073135376,0.18991604515277372,0.18956943867045264,-0.018109210996145878
0.055947065353393555,0.01792861521244049,-0.04840649664402008,0.038365066051483154,0.07244187593460083,-0.28652843832969666,0.5912591218948364,0.19176510477948958,0.18547268575306977,-0.012472392952542216
0.06832695007324219,0.01362389326095581,-0.03713017702102661,0.04812270402908325,0.0552297942340374,-0.2683939039707184,0.599002480506897,0.19347526811602708,0.18150438473907027,-0.006601888588896934
0.07537388801574707,0.007633179426193237,-0.021419554948806763,0.057654500007629395,0.03603266552090645,-0.2486572116613388,0.590790867805481,0.19499324480191169,0.17771166303689356,-0.0007031772162598598
0.07765984535217285,-0.0002514272928237915,-0.010590091347694397,0.0662270188331604,0.013829542323946953,-0.21694841980934143,0.5731081962585449,0.19624887890515738,0.17419669237580476,0.0051154491795875265
0.08509707450866699,-0.016088292002677917,0.0014296472072601318,0.06999576091766357,0.015028230845928192,-0.1807941496372223,0.5457665324211121,0.19731816943939107,0.17107325564026535,0.010732684604664477
0.08964800834655762,-0.03638342022895813,0.01695968210697174,0.0711776614189148,0.040102675557136536,-0.13421913981437683,0.5170997977256775,0.1984663310112708,0.168397919825984,0.016045409420229265
0.09757113456726074,-0.05862244963645935,0.03782528638839722,0.07252126932144165,0.09278665482997894,-0.07439736276865005,0.4786435067653656,0.1999365646165923,0.1663555770708334,0.020958813313654307
0.10762405395507812,-0.08081814646720886,0.059025928378105164,0.06351560354232788,0.15899960696697235,-0.015005892142653465,0.437966912984848,0.2019205470512983,0.16499616748309218,0.025373474519423105
0.11835217475891113,-0.09831380844116211,0.0721324235200882,0.04976600408554077,0.24785225093364716,0.036920420825481415,0.3961411714553833,0.20461496241270027,0.16432397858672515,0.02923058354874904
0.12763285636901855,-0.10728314518928528,0.08714814484119415,0.03640717267990112,0.33283257484436035,0.06968040764331818,0.35208550095558167,0.20809253063702984,0.16417306506582752,0.03253096714702252
0.1376500129699707,-0.11222429573535919,0.10931490361690521,0.0299454927444458,0.3960597515106201,0.0900149792432785,0.30027690529823303,0.2122539561579127,0.16439651504315442,0.03521908386425616
0.147658109664917,-0.11454570293426514,0.11384809017181396,0.029090702533721924,0.40438416600227356,0.09801600128412247,0.2353878766298294,0.21667480201727649,0.16489110568738205,0.03725524553577239
0.15779495239257812,-0.1141526848077774,0.10576605796813965,0.03221613168716431,0.3647818863391876,0.10006050765514374,0.16890552639961243,0.2208223154608727,0.16555577909581753,0.03864700607419453
0.1682589054107666,-0.11027976870536804,0.08994348347187042,0.039891958236694336,0.2900311350822449,0.10152976959943771,0.09403564780950546,0.22428061540486505,0.16637190632179474,0.03941576940493709
0.17817091941833496,-0.11227767169475555,0.0738932341337204,0.04333007335662842,0.19850893318653107,0.10641560703516006,0.023674404248595238,0.22678750634394892,0.16735680114360446,0.03958953046720433
0.18803811073303223,-0.11639998853206635,0.06344276666641235,0.045622408390045166,0.1188439130783081,0.11271398514509201,-0.03847210854291916,0.22832429331571433,0.16851580053852894,0.03924188497646087
0.1979990005493164,-0.11777052283287048,0.05691070854663849,0.043292999267578125,0.06633037328720093,0.11221624165773392,-0.07920675724744797,0.2291219724375896,0.16981614327905284,0.03848005443122676
0.208021879196167,-0.11427493393421173,0.06267282366752625,0.03670579195022583,0.04272881895303726,0.09718620032072067,-0.10934937000274658,0.22946079540719858,0.17108440456696097,0.03744068448102869
0.21842098236083984,-0.1078573614358902,0.07400286197662354,0.03191715478897095,0.051775310188531876,0.0844523012638092,-0.1274239867925644,0.22971977404208796,0.17227844589576918,0.0361536862643923
0.2278580665588379,-0.10239924490451813,0.0807773768901825,0.028790593147277832,0.06241835281252861,0.07655500620603561,-0.13281869888305664,0.23004846309695962,0.17337833686477805,0.03474508619177193
0.237868070602417,-0.10173091292381287,0.08841265738010406,0.021141767501831055,0.07589580863714218,0.06951840221881866,-0.1257634460926056,0.2305090079883562,0.17441888720300275,0.03330179132369028
0.2477560043334961,-0.10273157060146332,0.09095032513141632,0.013766705989837646,0.10754874348640442,0.07791579514741898,-0.11507564783096313,0.23117217671579599,0.17545844488052217,0.03191870132170479
0.25782299041748047,-0.09722815454006195,0.08938853442668915,0.004069387912750244,0.18158036470413208,0.06328891217708588,-0.10071029514074326,0.23238952320946207,0.17648613213678563,0.03056661293626097
0.26807188987731934,-0.08943071961402893,0.10075834393501282,-0.0073819756507873535,0.2487582266330719,0.02426956221461296,-0.09972838312387466,0.23433639765781497,0.17723780781594448,0.029169697132845708
0.27780985832214355,-0.07891185581684113,0.10570216178894043,-0.006461739540100098,0.2640889883041382,-0.0008168821223080158,-0.11100208014249802,0.2367058522288017,0.17768470519868293,0.0276394360794286
0.28781914710998535,-0.07241345942020416,0.08645257353782654,-0.0038493871688842773,0.24121548235416412,-0.0005613071843981743,-0.11949633806943893,0.23900539329912632,0.17802615389076015,0.026010990573490822
0.29782700538635254,-0.0749550312757492,0.06423215568065643,0.004897713661193848,0.18999862670898438,0.004253688268363476,-0.12382318079471588,0.24071388776624364,0.17825403946732343,0.024432292377421387
0.3078920841217041,-0.08094021677970886,0.047671034932136536,0.022455990314483643,0.13411185145378113,0.006173072382807732,-0.14541491866111755,0.24183977873774898,0.17851546463204218,0.022831893464387288
0.3187730312347412,-0.08063460886478424,0.028980955481529236,0.03982532024383545,0.10595636814832687,0.008154197596013546,-0.1789020299911499,0.24247048298807788,0.17886260230969625,0.02100610068217886
0.3280651569366455,-0.07498236000537872,0.016752183437347412,0.04379647970199585,0.11684442311525345,0.010723305866122246,-0.203605517745018,0.24290396781789014,0.17930655194015968,0.018896135289555003
0.3379800319671631,-0.06908822059631348,0.027196362614631653,0.04000884294509888,0.13433979451656342,0.0020951961632817984,-0.22013069689273834,0.24347730897629444,0.1797753084845421,0.016553574698489112
0.34801793098449707,-0.062343403697013855,0.03941722214221954,0.03508716821670532,0.1473706066608429,0.006390696857124567,-0.24050360918045044,0.24410477830052155,0.18028271390276118,0.013984808896455371
0.35816502571105957,-0.05666646361351013,0.033995792269706726,0.03639429807662964,0.16264969110488892,0.014538638293743134,-0.2468949258327484,0.24482351291778348,0.18090624361561575,0.01124348240897429
0.36895298957824707,-0.0545421838760376,0.022725656628608704,0.03608715534210205,0.1866830587387085,0.0410238653421402,-0.24270610511302948,0.24577357192118654,0.18171397339761136,0.008460935190946935
0.37818098068237305,-0.057945817708969116,0.01721629500389099,0.04109102487564087,0.20160795748233795,0.06454862654209137,-0.23635712265968323,0.24703132314610265,0.18278119403150062,0.005706906636936603
0.3882019519805908,-0.06331627070903778,0.01077967882156372,0.04200392961502075,0.205159530043602,0.08277570456266403,-0.22995717823505402,0.248466265448975,0.18403241532337763,0.003000829971543094
0.3981750011444092,-0.06166630983352661,0.006357014179229736,0.035263240337371826,0.20336002111434937,0.1040855199098587,-0.23013241589069366,0.2499802849686329,0.18546383705724676,0.00031874235607410375
0.4081580638885498,-0.05592130124568939,-0.007047608494758606,0.025896847248077393,0.19396041333675385,0.12739576399326324,-0.2343059480190277,0.2514847674796824,0.18714727183006677,-0.0023733576034663363
0.41889500617980957,-0.05945311486721039,-0.017701953649520874,0.018358945846557617,0.17168813943862915,0.14608290791511536,-0.24389547109603882,0.2528360674748934,0.18919392585434877,-0.0051598169692535075
0.42815089225769043,-0.061213523149490356,-0.022515475749969482,0.01356726884841919,0.1458759605884552,0.14714910089969635,-0.2584332823753357,0.25393214595215385,0.19138942866180617,-0.00801865805732842
0.4380319118499756,-0.05726402997970581,-0.027806341648101807,0.011539876461029053,0.10001419484615326,0.140689879655838,-0.27811455726623535,0.25462988332986336,0.19357979224685073,-0.01099159959245301
0.4481849670410156,-0.05140802264213562,-0.035310566425323486,0.005692005157470703,0.042611755430698395,0.1334293931722641,-0.29905465245246887,0.2547592926610708,0.19571134824507122,-0.014055288891178542
0.46030402183532715,-0.04598149657249451,-0.041477054357528687,-0.0006279349327087402,0.001909865764901042,0.13633516430854797,-0.3045112192630768,0.2543788513104172,0.19783578631735863,-0.017169336438234047
0.47023510932922363,-0.04593437910079956,-0.03912907838821411,-0.012648463249206543,-0.034467149525880814,0.13137325644493103,-0.306414395570755,0.2536044259540051,0.19993268982458098,-0.020233153851865464
0.47834086418151855,-0.042965129017829895,-0.03108656406402588,-0.019504070281982422,-0.05412394180893898,0.11919540911912918,-0.2994030714035034,0.2525496429842797,0.20192641581083545,-0.02321279388803937
0.48837900161743164,-0.03859430551528931,-0.025248706340789795,-0.02207052707672119,-0.04331112280488014,0.10573539137840271,-0.2817268371582031,0.2514717352029961,0.20376034042926733,-0.026049765080374362
0.49823498725891113,-0.03534303605556488,-0.01917804777622223,-0.027047574520111084,-0.0280219167470932,0.07915385067462921,-0.2629470229148865,0.25057145270172043,0.2053521995753421,-0.02873122725409741
0.5084798336029053,-0.032548874616622925,-0.004400134086608887,-0.02946925163269043,-0.019036445766687393,0.052708838135004044,-0.2487863004207611,0.24982310979469807,0.20662966178455366,-0.0312824378653469
0.5194919109344482,-0.02747991681098938,0.002487853169441223,-0.030669808387756348,-0.010910076089203358,0.046095144003629684,-0.23194368183612823,0.2491840051330882,0.207686373064784,-0.03367704322751963
0.528249979019165,-0.02632535994052887,-0.004780426621437073,-0.032267868518829346,-0.012717646546661854,0.03812780976295471,-0.2177763432264328,0.24861196552497672,0.2086587175111562,-0.035922423666754834
0.5383269786834717,-0.028199762105941772,-0.005547553300857544,-0.03281283378601074,-0.01874065212905407,0.0310701671987772,-0.20130257308483124,0.24800944660671367,0.20950879962434263,-0.03799554100749175
0.5482709407806396,-0.022918492555618286,-0.0010253041982650757,-0.033121705055236816,-0.011107498779892921,0.02282102406024933,-0.1790878027677536,0.24746437642960184,0.2102500338745719,-0.039899690306221605
0.5584030151367188,-0.01576024293899536,0.005236759781837463,-0.03590792417526245,-0.014658291824162006,0.0024699470959603786,-0.159070685505867,0.24699842089487825,0.21077008494879096,-0.04157357187705891
0.5687479972839355,-0.011001944541931152,0.013469606637954712,-0.031139135360717773,-0.016910327598452568,-0.012889035046100616,-0.1442740112543106,0.24651923261540704,0.21106865943574993,-0.04306962975817443
0.5783908367156982,-0.004469037055969238,0.011472150683403015,-0.026020586490631104,-0.012672439217567444,-0.0327005572617054,-0.12827719748020172,0.24609592073883935,0.21115621441593402,-0.044412449707350095
0.5884368419647217,-0.00014580786228179932,0.01364104449748993,-0.023121535778045654,-0.011747406795620918,-0.04612896963953972,-0.1137147769331932,0.2457677494859093,0.21071500781558886,-0.04552217468353368
0.5984108448028564,0.00020657479763031006,0.01804623007774353,-0.01747286319732666,-0.027232889086008072,-0.05727030709385872,-0.10540597885847092,0.24529112537970643,0.2102054238943927,-0.04652560335804121
0.6083009243011475,0.001394227147102356,0.01670391857624054,-0.015011370182037354,-0.04665320739150047,-0.06351253390312195,-0.09376567602157593,0.24475682739223958,0.2096007010145491,-0.04739908535625965
0.6189329624176025,0.002712935209274292,0.01634843647480011,-0.012025415897369385,-0.0765938013792038,-0.06345554441213608,-0.08359532803297043,0.2439972962553852,0.20892668063133554,-0.048109331619216766
0.6283969879150391,0.0036699622869491577,0.012281551957130432,-0.009723663330078125,-0.10729974508285522,-0.06434974074363708,-0.07176695019006729,0.24290414797983634,0.20824696407192203,-0.04865321039017966
0.6383779048919678,0.006835535168647766,0.007072553038597107,-0.0033542513847351074,-0.12771101295948029,-0.06455693393945694,-0.05782557278871536,0.24151509197909676,0.2075567782024707,-0.04901865426343685
0.648292064666748,0.008195191621780396,0.005974382162094116,5.424022674560547e-05,-0.12274101376533508,-0.061778195202350616,-0.044110558927059174,0.23997580555887824,0.20688157321717288,-0.04924117844144312
0.658336877822876,0.00870862603187561,0.008063450455665588,0.00022351741790771484,-0.11820725351572037,-0.07079805433750153,-0.025893470272421837,0.23857652151245273,0.20620588888954106,-0.04933053583429955
0.6684460639953613,0.009645506739616394,0.013761579990386963,-0.00014328956604003906,-0.11621520668268204,-0.0806882381439209,-0.01694524846971035,0.23720161719899602,0.20542415383842172,-0.0492888039898218
0.6782870292663574,0.009507507085800171,0.016009628772735596,0.006999671459197998,-0.11941792070865631,-0.07741814106702805,-0.010884959250688553,0.2357627594790714,0.204615299047808,-0.049184916234578845
0.6883480548858643,0.004146382212638855,0.008263856172561646,0.010144650936126709,-0.129042848944664,-0.06279844790697098,0.00015038135461509228,0.2342937562400762,0.20390705532313383,-0.048980581995010944
0.6983349323272705,-0.004351139068603516,0.005095779895782471,0.010729193687438965,-0.1363425850868225,-0.0409858301281929,0.0021890311036258936,0.23276257950692683,0.20339771648381605,-0.048701411801511545
0.7084090709686279,-0.009127631783485413,0.0024512261152267456,0.008109092712402344,-0.13275964558124542,-0.03203276917338371,0.0071870917454361916,0.23134654315962086,0.20305713065239137,-0.048394200472370565
0.718613862991333,-0.010905027389526367,0.00464649498462677,0.0062607526779174805,-0.12753158807754517,-0.029702503234148026,0.012030582875013351,0.23013759272261727,0.2028144001394591,-0.0480670046774486
0.7284760475158691,-0.00931587815284729,0.008689478039741516,0.0052089691162109375,-0.12516914308071136,-0.02258014678955078,0.01910894736647606,0.22900872793444532,0.20261383971329824,-0.047693148743569176
0.738563060760498,-0.011355921626091003,0.0105266273021698,0.003142237663269043,-0.12629379332065582,-0.018225345760583878,0.023113274946808815,0.2278557264727375,0.20247398008369508,-0.04725680103545494
0.74851393699646,-0.014896675944328308,0.008570045232772827,-0.004372954368591309,-0.1297939270734787,-0.014244096353650093,0.02241739071905613,0.22653662857354903,0.20236418307382267,-0.04679543786041872
0.7585129737854004,-0.018117859959602356,0.007796868681907654,-0.007971405982971191,-0.11630341410636902,-0.007384059950709343,0.024755381047725677,0.2252422857244922,0.20232077963443224,-0.046340074671488894
0.7685830593109131,-0.021288707852363586,0.00809885561466217,-0.010712265968322754,-0.10788203030824661,-0.01266972441226244,0.028152508661150932,0.22426856607760662,0.20220812137691488,-0.04585686356969977
0.7784359455108643,-0.02437928318977356,0.013002678751945496,-0.016644179821014404,-0.10401751101016998,-0.013677197508513927,0.023346833884716034,0.22341374997130137,0.20196927204249077,-0.045372411585362225
0.7884500026702881,-0.021558433771133423,0.012862250208854675,-0.022493481636047363,-0.09510497748851776,-0.027722444385290146,0.015007144771516323,0.22264391624123825,0.20160030010143096,-0.04495411983499423
0.7984731197357178,-0.019407421350479126,0.00943349301815033,-0.02343893051147461,-0.09715215116739273,-0.03893248736858368,0.002711596665903926,0.22183503840752344,0.2010845061049348,-0.044645978268733524
0.8085370063781738,-0.022508949041366577,0.006655976176261902,-0.021202683448791504,-0.10737762600183487,-0.03442402184009552,-0.0024605283979326487,0.2208336259829893,0.20057993948738725,-0.04442028377834233
0.8186318874359131,-0.026351556181907654,0.005000248551368713,-0.022841036319732666,-0.10703940689563751,-0.03266900032758713,-0.003806756343692541,0.21973108692163182,0.20009626315303078,-0.044212099701232625
0.8284938335418701,-0.028848007321357727,0.005973696708679199,-0.02441483736038208,-0.09654095768928528,-0.03694577142596245,-0.010919527150690556,0.21866487449873484,0.19954744795438029,-0.0440283953124496
0.8385360240936279,-0.030900076031684875,0.008168786764144897,-0.02288365364074707,-0.08399826288223267,-0.03593882918357849,-0.009457451291382313,0.2177405048301718,0.1989557167546245,-0.043917620110135495
0.848628044128418,-0.0349707156419754,0.008028239011764526,-0.023147881031036377,-0.0720803514122963,-0.04332590475678444,-0.010032694786787033,0.21690898747004742,0.19830941040861375,-0.04379135021990965
0.8587901592254639,-0.03248758614063263,0.007600024342536926,-0.026187539100646973,-0.073272705078125,-0.04683226719498634,-0.01991584524512291,0.2160018727020222,0.19757252825610322,-0.04375496554271234
0.8695118427276611,-0.029395103454589844,-0.001901581883430481,-0.02055966854095459,-0.07509854435920715,-0.05055336654186249,-0.015523865818977356,0.2150850046755127,0.1968368198628913,-0.04372482471052778
0.8788788318634033,-0.03293813765048981,0.003613695502281189,-0.01759779453277588,-0.08129306137561798,-0.06057724356651306,-0.019860558211803436,0.21418620381543166,0.1960525428872055,-0.04369402725500671
0.8889150619506836,-0.03171057999134064,-0.0037420541048049927,-0.012207090854644775,-0.08568859100341797,-0.06571362912654877,-0.01932542212307453,0.21324834188653188,0.19520918899243228,-0.04368969448448406
0.8987009525299072,-0.02884979546070099,-0.005295068025588989,-0.006995737552642822,-0.0671394094824791,-0.08512355387210846,-0.00968850776553154,0.21244002007878934,0.1941964261632223,-0.043619090532860574
0.9106960296630859,-0.027276545763015747,0.011235490441322327,-0.0031176209449768066,-0.06314844638109207,-0.09220635890960693,-0.017971951514482498,0.2117274179545823,0.19301944429423265,-0.043571507355225414
0.9198780059814453,-0.029707148671150208,0.0075219422578811646,-0.005666613578796387,-0.0730319693684578,-0.09967439621686935,-0.021120872348546982,0.21094135165731642,0.19176701379549113,-0.04357454576084805
0.9288108348846436,-0.02737802267074585,0.0020407885313034058,-0.012404143810272217,-0.0848216637969017,-0.09431412070989609,-0.017586005851626396,0.21006424745040853,0.19048091992257948,-0.043541056681356494
0.9389140605926514,-0.0231199711561203,-0.0004593878984451294,-0.009962022304534912,-0.09184069186449051,-0.09751470386981964,-0.010723304934799671,0.20905254755035926,0.18919961385742645,-0.043460231972572136
0.9490079879760742,-0.025027140974998474,0.010370522737503052,-0.007343173027038574,-0.1160791888833046,-0.1019081249833107,0.00506577780470252,0.20814402949301491,0.18790836382120168,-0.043231099312272016
0.9602839946746826,-0.024256661534309387,0.005120456218719482,0.0034452080726623535,-0.17075389623641968,-0.11354213953018188,0.020578958094120026,0.206755179836941,0.18643269974504684,-0.042774976164459175
0.9710891246795654,-0.023580923676490784,-0.00076332688331604,0.017482757568359375,-0.19986191391944885,-0.1138443648815155,0.0367405079305172,0.2051090785962793,0.18488853909586705,-0.04208259110787943
0.9790151119232178,-0.01887384057044983,0.0036360472440719604,0.027197957038879395,-0.18089595437049866,-0.14967213571071625,0.06229593604803085,0.2035245669073316,0.18318715668394692,-0.04117065911598171
0.9890880584716797,-0.012955278158187866,0.025705456733703613,0.0264207124710083,-0.16645187139511108,-0.17961081862449646,0.0679168626666069,0.20189420613790857,0.1811315189756394,-0.04014365032081352
0.9988811016082764,-0.01069551706314087,0.01726362109184265,0.029674828052520752,-0.18839232623577118,-0.19204698503017426,0.06766466051340103,0.20033314049470777,0.17885612165010303,-0.03910224069408553
1.0089380741119385,-0.010505527257919312,0.0007695704698562622,0.01331794261932373,-0.2342369258403778,-0.19013847410678864,0.05726511776447296,0.19846578534524137,0.17655111272906648,-0.03804889194154436
1.019176959991455,-0.012599706649780273,-0.000700533390045166,0.0016357898712158203,-0.2736532986164093,-0.18842153251171112,0.04570060968399048,0.19620409481688714,0.17434135798352401,-0.03706267006072579
1.02895188331604,-0.015293747186660767,-0.006999567151069641,0.0009739398956298828,-0.30622074007987976,-0.18477454781532288,0.035611171275377274,0.19343857560661165,0.17217043843766416,-0.036122669954851486
1.0389389991760254,-0.01686631143093109,-0.004354923963546753,0.00929868221282959,-0.36291253566741943,-0.17497624456882477,0.0249947439879179,0.19036579177039564,0.17009637852321935,-0.03521082342648933
1.0489461421966553,-0.01964716613292694,0.0009364187717437744,0.021588146686553955,-0.41150104999542236,-0.16338106989860535,0.018091991543769836,0.18685153412599242,0.168173405506082,-0.034301896253969455
1.0589430332183838,-0.02384580671787262,-0.0036233365535736084,0.03796321153640747,-0.4270491302013397,-0.1483461856842041,0.00987187772989273,0.1829267847335115,0.16644616791660713,-0.03345964865480321
1.0692708492279053,-0.0267084538936615,0.0016254037618637085,0.04908406734466553,-0.4196627140045166,-0.15720057487487793,0.011162285692989826,0.17875381892694378,0.16481836116772952,-0.0326483631279722
1.0789480209350586,-0.020486757159233093,0.020000502467155457,0.04583925008773804,-0.4468064308166504,-0.17995595932006836,-0.010737153701484203,0.17451041234029785,0.16300036135033383,-0.03192410773255598
1.0890939235687256,-0.008861690759658813,0.020555958151817322,0.03968435525894165,-0.5133137702941895,-0.1939249038696289,-0.055725134909152985,0.1697154872648244,0.16103021899956205,-0.03146282723403339
1.0989990234375,-0.0061125606298446655,0.00161685049533844,0.041027963161468506,-0.5677996277809143,-0.1910249888896942,-0.07911062240600586,0.1642501516639433,0.15906067241962019,-0.031282086383737785
1.1090760231018066,-0.014395609498023987,-0.012139424681663513,0.04002833366394043,-0.6522971987724304,-0.194065123796463,-0.09201160818338394,0.1581201015469758,0.1571146300420701,-0.03115976103514124
1.119300127029419,-0.01482442021369934,-0.007485061883926392,0.03707766532897949,-0.7166479825973511,-0.18221059441566467,-0.11742961406707764,0.15115570310937415,0.15520999004988534,-0.031127925957904656
1.1290390491485596,-0.011338040232658386,-0.011840656399726868,0.04549199342727661,-0.713182806968689,-0.179146409034729,-0.10433943569660187,0.14385213522603293,0.15341001396629694,-0.031137516847373644
1.139091968536377,-0.014076590538024902,0.0032225847244262695,0.029875576496124268,-0.6673535108566284,-0.18886826932430267,-0.08666909486055374,0.1368740743286941,0.15155083327878907,-0.031016001391005594
1.149021863937378,-0.005576491355895996,0.033867061138153076,0.0011119842529296875,-0.6304284334182739,-0.20774351060390472,-0.08435794711112976,0.1303356129620992,0.149547874770526,-0.030883456955797837
1.1591429710388184,0.005395755171775818,0.033248357474803925,-0.022481322288513184,-0.6291701197624207,-0.2146991640329361,-0.09148616343736649,0.1239893926217008,0.14740325323922593,-0.03082670676855222
1.169266939163208,0.007072225213050842,0.008327841758728027,-0.03264492750167847,-0.6497029066085815,-0.2091558277606964,-0.11045048385858536,0.11750001968485549,0.14526946669234309,-0.030888282173549723
1.1790659427642822,-0.0023459792137145996,-0.011213742196559906,-0.02108585834503174,-0.6769683361053467,-0.20262736082077026,-0.11237169057130814,0.11077784503438382,0.1432521519659925,-0.03106546643991638
1.1891000270843506,-0.014847710728645325,-0.01109786331653595,-0.004235506057739258,-0.7390435338020325,-0.22923283278942108,-0.13067282736301422,0.10363529962266779,0.14111602635685494,-0.031229038594615063
1.1990630626678467,-0.0162021666765213,-0.016528792679309845,0.018286049365997314,-0.86468905210495,-0.24243386089801788,-0.18030881881713867,0.09547841412412021,0.13876760268297442,-0.0316879710559429
1.2091071605682373,-0.015005901455879211,-0.04932519048452377,0.029898524284362793,-0.986721396446228,-0.2516745328903198,-0.19465996325016022,0.08603483338487929,0.13636863026322155,-0.03229561689653905
1.2199089527130127,-0.014352723956108093,-0.05964123457670212,0.030867159366607666,-1.0885199308395386,-0.26146113872528076,-0.20174503326416016,0.07545538898487134,0.13386054029620753,-0.032876318769663765
1.2290561199188232,-0.013160794973373413,-0.048601388931274414,0.039587199687957764,-1.173084020614624,-0.28546589612960815,-0.1869610846042633,0.0639605358585314,0.13114386355364727,-0.03330607492206452
1.2396080493927002,-0.012045234441757202,-0.038453057408332825,0.0479811429977417,-1.2296719551086426,-0.28955942392349243,-0.16788539290428162,0.05176477797767024,0.1282754988439541,-0.03351498697715665
1.2491350173950195,-0.008831366896629333,-0.031326498836278915,0.04420876502990723,-1.3377270698547363,-0.3650953769683838,-0.160153329372406,0.03891954578262688,0.12501965856221728,-0.03350512710788707
1.2592179775238037,-0.0039237141609191895,-0.03689953684806824,0.04613339900970459,-1.6394033432006836,-0.43305525183677673,-0.2414117008447647,0.023970081640784267,0.120967674850731,-0.03364157725524037
1.2695679664611816,0.0007171705365180969,-0.08534006029367447,0.06499481201171875,-1.9901009798049927,-0.4344901740550995,-0.3044944107532501,0.005663408250565593,0.11666035683061582,-0.03424276279621988
1.279142141342163,-0.007298707962036133,-0.15242113173007965,0.06269639730453491,-2.442540168762207,-0.4820142686367035,-0.3734380602836609,-0.016725483949856502,0.11205616386796612,-0.03504534178212164
1.2892558574676514,-0.012906007468700409,-0.15875671803951263,0.07966458797454834,-2.8917946815490723,-0.5175117254257202,-0.4684360921382904,-0.04374990553062944,0.10699273803879815,-0.03636665151200935
1.2992069721221924,-0.014189213514328003,-0.14139506220817566,0.10775351524353027,-3.3625900745391846,-0.5639595985412598,-0.5055390000343323,-0.07538059560400992,0.1014734549190462,-0.03795509589411276
1.3093268871307373,-0.016992606222629547,-0.14393877983093262,0.11295920610427856,-3.8846187591552734,-0.6396710276603699,-0.591115415096283,-0.11197658909331817,0.09532395894780255,-0.0398270650039723
1.3196640014648438,-0.023578956723213196,-0.14391061663627625,0.1328674554824829,-4.4084792137146,-0.6918016076087952,-0.6686874628067017,-0.15394791349757875,0.08830478741688011,-0.042393738022068556
1.3294508457183838,-0.03490369766950607,-0.17529214918613434,0.1630381941795349,-4.958085536956787,-0.7085657715797424,-0.6973249912261963,-0.20126051556177132,0.08076356529886387,-0.04530461409376198
1.3394989967346191,-0.042443469166755676,-0.1844002902507782,0.17580652236938477,-5.343626022338867,-0.7153224349021912,-0.7006507515907288,-0.25333994389630227,0.07289358118080291,-0.04843324474385353
1.349384069442749,-0.058344703167676926,-0.15356680750846863,0.18422693014144897,-5.531017780303955,-0.7529933452606201,-0.6377865076065063,-0.30828335497521725,0.06475163328679515,-0.05150823551695909
1.3621859550476074,-0.06112327799201012,-0.11559352278709412,0.15984255075454712,-5.532526969909668,-0.7511035799980164,-0.560704231262207,-0.3639467210290525,0.05626070166989917,-0.05430670753107103
1.3732960224151611,-0.037440452724695206,-0.07515546679496765,0.1016303300857544,-5.486904144287109,-0.6926578879356384,-0.5025997161865234,-0.4193550230036991,0.04801079187072738,-0.05693744814489037
1.380403995513916,-0.027924098074436188,-0.040348976850509644,0.047692298889160156,-5.346056938171387,-0.6679173707962036,-0.41824835538864136,-0.47376803129470396,0.04015365404134492,-0.05942007369557863
1.3896470069885254,-0.03293806314468384,-0.030208110809326172,0.005693316459655762,-5.1938323974609375,-0.6522080302238464,-0.34038838744163513,-0.5266975820150023,0.032494665763072035,-0.061526500802453345
1.3994500637054443,-0.013804679736495018,0.005776703357696533,-0.02153480052947998,-4.866937160491943,-0.6430739164352417,-0.2864029109477997,-0.5771954373841162,0.025052354490451244,-0.0634755476502155
1.4093658924102783,0.005783011205494404,0.052454352378845215,-0.051571428775787354,-4.639118194580078,-0.7390806078910828,-0.27266207337379456,-0.6245938773341061,0.016948839547258544,-0.06567634343278497
1.4194669723510742,0.02352648600935936,0.05462437868118286,-0.08804422616958618,-4.668105125427246,-0.6910691261291504,-0.20655682682991028,-0.6712503382203674,0.008090281882514809,-0.06801360701667906
1.4293949604034424,0.04469073936343193,0.01979750394821167,-0.10408520698547363,-4.526198863983154,-0.4922412931919098,-0.15007619559764862,-0.7173263662452773,0.0010559316178175636,-0.0699706350275181
1.4394869804382324,0.020444948226213455,-0.00040274858474731445,-0.12696969509124756,-4.3602094650268555,-0.47909459471702576,-0.20242328941822052,-0.7617537227292723,-0.0053745316014836295,-0.07245782242731595
1.449388027191162,-0.04083739593625069,0.047186315059661865,-0.05804067850112915,-4.338409900665283,-0.5016863942146301,-0.23115262389183044,-0.8052253807792671,-0.01300716643182807,-0.07619042713214787
1.459428071975708,-0.019825037568807602,0.05706167221069336,-0.008430957794189453,-4.278781414031982,-0.4873884320259094,-0.17353273928165436,-0.8483483323231702,-0.020879964348786677,-0.08020595979616096
1.4700360298156738,0.016285156831145287,0.05133181810379028,-0.030663490295410156,-4.302715301513672,-0.4117431640625,-0.1493137776851654,-0.8913282082518661,-0.028761130935329664,-0.08444427568758446
1.4794518947601318,0.0053880829364061356,0.0606042742729187,-0.06278902292251587,-4.231889247894287,-0.3623068928718567,-0.09826737642288208,-0.9339222867626258,-0.03598403017012179,-0.08870621197781389
1.4894440174102783,-0.011217579245567322,0.04085749387741089,-0.13431084156036377,-4.197021961212158,-0.33838388323783875,-0.08679942786693573,-0.9760094679792113,-0.0431168597935498,-0.09325238028027225
1.4996058940887451,-0.01480661891400814,0.021811187267303467,-0.16708409786224365,-4.262189865112305,-0.32200756669044495,-0.10364551842212677,-1.0182192018333769,-0.051001701156560594,-0.09866303313544754
1.5095160007476807,-0.008879758417606354,-0.0030861496925354004,-0.15469098091125488,-4.4063005447387695,-0.319466769695282,-0.08163060992956161,-1.061455312264178,-0.059902095361426884,-0.10528157553803849
1.5200221538543701,-0.005855686962604523,-0.039051949977874756,-0.11781716346740723,-4.699095249176025,-0.34063518047332764,-0.08998867124319077,-1.1068120119450073,-0.07037371380246692,-0.11340561378022262
1.529505968093872,-0.02000388130545616,-0.1101568341255188,-0.0661521852016449,-5.032660484313965,-0.30857864022254944,-0.12836237251758575,-1.1554245680550415,-0.08393143231044257,-0.12473165145515987
1.5395429134368896,-0.03960060700774193,-0.19039267301559448,0.0011680126190185547,-5.2233686447143555,-0.28234997391700745,-0.24948054552078247,-1.2063029220823904,-0.10285788402210543,-0.1420665278423805
1.549504041671753,-0.054324936121702194,-0.1752343773841858,0.039650142192840576,-5.139190196990967,-0.2512810528278351,-0.2135646641254425,-1.2579591994340664,-0.12985633664526963,-0.16795238303758678
1.5595810413360596,-0.043678395450115204,-0.07027888298034668,-0.0009125769138336182,-5.127593040466309,-0.293125718832016,-0.23771634697914124,-1.308872549953308,-0.16614421610077948,-0.20278406402592777
1.5699269771575928,0.0037870854139328003,-0.05610555410385132,-0.06825761497020721,-4.861449718475342,-0.2968071401119232,-0.2954079806804657,-1.3574335664500825,-0.21932052582960096,-0.2544243201647565
1.5795481204986572,0.007530674338340759,-0.0797078013420105,-0.07738226652145386,-4.537761688232422,-0.2942883372306824,-0.27818718552589417,-1.4021951154393224,-0.29948955372360875,-0.3330364465538248
1.5896079540252686,-0.020747538655996323,6.335973739624023e-05,-0.09525811672210693,-4.148656368255615,-0.24439212679862976,-0.2553772032260895,-1.4420792800909656,-0.4211805825614305,-0.4532798275726856
1.5996119976043701,-0.024324920028448105,0.06661230325698853,-0.11560660600662231,-3.752107620239258,-0.20505483448505402,-0.3005353808403015,-1.4751559717643283,-0.6197083339689867,-0.6508511373036049
1.6096560955047607,-0.01975977048277855,0.026791691780090332,-0.09496200084686279,-3.4196486473083496,-0.24733705818653107,-0.2670958638191223,-1.498791107539485,-0.9492184336002429,-0.9792767205687246
1.6200430393218994,-0.022497501224279404,0.0522729754447937,-0.011229515075683594,-3.0953586101531982,-0.25683361291885376,-0.22350843250751495,-1.509082136136877,-1.420787281609153,-1.449245397599918
1.629652976989746,-0.022111691534519196,0.07328099012374878,0.020698903128504753,-2.9495975971221924,-0.21690447628498077,-0.22583353519439697,-1.504138105592582,-1.8920782332529136,-1.9191158624537976
1.6396658420562744,-0.04064164310693741,0.012927412986755371,0.0069997310638427734,-2.76678466796875,-0.2207772582769394,-0.26754820346832275,-1.4884239589045518,-2.2196214798299185,-2.245361858081152
1.6496610641479492,-0.06108897179365158,-0.01842707395553589,0.04644370079040527,-2.5118114948272705,-0.19979366660118103,-0.25243857502937317,-1.4683861945879912,-2.412878909749217,-2.437345058119312
1.6597168445587158,-0.06051471829414368,-0.0011538863182067871,0.04186677932739258,-2.2398264408111572,-0.2505013346672058,-0.21928247809410095,-1.4482626089526112,-2.529112534978585,-2.552072616053029
1.6700751781463623,-0.04322542995214462,0.03001260757446289,0.03546259552240372,-2.058729648590088,-0.3130481541156769,-0.13493579626083374,-1.429196600446433,-2.608384119347235,-2.629184751716913
1.6797611713409424,-0.029146112501621246,0.06087946891784668,0.0278862863779068,-1.9215689897537231,-0.335340678691864,-0.07436033338308334,-1.411303298032306,-2.6689944315295233,-2.6871565709656906
1.6897070407867432,-0.028485789895057678,0.016675233840942383,-0.01044870913028717,-1.8996495008468628,-0.29159465432167053,-0.09217038750648499,-1.3938033319336849,-2.7164578675881224,-2.732098566583447
1.6996839046478271,-0.06482700258493423,-0.07570046186447144,-0.021863803267478943,-1.9024794101715088,-0.25487685203552246,-0.08325172960758209,-1.3758887878714607,-2.754755069489715,-2.768319146758221
1.7097041606903076,-0.08258763700723648,-0.07840472459793091,-0.0015465915203094482,-1.8441743850708008,-0.325198233127594,-0.03416258469223976,-1.3581849167923212,-2.7877712997272663,-2.799133267799129
1.7199640274047852,-0.04255961626768112,-0.03168022632598877,0.012912005186080933,-1.7905431985855103,-0.40316975116729736,0.008124152198433876,-1.3409964960435277,-2.817922108703599,-2.826234330090036
1.7297089099884033,-0.014610446989536285,-0.011398673057556152,0.025024250149726868,-1.5903143882751465,-0.3970482647418976,0.04178299382328987,-1.3247976988715544,-2.8444051281383187,-2.8493270311642047
1.7398030757904053,-0.016822010278701782,0.008517444133758545,-0.008663147687911987,-1.299041986465454,-0.3765259385108948,0.01775968074798584,-1.3110025850448765,-2.8653543304910944,-2.8669520760284
1.7497341632843018,-0.014692887663841248,0.06521785259246826,-0.04373010993003845,-1.0024875402450562,-0.34106606245040894,0.044005345553159714,-1.30000828011607,-2.881097943020339,-2.8795203888994956
1.7598850727081299,-0.014457449316978455,0.12834560871124268,-0.020716696977615356,-0.8283721804618835,-0.2983633577823639,0.06607788801193237,-1.2914047484524651,-2.8942067106698635,-2.889821055601457
1.7701570987701416,-0.008816055953502655,0.14379632472991943,0.021013528108596802,-0.7727609276771545,-0.2508505582809448,0.07254617661237717,-1.283837448389931,-2.9060275261687454,-2.8992360454782715
1.7798411846160889,-0.013304322957992554,0.10658073425292969,0.07697811722755432,-0.851024329662323,-0.17730948328971863,-0.00685916468501091,-1.2760666103900906,-2.9154172775426175,-2.9067763719553357
1.789919137954712,-0.029055781662464142,0.02900516986846924,0.10291358828544617,-0.9232316613197327,-0.11719915270805359,-0.03619340434670448,-1.267314252765707,-2.9223904704461727,-2.9125782550424955
1.799903154373169,-0.03567783534526825,0.013414084911346436,0.10365477204322815,-0.918126106262207,-0.10076186060905457,-0.04603458195924759,-1.2581448314605546,-2.928511205338251,-2.9178813147304243
1.8119080066680908,-0.02160685509443283,0.06633257865905762,0.09545192122459412,-0.8869079351425171,-0.08780846744775772,-0.08493170142173767,-1.249234798035027,-2.9332096786229123,-2.9218112897586517
1.8216230869293213,-0.018495552241802216,0.0497472882270813,0.07905146479606628,-0.7994811534881592,-0.08266696333885193,-0.03678414970636368,-1.240651592146434,-2.9372175955731112,-2.9251749156588294
1.830003023147583,-0.02546246349811554,0.06854575872421265,0.062007516622543335,-0.46684128046035767,-0.11308971792459488,0.04938056692481041,-1.234356103673825,-2.9421106721328423,-2.9293076904950337
1.8401169776916504,-0.007587417960166931,0.15063899755477905,0.014905720949172974,-0.198971226811409,-0.1198568046092987,0.10943350940942764,-1.2313613424122858,-2.9473552492690867,-2.933612608353353
1.849869966506958,-0.014907248318195343,0.15550273656845093,-0.014582127332687378,-0.1389520913362503,-0.07032068073749542,0.12525135278701782,-1.2300471842358827,-2.952582630127131,-2.938073423484528
1.8598620891571045,-0.037113212049007416,0.06884217262268066,0.0016813576221466064,-0.2263578325510025,-0.015418549999594688,0.09403085708618164,-1.22846944786953,-2.956865895191612,-2.942188578762012
1.8703229427337646,-0.05409524217247963,-0.0170707106590271,0.035134315490722656,-0.20933406054973602,0.02337655983865261,0.05851643532514572,-1.226402600427211,-2.9601461895212813,-2.9457581901077856
1.880035161972046,-0.051956016570329666,-0.038684844970703125,0.06061592698097229,-0.10770384222269058,0.006150968372821808,0.03728518262505531,-1.2248923534991019,-2.962004239632391,-2.947902939915459
1.8900091648101807,-0.043804969638586044,-0.0066103339195251465,0.07284748554229736,-0.06940321624279022,-0.02224014885723591,0.01202057022601366,-1.2241709517678747,-2.96317957973658,-2.9490761021069742
1.9000780582427979,-0.03377635404467583,0.038415491580963135,0.062098026275634766,-0.16308815777301788,-0.016560157760977745,-0.03554242104291916,-1.2231030550066364,-2.963609498059968,-2.9492951432238352
1.9101309776306152,-0.03107980266213417,0.00472944974899292,0.03271028399467468,-0.24814051389694214,0.004555113147944212,-0.06406908482313156,-1.220855736622504,-2.963283404137742,-2.948889403950639
1.920186996459961,-0.02970520406961441,-0.030639290809631348,0.004449635744094849,-0.21501319110393524,0.01600031368434429,-0.07552520185709,-1.2184126404072415,-2.9623210889282414,-2.9479785568071897
1.929973840713501,-0.02120525762438774,0.010977983474731445,-0.024787545204162598,-0.12487982213497162,0.011952176690101624,-0.03439838066697121,-1.2165850990651372,-2.96147057872186,-2.947230174084097
1.9400460720062256,-0.014517713338136673,0.0631788969039917,-0.043804436922073364,-0.007074624300003052,-0.019734913483262062,-0.01125631108880043,-1.2159685593759064,-2.961225718094485,-2.946938286127183
1.950084924697876,-0.011996220797300339,0.08563530445098877,-0.04095122218132019,0.08855240046977997,-0.02262994647026062,-0.018533609807491302,-1.2163328815662708,-2.960990499557807,-2.9464597092412186
1.960103988647461,-0.020557858049869537,0.044598281383514404,-0.01996910572052002,0.08349345624446869,-0.023578032851219177,-0.049713633954524994,-1.2171423790619416,-2.9597430942097716,-2.9448679803785742
1.9702441692352295,-0.03563994914293289,-0.01217716932296753,-0.004500478506088257,0.0794454887509346,-0.029966868460178375,-0.060651395469903946,-1.2178402048545096,-2.958156496704195,-2.94290011595206
1.9800450801849365,-0.03527630865573883,-0.019617199897766113,0.0015406608581542969,0.07095400243997574,-0.03846634551882744,-0.07380874454975128,-1.218352687324603,-2.956242004599776,-2.940501544854875
1.9907119274139404,-0.02913481742143631,-0.019259631633758545,0.0159798264503479,0.08695050328969955,-0.04834054410457611,-0.063083715736866,-1.218908200905254,-2.9544044188052614,-2.9380711172125693
2.0000908374786377,-0.023389048874378204,-0.010153353214263916,0.018295764923095703,0.09864604473114014,-0.03979765623807907,-0.06187916547060013,-1.2196713268310957,-2.9525851102408054,-2.935678040013105
2.010141134262085,-0.019863277673721313,-0.0027923583984375,0.006836891174316406,0.1009083017706871,-0.01544269546866417,-0.060505617409944534,-1.2206748923529347,-2.950380298371065,-2.933055145092049
2.0203778743743896,-0.02108025550842285,-0.010725200176239014,0.009934663772583008,0.08874750882387161,0.013562589883804321,-0.04543052613735199,-1.2219176097610063,-2.9480707666689945,-2.930636938956088
2.0301520824432373,-0.022275932133197784,-0.013368546962738037,0.01254892349243164,0.1057131439447403,0.010432310402393341,-0.04740797355771065,-1.2232696602676454,-2.945848704287043,-2.928460927441353
2.0402228832244873,-0.022056184709072113,-0.00024646520614624023,0.03787669539451599,0.10385505855083466,0.021057257428765297,-0.03111129440367222,-1.2244375769094247,-2.943721852518502,-2.92637641948907
2.050210952758789,-0.01738291233778,-0.020358920097351074,0.05109444260597229,0.0770660862326622,0.03328489512205124,-0.02773168869316578,-1.225162156097275,-2.94179022867147,-2.9246529325364934
2.061678171157837,-0.021124333143234253,-0.0296708345413208,0.037389278411865234,0.06553486734628677,0.043856844305992126,-0.024573713541030884,-1.2256695145855312,-2.939948568874312,-2.9231541160233077
2.0714380741119385,-0.025949835777282715,-0.02862262725830078,0.039040178060531616,0.046624742448329926,0.047808222472667694,-0.020929070189595222,-1.2259094390799354,-2.938441177413104,-2.9220541468956185
2.080230951309204,-0.02125965803861618,-0.040850281715393066,0.03621780872344971,0.04393308609724045,0.04714376479387283,-0.04848000779747963,-1.2260602097554687,-2.9366774934647486,-2.9207148556518416
2.090350866317749,-0.021596506237983704,-0.04467076063156128,0.036835700273513794,0.06787221878767014,0.048651956021785736,-0.032955851405858994,-1.2263485426508856,-2.9346674716659273,-2.9190907997582785
2.1002869606018066,-0.020781539380550385,-0.029266715049743652,0.0385359525680542,0.09004995971918106,0.044016189873218536,-0.023455558344721794,-1.2269125899327242,-2.9328373797990643,-2.9176549895117767
2.1102569103240967,-0.007706359028816223,0.000788569450378418,0.008522659540176392,0.07942699640989304,0.06263173371553421,-0.007853429764509201,-1.2272424469305379,-2.9310719506963254,-2.91638186519932
2.120589017868042,-0.011960938572883606,0.007923245429992676,0.005658924579620361,0.08321481198072433,0.056649740785360336,-0.01813536137342453,-1.2271257936676887,-2.9296980021348036,-2.9155822150584876
2.1302921772003174,-0.01667047291994095,0.002319931983947754,0.018305659294128418,0.1018417701125145,0.03329634666442871,-0.011189677752554417,-1.2267289505046477,-2.928670646832802,-2.9149187419069365
2.1403090953826904,-0.009323157370090485,-0.0057700276374816895,0.02909862995147705,0.1481695920228958,0.01211489550769329,-0.024259407073259354,-1.2269634752358045,-2.9273474354116558,-2.913745175020656
2.1502158641815186,-0.010619334876537323,-0.0030606985092163086,0.023206382989883423,0.13559962809085846,-0.004783971235156059,-0.018081139773130417,-1.2273007586966815,-2.9257486125241146,-2.9120911914910472
2.1603009700775146,-0.01744239032268524,-0.017607927322387695,0.014862090349197388,0.10744015872478485,-0.022261764854192734,-0.01941724866628647,-1.2274070822636998,-2.9247619531891957,-2.9108837675287385
2.17033314704895,-0.015405431389808655,-0.038241446018218994,0.005026668310165405,0.09272271394729614,-0.034643467515707016,-0.007281915284693241,-1.227236934040261,-2.9241945588086256,-2.909980070463851
2.180323839187622,-0.015373505651950836,-0.04099160432815552,0.001377701759338379,0.072364442050457,-0.03792235255241394,-0.012460432015359402,-1.227111898396334,-2.9238966962926782,-2.9092483368187527
2.1903789043426514,-0.011816658079624176,-0.031037211418151855,-0.008594155311584473,0.022679826244711876,-0.023196889087557793,-0.014569922350347042,-1.2273667765014706,-2.9234555973638954,-2.9084557897745076
2.200330972671509,-0.012636356055736542,-0.03491175174713135,-0.004622310400009155,-0.008592875674366951,0.003222733736038208,-0.0029537458904087543,-1.2273183503411287,-2.923194436683265,-2.90808836595222
2.210397958755493,-0.010324358940124512,-0.023378193378448486,-0.008933067321777344,0.020536914467811584,0.015763824805617332,-0.006587576121091843,-1.2271431890703206,-2.922768699891684,-2.9077583691902387
2.220452070236206,-0.013152927160263062,-0.005265772342681885,-0.0051125288009643555,0.050387486815452576,0.01093311794102192,0.018666114658117294,-1.2270518217202426,-2.922796175782102,-2.9079346289827464
2.2302989959716797,-0.012250572443008423,0.009862184524536133,0.012290239334106445,0.06989871710538864,0.005922247190028429,0.02051413618028164,-1.227349546695122,-2.922883323971547,-2.9080817576636706
2.2406229972839355,-0.01320803165435791,0.0037336349487304688,0.018434077501296997,0.06160696595907211,0.01993473619222641,0.027937430888414383,-1.2276509737090402,-2.9227772447803395,-2.9081501684520794
2.2503950595855713,-0.022603318095207214,-0.01514434814453125,0.014171570539474487,0.026130283251404762,0.015324492007493973,0.008493851870298386,-1.2277948890656212,-2.9225816279277113,-2.90814881249209
2.2604169845581055,-0.022431708872318268,-0.024073660373687744,0.013643801212310791,-0.06211249530315399,0.018176471814513206,-0.006897088140249252,-1.2273047788895342,-2.9221789306992756,-2.9079322274518247
2.2707040309906006,-0.02231256663799286,-0.053517282009124756,0.022635579109191895,-0.05151619389653206,0.009868253022432327,-0.008347179740667343,-1.226608944653556,-2.9219260854479567,-2.907873844014776
2.2804880142211914,-0.019772619009017944,-0.03777956962585449,0.021771341562271118,0.01277411449700594,-0.020730402320623398,-0.019246166571974754,-1.2262753622461497,-2.9214181230020557,-2.9073198910864146
2.290539026260376,-0.0180773064494133,-0.011715173721313477,0.01885119080543518,0.07454998046159744,-0.056374285370111465,-0.012609249912202358,-1.2266751952588943,-2.92088569796995,-2.9063697385310445
2.300463914871216,-0.014926835894584656,-0.002864062786102295,0.025208324193954468,0.11543509364128113,-0.07312476634979248,-0.009837165474891663,-1.2276224635542607,-2.920361579998014,-2.90513462752752
2.310453176498413,-0.016155652701854706,-0.005466103553771973,0.021354615688323975,0.1466703712940216,-0.06581256538629532,0.00478886254131794,-1.2287818290023358,-2.9200270925194927,-2.9040397947808807
2.3204729557037354,-0.017090335488319397,-0.014265179634094238,0.00174713134765625,0.16024529933929443,-0.05879594013094902,0.02838846482336521,-1.2301340453832532,-2.920116527941677,-2.9034788214928797
2.3304331302642822,-0.014785736799240112,0.00030678510665893555,-0.015298247337341309,0.14291726052761078,-0.0340745709836483,0.0345512330532074,-1.2314158048754154,-2.9201901146509277,-2.9030922817839135
2.340512990951538,-0.019295521080493927,-0.007762491703033447,-0.007765322923660278,0.10185796767473221,-0.022666120901703835,0.0314830020070076,-1.2322794813988702,-2.920276249092019,-2.902932515186359
2.3504679203033447,-0.02296680212020874,-0.028476834297180176,0.008660703897476196,0.08772171288728714,-0.019686488434672356,0.021757937967777252,-1.2324885310651668,-2.920501181053667,-2.9029693415132534
2.3604559898376465,-0.016597427427768707,-0.02479267120361328,0.018723487854003906,0.08806499093770981,-0.01766701228916645,0.022843442857265472,-1.2326977535890262,-2.9205358560519556,-2.9028277854127427
2.370594024658203,-0.017717987298965454,-0.010170519351959229,0.02425524592399597,0.10401662439107895,-0.020843274891376495,0.019546661525964737,-1.2332372432632925,-2.9205415862224418,-2.9026632699443855
2.3806779384613037,-0.016923941671848297,0.008632779121398926,0.02054998278617859,0.09108351171016693,-0.013580303639173508,0.012616053223609924,-1.2337309033457051,-2.920459714708942,-2.902389458759713
2.3906490802764893,-0.019651144742965698,-3.9517879486083984e-05,0.021516531705856323,0.0690428838133812,0.002445046091452241,0.01578814536333084,-1.2340700207490949,-2.92027638878863,-2.90215533433799
2.400722026824951,-0.023093432188034058,-0.0058367252349853516,0.01659342646598816,0.09448059648275375,0.010532533749938011,0.014573476277291775,-1.2347137288726213,-2.919747623183018,-2.9017187027355758
2.4106099605560303,-0.02217322587966919,0.006128668785095215,0.008374899625778198,0.06699909269809723,0.01864456757903099,0.008447246626019478,-1.2357256709632616,-2.918839821268119,-2.90097193646636
2.4205939769744873,-0.023325517773628235,0.004370570182800293,0.011495143175125122,-0.041404884308576584,0.030627992004156113,0.0016910731792449951,-1.235921820517437,-2.9180704657286247,-2.900478697043488
2.430558919906616,-0.024738170206546783,-0.020084381103515625,0.016583949327468872,-0.08805051445960999,0.04730159789323807,-0.006251378916203976,-1.2348408638382118,-2.917710087823069,-2.900566251897543
2.4406521320343018,-0.026482440531253815,-0.03401601314544678,0.015310734510421753,-0.03404640406370163,0.040208540856838226,-0.012306607328355312,-1.2337331834116858,-2.917214512002003,-2.9005296064602035
2.4506099224090576,-0.026688002049922943,-0.006868422031402588,0.0020005404949188232,0.0040015121921896935,0.03085089847445488,0.002962786005809903,-1.2331722008511086,-2.916703155866994,-2.9003724573919856
2.460736036300659,-0.023569181561470032,0.024646222591400146,0.0055439770221710205,0.027022410184144974,0.02929721027612686,-0.002987248357385397,-1.2330650094240723,-2.916140596248375,-2.9001151133123844
2.4707138538360596,-0.024849511682987213,0.014789581298828125,0.009168177843093872,0.07937254756689072,0.02827291563153267,-0.0023761061020195484,-1.2332476617658057,-2.915213230964032,-2.8994779462224396
2.480811834335327,-0.02592472732067108,-0.003913283348083496,0.013261675834655762,0.13272126019001007,0.03617984056472778,0.01671503111720085,-1.234018048387811,-2.914017550359967,-2.898574368843694
2.4910781383514404,-0.024166911840438843,0.012859463691711426,0.011973589658737183,0.22807925939559937,0.06016054004430771,0.01323971152305603,-1.2356741504597166,-2.9124302550299386,-2.8974578141972445
2.5007598400115967,-0.02847016602754593,0.016311585903167725,0.007865816354751587,0.3832358121871948,0.06694574654102325,0.02117646485567093,-1.2385052316040306,-2.9097492816972688,-2.89535117527723
2.510683059692383,-0.02725043147802353,0.020851194858551025,0.014680862426757812,0.5888637900352478,0.07984001189470291,0.04918817803263664,-1.2429061035900473,-2.9064556926385796,-2.892687189759466
2.5207550525665283,-0.013220518827438354,0.04826575517654419,0.008743733167648315,0.6534928679466248,0.12108252197504044,0.08018364757299423,-1.248657183685002,-2.902653433110432,-2.889714314875297
2.5307259559631348,-0.019480302929878235,0.04540032148361206,0.01568278670310974,0.7375220656394958,0.16824622452259064,0.07678709924221039,-1.2553165212543629,-2.898306102686542,-2.8867242426732433
2.5408120155334473,-0.030786216259002686,0.012125730514526367,0.026617228984832764,0.9008896946907043,0.18413251638412476,0.08502186089754105,-1.263215668390398,-2.8924461038393012,-2.882457460216346
2.553851842880249,-0.01983191817998886,0.003951728343963623,0.016631901264190674,1.1448756456375122,0.1964288204908371,0.14159704744815826,-1.2729766872824906,-2.885815784901421,-2.8775157904052633
2.560805082321167,-0.009949855506420135,0.066398024559021,0.0017604231834411621,1.4720276594161987,0.19708502292633057,0.18734802305698395,-1.2860213196046453,-2.8779591710052554,-2.871369153052868
2.5712249279022217,-0.004971228539943695,0.11044484376907349,-0.01947939395904541,1.938011884689331,0.21417845785617828,0.23559576272964478,-1.3029323764472212,-2.8671873287215104,-2.8623113388402692
2.580794095993042,0.0010307133197784424,0.11968833208084106,-0.013844460248947144,2.5718233585357666,0.23610560595989227,0.3123352825641632,-1.325305958860188,-2.8509324299817367,-2.84784096853305
2.590843915939331,-0.011681683361530304,0.15891945362091064,0.03840649127960205,3.2782487869262695,0.25030317902565,0.44191792607307434,-1.3543657268953448,-2.8265764659941572,-2.825323294392208
2.6025290489196777,-0.03208286315202713,0.22290998697280884,0.10498179495334625,4.0692667961120605,0.2771978974342346,0.5829261541366577,-1.3907278802939658,-2.788170851188044,-2.7888377706854284
2.610865831375122,-0.04427606612443924,0.24300700426101685,0.14373932778835297,4.9589457511901855,0.3184482753276825,0.6781281232833862,-1.4349573980291446,-2.713994798754176,-2.71674379414587
2.6209139823913574,-0.053079064935445786,0.23527324199676514,0.1704697608947754,5.917263031005859,0.328760027885437,0.776233434677124,-1.4859289824762258,-2.5212301262686965,-2.5261724524161906
2.6309070587158203,-0.06043965741991997,0.25248652696609497,0.21937870979309082,6.813776016235352,0.32748058438301086,0.8966802358627319,-1.5294718188348446,-1.6910455742300539,-1.6980281357384988
2.6409189701080322,-0.06683633476495743,0.26638156175613403,0.2651416063308716,7.311028480529785,0.28508812189102173,0.9629849791526794,-1.4975770664339143,-0.4468842092053693,-0.4554561306212472
2.6524200439453125,-0.07584565877914429,0.18063724040985107,0.2934883236885071,7.499318599700928,0.36220619082450867,0.9315468072891235,-1.428406394022914,-0.15332633499508547,-0.16361720849571496
2.660987138748169,-0.07151401042938232,-0.08743000030517578,0.28462958335876465,6.885611057281494,0.5329661965370178,0.734846293926239,-1.3574250556998553,-0.06022369348187813,-0.07357504653562084
2.6709539890289307,-0.08044777810573578,-0.28798526525497437,0.30093836784362793,6.350583076477051,0.6957399249076843,0.6884468197822571,-1.2915523375525464,-0.016042510040423886,-0.03442488869647147
2.680959939956665,-0.08899874240159988,-0.21040737628936768,0.2985323667526245,5.912045955657959,0.767114520072937,0.6597771048545837,-1.230196874419659,0.01295561310485611,-0.011729266692023125
2.6909329891204834,-0.07741958647966385,-0.11004424095153809,0.25394532084465027,5.420680046081543,0.8680992126464844,0.5358678698539734,-1.1733195703376285,0.03318777055251297,0.0011781669193297003
2.7029669284820557,-0.06726620346307755,-0.08972454071044922,0.23815461993217468,4.988607406616211,0.936343252658844,0.48952245712280273,-1.1209885840493512,0.04874297548333456,0.00833320339796421
2.710999011993408,-0.058709800243377686,-0.0754041075706482,0.22923046350479126,4.569637298583984,0.9323147535324097,0.48440277576446533,-1.0729467611062011,0.06246436501607935,0.013195113607144052
2.721055030822754,-0.03747677803039551,-0.038776516914367676,0.22746407985687256,4.2551751136779785,0.9079478979110718,0.5227384567260742,-1.028588054125975,0.07512075956378185,0.017166627230103405
2.7309610843658447,-0.023474618792533875,-0.0009981393814086914,0.22162526845932007,3.997667074203491,0.8892861604690552,0.49495744705200195,-0.9870202895390702,0.08699386921139927,0.02055535737157782
2.7409451007843018,-0.029177214950323105,-0.014882862567901611,0.19023185968399048,3.713616371154785,0.8505011796951294,0.3865358829498291,-0.9480970880129149,0.09695748840858222,0.02205109585828635
2.752392053604126,-0.038651302456855774,-0.04997217655181885,0.15977787971496582,3.367464065551758,0.7919365763664246,0.2962132394313812,-0.9124667021957799,0.1049208046324065,0.0217353749843786
2.76123309135437,-0.035599783062934875,-0.057721853256225586,0.13370144367218018,3.0162384510040283,0.742585301399231,0.2216133177280426,-0.880376480812196,0.11147572401444583,0.02031122491200236
2.7710320949554443,-0.02912338823080063,-0.06865209341049194,0.09376168251037598,2.6366782188415527,0.706028938293457,0.18058961629867554,-0.8520200411954855,0.11726202184741233,0.01837398971406071
2.7809979915618896,-0.023843757808208466,-0.06914031505584717,0.05623513460159302,2.3378090858459473,0.6533470749855042,0.17002138495445251,-0.8271579818761386,0.1226903828445966,0.01652827325315046
2.791124105453491,-0.017433643341064453,-0.05881237983703613,0.03319054841995239,2.1471595764160156,0.6203120350837708,0.13953272998332977,-0.8047792041301566,0.12770766341554085,0.01468009553497569
2.804142951965332,-0.015821710228919983,-0.06388700008392334,0.015775680541992188,2.0655505657196045,0.5878880620002747,0.14061637222766876,-0.7837368215438061,0.13235883664391648,0.012715833820987869
2.8111209869384766,-0.018199950456619263,-0.037841200828552246,-0.004320979118347168,2.050713300704956,0.5407034158706665,0.15901273488998413,-0.7631583948055772,0.1367593239919755,0.01092789592456086
2.8210790157318115,-0.011781871318817139,-0.002011895179748535,-0.013882160186767578,2.120964527130127,0.49871206283569336,0.1924646943807602,-0.7422901681259709,0.14091823504936768,0.009365263336618851
2.8315298557281494,-0.008677229285240173,0.016154944896697998,-0.014204025268554688,2.3068456649780273,0.44610950350761414,0.24066536128520966,-0.720098175698849,0.1447147329713148,0.008005274761819602
2.842118978500366,-0.006803892552852631,0.02650672197341919,-0.0185699462890625,2.528871774673462,0.40754374861717224,0.26591184735298157,-0.6957463256510736,0.14812225417878028,0.006676642238566565
2.8527839183807373,-0.008277378976345062,0.044969797134399414,-0.028390824794769287,2.6744258403778076,0.3440592885017395,0.2783839702606201,-0.6695118157965406,0.15090695566939494,0.005123230075785017
2.8615670204162598,-0.006873294711112976,0.05183279514312744,-0.01939713954925537,2.6867077350616455,0.31793472170829773,0.288957804441452,-0.6424426403994516,0.1532075688767275,0.0035190675880066658
2.8719661235809326,-0.005407422780990601,0.026092946529388428,-0.0004050731658935547,2.5732781887054443,0.3176140785217285,0.2857048511505127,-0.6159047912603137,0.155491939299745,0.0020174126887525104
2.881437063217163,-0.01679101586341858,-0.004059135913848877,0.017851531505584717,2.399592161178589,0.34353703260421753,0.2940802276134491,-0.5908512489045392,0.15807305316522224,0.0007853052126625353
2.8931281566619873,-0.03181293606758118,-0.019164621829986572,0.02783280611038208,2.2097227573394775,0.3754217028617859,0.28198233246803284,-0.5675849246760656,0.16115415462820562,-0.00017340626110949335
2.902559995651245,-0.03654411435127258,-0.035020530223846436,0.034763991832733154,2.0194642543792725,0.4028480052947998,0.25802505016326904,-0.546286249302185,0.16456868716674525,-0.001076501152483315
2.911257028579712,-0.03464958071708679,-0.05151104927062988,0.04686552286148071,1.8770372867584229,0.4119439125061035,0.25026920437812805,-0.526664166096811,0.16822277577290543,-0.0019319836549350857
2.921233892440796,-0.03087453544139862,-0.04510611295700073,0.0562971830368042,1.7636446952819824,0.3947047293186188,0.24718578159809113,-0.5082680195598421,0.17192229391293384,-0.002649013206125197
2.931246042251587,-0.023517176508903503,-0.018794357776641846,0.057139039039611816,1.712328553199768,0.36420974135398865,0.24881665408611298,-0.49077437352225545,0.17541565657108402,-0.00328759750329152
2.941349983215332,-0.014382198452949524,0.002447158098220825,0.05578577518463135,1.8918293714523315,0.4018966555595398,0.29104533791542053,-0.47269340769709306,0.178941649625056,-0.003884767306515911
2.952789068222046,-0.009233787655830383,0.024016261100769043,0.04530376195907593,2.180341958999634,0.41651758551597595,0.3611256778240204,-0.4521051816182101,0.1828296070302407,-0.004396068842717884
2.961333990097046,-0.021889477968215942,0.09893706440925598,0.036152541637420654,2.5692832469940186,0.3514171540737152,0.4358643591403961,-0.42800350778011276,0.18651618964720265,-0.004868345142940233
2.9712841510772705,-0.02284078299999237,0.16319787502288818,0.0326157808303833,2.9034759998321533,0.27371490001678467,0.481625497341156,-0.4001614206460797,0.18936987740187936,-0.005524963296651185
2.9815471172332764,0.00019903481006622314,0.14806699752807617,0.03332871198654175,3.1568245887756348,0.23626099526882172,0.5136206746101379,-0.3694182589688489,0.19153129770179847,-0.0064588402058040565
2.9912779331207275,0.01065044105052948,0.12345200777053833,0.036087870597839355,3.3257694244384766,0.24663494527339935,0.5600586533546448,-0.33639358262525304,0.1936008758161426,-0.007475036727410139
3.0021250247955322,-0.0055207014083862305,0.10354006290435791,0.03633362054824829,3.3097195625305176,0.26121628284454346,0.5714040398597717,-0.30262346644380017,0.19583395560051428,-0.008387042485772949
3.011399984359741,-0.03223222494125366,0.08455917239189148,0.062464118003845215,3.1619668006896973,0.3093178868293762,0.564121663570404,-0.26961716420928544,0.1984456050779529,-0.00919914472991114
3.0217630863189697,-0.04777112603187561,0.015020892024040222,0.07761144638061523,2.8274693489074707,0.37847620248794556,0.5143170952796936,-0.2390655819041925,0.2016994044150122,-0.009891945979683204
3.0311639308929443,-0.05820499360561371,-0.051004111766815186,0.07773590087890625,2.4288763999938965,0.4640892744064331,0.45264697074890137,-0.21226239594703158,0.20578062496270633,-0.010509625538244121
3.041486978530884,-0.060395628213882446,-0.08912470936775208,0.0727047324180603,1.9777511358261108,0.5147910714149475,0.3954220414161682,-0.18981073719415503,0.21061683033210402,-0.010922364199264931
3.0538339614868164,-0.047415465116500854,-0.10369113087654114,0.07151806354522705,1.5721862316131592,0.5375791788101196,0.3232453465461731,-0.17170274774091612,0.21584155460872723,-0.011143474760406924
3.061401128768921,-0.03493577241897583,-0.09756863117218018,0.07440656423568726,1.2760396003723145,0.5570330023765564,0.2477780282497406,-0.15725216938723532,0.22126857930855118,-0.01143489798537051
3.071397066116333,-0.02903418242931366,-0.09455269575119019,0.06885117292404175,1.0818560123443604,0.5680890679359436,0.20116588473320007,-0.14529529481490722,0.22684106445570681,-0.011893692861951986
3.081536054611206,-0.02340616285800934,-0.05548924207687378,0.05136144161224365,0.9952900409698486,0.5459422469139099,0.21321536600589752,-0.13475409713185815,0.23239913338558324,-0.012245597179658623
3.0915658473968506,-0.012123122811317444,0.026265859603881836,0.0216253399848938,0.9603760242462158,0.4776006042957306,0.22322356700897217,-0.1247225118382271,0.2375219264108262,-0.012380405746174316
3.101989984512329,0.005342498421669006,0.06761166453361511,0.004149913787841797,0.9449959993362427,0.4186789393424988,0.20781877636909485,-0.1149379765575417,0.2419705286617697,-0.012545399915945079
3.1114840507507324,0.01300320029258728,0.05237264186143875,-0.009128391742706299,0.8789355754852295,0.360927939414978,0.18148335814476013,-0.10555334110430997,0.2458403090323967,-0.01286100228794332
3.1215779781341553,0.01023314893245697,0.028181686997413635,-0.015040397644042969,0.7659285664558411,0.3172294795513153,0.15309913456439972,-0.0971388344937891,0.24919204179426319,-0.013263338551406684
3.1314890384674072,0.007368698716163635,0.01886814832687378,-0.012089550495147705,0.6500288844108582,0.2783099114894867,0.1387341320514679,-0.08989544386447448,0.2521303169692194,-0.013614545714294992
3.1420199871063232,0.0036614537239074707,0.011626124382019043,-0.010537922382354736,0.5236336588859558,0.2454529106616974,0.12801943719387054,-0.0838547872399772,0.25473060716282586,-0.013783262701755075
3.1524720191955566,-0.004703104496002197,0.0026664137840270996,-0.0035422444343566895,0.3877926170825958,0.22691547870635986,0.10838433355093002,-0.07912693341210267,0.25708530124095075,-0.013806538822671889
3.161684989929199,-0.012194424867630005,-0.01208648830652237,0.002983689308166504,0.24584241211414337,0.2091953307390213,0.0954514890909195,-0.07580345198117257,0.2592799815919371,-0.013630559204582697
3.171555995941162,-0.01669129729270935,-0.02418331801891327,-0.002652406692504883,0.1240643709897995,0.1882595270872116,0.07725304365158081,-0.07379554728945316,0.2612938306017994,-0.013255345375979204
3.1816060543060303,-0.013153374195098877,-0.03038278967142105,-0.011022508144378662,0.013708568178117275,0.16359971463680267,0.043706540018320084,-0.07297376167092226,0.26308573580520905,-0.012848660236117927
3.191671133041382,-0.008680641651153564,-0.0382087305188179,-0.019254565238952637,-0.07107840478420258,0.14099493622779846,0.01968509517610073,-0.07318614169019295,0.26464105602818455,-0.012465890032181836
3.2043821811676025,-0.006790429353713989,-0.040039464831352234,-0.026233434677124023,-0.11724723130464554,0.12408572435379028,0.004750885535031557,-0.0740885320980564,0.26599292357363524,-0.012097007101947424
3.2113189697265625,-0.006484240293502808,-0.03241538256406784,-0.0313420295715332,-0.12994518876075745,0.10691126435995102,-0.008140677586197853,-0.07530267291867342,0.26715872003927565,-0.011776597754159165
3.2214560508728027,-0.011519193649291992,-0.02018127590417862,-0.03227412700653076,-0.10757196694612503,0.09141326695680618,-0.016645750030875206,-0.07648444810115208,0.26816673034548044,-0.011591294623613734
3.231492042541504,-0.014652758836746216,-0.01354265958070755,-0.03318256139755249,-0.07920584082603455,0.06904564052820206,-0.011117558926343918,-0.07743224193872732,0.2689703260049844,-0.011476306381615536
3.2417969703674316,-0.011927932500839233,0.001793496310710907,-0.028241753578186035,-0.04409259557723999,0.048219989985227585,-0.0017986263846978545,-0.07802807477365634,0.26956150360275594,-0.011374912351869102
3.2527549266815186,-0.011105239391326904,0.014706701040267944,-0.02328592538833618,-0.0076949079521000385,0.031141936779022217,0.010904384776949883,-0.07826868195682656,0.2699650250658404,-0.011257696397613703
3.261726140975952,-0.014763087034225464,0.015866823494434357,-0.021419227123260498,0.01132139377295971,0.013008741661906242,0.02696058340370655,-0.07819168950094901,0.2701971488470234,-0.01108453145242593
3.271582841873169,-0.015151917934417725,0.009577430784702301,-0.015546441078186035,0.014096923172473907,-0.004076192155480385,0.030108759179711342,-0.07798019869912559,0.27026374197780856,-0.010835606943345767
3.2818050384521484,-0.01391303539276123,0.0008652061223983765,-0.01153111457824707,0.03155767545104027,-0.004713220521807671,0.03093433938920498,-0.07768885025107014,0.27022264991074635,-0.010602747978132678
3.291749954223633,-0.015877336263656616,-0.0062397196888923645,-0.006985783576965332,0.04573865607380867,-0.015331998467445374,0.03479443117976189,-0.07664247117549468,0.2700054194118192,-0.010390829004435994
3.3037068843841553,-0.01662459969520569,-0.002209775149822235,-0.006502807140350342,0.055025365203619,-0.02494893968105316,0.026486966758966446,-0.07570734860054992,0.2696518139344926,-0.01024516923064397
3.3117079734802246,-0.017439037561416626,0.0016526952385902405,-0.00318145751953125,0.06263405084609985,-0.02375122532248497,0.017586790025234222,-0.07486373518373833,0.2692115979839111,-0.010203398301605389
3.3218259811401367,-0.016866743564605713,-0.006754785776138306,-0.004986464977264404,0.07264912873506546,-0.014506861567497253,0.021380197256803513,-0.07420566696019307,0.2688884299845292,-0.01020958303723422
3.3316781520843506,-0.01722767949104309,-0.0039855316281318665,-0.006536900997161865,0.1074964627623558,0.00017834128811955452,0.03252584487199783,-0.0735556017178778,0.2686951034975212,-0.010176638379914983
3.3421339988708496,-0.020593196153640747,0.0039265453815460205,-0.002029120922088623,0.18010647594928741,0.013764724135398865,0.05235360935330391,-0.07233890286298543,0.2686478503406796,-0.010164100998600682
3.3523361682891846,-0.023153156042099,0.010751985013484955,0.0009783506393432617,0.24840661883354187,0.008213675580918789,0.06342820823192596,-0.07036073303799102,0.2686369945348753,-0.0101791378914645
3.3622848987579346,-0.022890359163284302,0.020438790321350098,0.011254072189331055,0.30889952182769775,0.003214122960343957,0.07115430384874344,-0.0676254248852991,0.26854969506131865,-0.010276733818754637
3.372704029083252,-0.020007610321044922,0.020007386803627014,0.013086140155792236,0.3477000892162323,0.0029711537063121796,0.08822442591190338,-0.06428062339616945,0.26842665944950633,-0.010384252832900892
3.382124185562134,-0.018129438161849976,0.017663534730672836,0.009590208530426025,0.34994566440582275,0.003171423217281699,0.08700896054506302,-0.06080408643861524,0.2683019842696852,-0.010479136035681541
3.3920938968658447,-0.01761084794998169,0.008838877081871033,0.010175347328186035,0.3034035265445709,0.010269147343933582,0.07512619346380234,-0.057690904119832465,0.2682038816098908,-0.01057848172175913
3.40405011177063,-0.017025530338287354,-0.007736478000879288,0.015129148960113525,0.21151943504810333,0.02483876794576645,0.05655490979552269,-0.05517350946345328,0.26822250656169877,-0.01063349883595026
3.4121429920196533,-0.019231557846069336,-0.024212796241044998,0.01260685920715332,0.08777520805597305,0.03900514170527458,0.026210743933916092,-0.05385611845917434,0.26838616293998846,-0.010634413034000204
3.42226505279541,-0.018408209085464478,-0.03706306591629982,0.012823402881622314,-0.04104083031415939,0.05600463226437569,-0.010615447536110878,-0.05401130220142635,0.2686902204419691,-0.01062214001289943
3.4319350719451904,-0.016671448945999146,-0.047174401581287384,0.01143556833267212,-0.12606433033943176,0.06995094567537308,-0.037557635456323624,-0.05525914308353975,0.26918747976340757,-0.010642248148364583
3.442172050476074,-0.01599109172821045,-0.041085198521614075,0.008988797664642334,-0.16594037413597107,0.06915120035409927,-0.05343060940504074,-0.05716855981777371,0.26979446726641776,-0.010689458179589308
3.4522900581359863,-0.012097746133804321,-0.020848359912633896,0.010676085948944092,-0.17368337512016296,0.05767754092812538,-0.06287119537591934,-0.05927415525101035,0.2703493437402692,-0.010801494417798704
3.4621388912200928,-0.00731697678565979,-0.0006788559257984161,0.01239156723022461,-0.1619899570941925,0.04132653400301933,-0.06357293576002121,-0.06129460425059493,0.27074310839868154,-0.010968879136893078
3.4718668460845947,-0.0015550553798675537,0.01042225956916809,0.012499868869781494,-0.12067247927188873,0.020129723474383354,-0.0581439770758152,-0.06289188052853617,0.27095133050424003,-0.011191855234328675
3.4821531772613525,0.0004425644874572754,0.02060769498348236,0.009159326553344727,-0.08386199921369553,-0.0009302878752350807,-0.048603735864162445,-0.0638625672187332,0.2709539213404655,-0.011427933267706195
3.4919440746307373,5.91278076171875e-05,0.026189178228378296,0.0029042959213256836,-0.048381902277469635,-0.007037538103759289,-0.04373291879892349,-0.06430922327937431,0.2707893756703263,-0.011710015175400044
3.502526044845581,-0.002018570899963379,0.016500741243362427,-0.0013540983200073242,-0.043973568826913834,0.0008456851355731487,-0.03378415107727051,-0.0644306539400702,0.2706513184352695,-0.011986479481953381
3.512006998062134,-0.006193250417709351,0.008087575435638428,-0.009289860725402832,-0.046685732901096344,0.0040718382224440575,-0.026236483827233315,-0.06443624085711898,0.2705973334051268,-0.012154428745894705
3.522104024887085,-0.006663024425506592,0.002954632043838501,-0.007529079914093018,-0.059459052979946136,0.004225236363708973,-0.026057787239551544,-0.06454927399089032,0.27054838922191743,-0.012260517654317273
3.532003164291382,-0.007787823677062988,-0.010205969214439392,-0.00031560659408569336,-0.06747163832187653,0.016169246286153793,-0.02209809236228466,-0.06495437797437062,0.2705828741542435,-0.012331185587144099
3.5420830249786377,-0.012804895639419556,-0.014055810868740082,0.008862733840942383,-0.06623034179210663,0.031521305441856384,-0.010855824686586857,-0.0656165414463676,0.27079801222922417,-0.012304969915648105
3.553992986679077,-0.016345471143722534,-0.007584579288959503,0.008927524089813232,-0.05315956100821495,0.04306686297059059,-0.004790741018950939,-0.06630316693613099,0.2711920401150036,-0.012205765853996969
3.562143087387085,-0.015647679567337036,-0.006121717393398285,0.007137656211853027,-0.03678404912352562,0.03693227097392082,-0.00019891886040568352,-0.06696274899366869,0.27162133183382137,-0.012103732178439647
3.5720720291137695,-0.013269901275634766,-0.0020179152488708496,0.00893181562423706,-0.02226552739739418,0.029651189222931862,0.001153487479314208,-0.06751411819072364,0.27196773673250657,-0.012023443842362421
3.582153081893921,-0.009391367435455322,-0.002029798924922943,0.010264754295349121,-0.0038657481782138348,0.03627500310540199,0.005562883336097002,-0.06781661704409067,0.27227226516129155,-0.011959230223747537
3.5922281742095947,-0.009498178958892822,-0.004279278218746185,0.009384453296661377,-0.009045680053532124,0.03777751326560974,0.014477335847914219,-0.06789953565577131,0.2725755377046791,-0.011849666530226524
3.6033451557159424,-0.01440998911857605,-0.0031050071120262146,0.0067174434661865234,-0.023030204698443413,0.038052886724472046,0.008897746913135052,-0.06800725772182933,0.2728777422782835,-0.011690657517988185
3.6118929386138916,-0.011966913938522339,-0.0070924311876297,0.010045528411865234,-0.030447624623775482,0.03340500220656395,0.00540543720126152,-0.06804272928939435,0.2731466885666817,-0.011556925821363659
3.6220200061798096,-0.010832786560058594,-0.01336660236120224,0.007743775844573975,-0.02581212669610977,0.027845123782753944,0.007202537730336189,-0.06804554420502872,0.2733639346092317,-0.01143352741214635
3.63216495513916,-0.01099744439125061,-0.0090436190366745,0.008229553699493408,-0.02786286175251007,0.01760970801115036,0.010455270297825336,-0.06816314162572391,0.27345813259794255,-0.011281692362509877
3.6423251628875732,-0.012691736221313477,-0.004990138113498688,0.011451005935668945,0.0008952845819294453,0.01563044637441635,0.014742693863809109,-0.06816851251533274,0.27350650530011666,-0.011129519639030324
3.6522371768951416,-0.01282501220703125,-0.001782238483428955,0.0070871710777282715,0.02523922361433506,0.00014678249135613441,0.014834465458989143,-0.06796613018452531,0.2734984204115608,-0.011034669260131082
3.6621358394622803,-0.013005316257476807,0.005899600684642792,0.0012499690055847168,0.02607465721666813,-0.008296502754092216,0.00928390584886074,-0.0676535671093879,0.2733783589379899,-0.011000525963592795
3.672131061553955,-0.011477380990982056,-0.0005589202046394348,-0.0023909807205200195,0.007256544195115566,-0.004197321366518736,0.009577811695635319,-0.0674129327659291,0.273244591127739,-0.010958960712346233
3.6821680068969727,-0.011373162269592285,-0.011823736131191254,-0.00907909870147705,-0.004680009558796883,0.00797412358224392,0.006954065524041653,-0.06734029936572308,0.27316650008265136,-0.01089694382541171
3.6921489238739014,-0.016951769590377808,-0.01585521548986435,-0.008433222770690918,-0.013148861937224865,0.013053837232291698,0.00443924218416214,-0.06732817337377502,0.27320756301773175,-0.010823942011219553
3.702260971069336,-0.018858283758163452,-0.013170696794986725,-0.004658520221710205,-0.015457290224730968,0.007676648907363415,0.004113537725061178,-0.06728332234548044,0.2732534873315398,-0.010750626450739237
3.7122559547424316,-0.013865053653717041,-0.007173351943492889,-0.0027763843536376953,-0.010497402399778366,0.001278537791222334,0.00450518261641264,-0.06728268442025473,0.2732338458580577,-0.010685992955457064
3.722195863723755,-0.011894285678863525,7.60108232498169e-05,-0.002150237560272217,-0.0077130673453211784,-0.0004961928352713585,0.005746481940150261,-0.0673118214138431,0.2731683646774337,-0.010620934727407286
3.7322299480438232,-0.012948274612426758,-0.001047469675540924,-0.0031695961952209473,-0.007810838520526886,0.0008564265444874763,0.002871279837563634,-0.06735201866840967,0.27309089254247654,-0.010567736295537939
3.742248058319092,-0.015365898609161377,-0.0052522942423820496,-0.0032203197479248047,-0.013081766664981842,-0.0005870065651834011,0.0009676523040980101,-0.06754422294765966,0.2730062300457763,-0.010519088576655131
3.752366065979004,-0.015338480472564697,-0.004462257027626038,-0.00042194128036499023,-0.013818597421050072,-0.0017210696823894978,-0.0030137202702462673,-0.06765470167409549,0.27290038400550254,-0.01050368577713018
3.7623231410980225,-0.01600402593612671,-0.004690006375312805,0.0028607845306396484,-0.01615791767835617,-0.0023290691897273064,-0.006070496514439583,-0.06763827985701937,0.27278284872258807,-0.010517838859386144
3.772251844406128,-0.015894949436187744,-0.0041346475481987,0.0025894641876220703,-0.009102937765419483,-0.0005056029185652733,-0.009504109621047974,-0.06755575929928863,0.2726201349088115,-0.010563576154896316
3.782472848892212,-0.015574753284454346,-0.003297574818134308,0.005320727825164795,-0.002745173405855894,0.0028734158258885145,-0.011497486382722855,-0.06745086094693116,0.2724754617809418,-0.010660096540934066
3.792309045791626,-0.01686626672744751,-0.004362054169178009,0.004963397979736328,0.0041007986292243,0.004196341149508953,-0.011158784851431847,-0.06737075650983186,0.27240473224484885,-0.010770851276969154
3.8040549755096436,-0.017044931650161743,-0.003599300980567932,0.004629671573638916,0.012044740840792656,0.0061875865794718266,-0.009022930637001991,-0.06732505768876199,0.2723516208326537,-0.010894492683928001
3.812317132949829,-0.014044761657714844,-0.0023831576108932495,0.005314052104949951,0.018335094675421715,0.012540468946099281,-0.0038053716998547316,-0.06717670228709052,0.2723390042663952,-0.011010316372269817
3.82256817817688,-0.011741191148757935,-0.0023051202297210693,0.0030596256256103516,0.01620083674788475,0.007761159911751747,-0.0026863114908337593,-0.06696084876352222,0.27231960801155286,-0.01109307633119631
3.8323450088500977,-0.010797291994094849,0.0020441636443138123,0.004233241081237793,0.014765111729502678,0.0028298289980739355,-0.00065570417791605,-0.06677679556292665,0.27225487508583635,-0.011159978682267313
3.842424154281616,-0.009453684091567993,0.0030833780765533447,0.00978916883468628,0.021977484226226807,0.005656774155795574,-0.0012362732086330652,-0.06656107034660347,0.2721864651117121,-0.011234920172677368
3.852886915206909,-0.01130029559135437,0.0026309043169021606,0.01005786657333374,0.019304269924759865,0.008486738428473473,-0.0021476070396602154,-0.06632639023542884,0.2721506950512564,-0.0113182420758121
3.8623158931732178,-0.012036293745040894,0.002891726791858673,0.007728219032287598,0.0180139672011137,0.006321055348962545,-0.007323194295167923,-0.0661414578917592,0.2721192393901887,-0.011422739806966476
3.8723151683807373,-0.010207593441009521,0.0011015087366104126,0.013673007488250732,0.015824366360902786,0.009360654279589653,-0.0072121936827898026,-0.06596290080185385,0.2720707396610162,-0.011546634820078736
3.8825771808624268,-0.010271728038787842,-0.001809917390346527,0.011783301830291748,0.003840141464024782,0.017386622726917267,-0.007427643518894911,-0.06585285200827815,0.2720878349305613,-0.011656490745287735
3.89250111579895,-0.012672364711761475,-0.00038971006870269775,0.006861984729766846,-0.010433469898998737,0.02844974771142006,-0.006456548348069191,-0.06589758611325285,0.27222085478095903,-0.011717307624320255
3.902724027633667,-0.012044399976730347,-0.004989810287952423,0.003227829933166504,-0.013308352790772915,0.027268104255199432,-0.0018748461734503508,-0.06602713409907354,0.27242721363354155,-0.011726440092175902
3.9125759601593018,-0.008380919694900513,-0.0028222501277923584,0.0021736621856689453,-0.0007737684063613415,0.02924359403550625,0.003014983842149377,-0.06613337511068323,0.27263418300998293,-0.011707260376103567
3.9224419593811035,-0.00787702202796936,0.003134317696094513,0.00493091344833374,0.0015578290913254023,0.027180442586541176,0.004645637236535549,-0.06615830285907236,0.27287243623435836,-0.011670179463617392
3.93241810798645,-0.007602781057357788,0.0022880584001541138,0.0036746859550476074,-0.004300942178815603,0.01970428228378296,0.004447764717042446,-0.0662112157317009,0.2730485488520142,-0.011619375475118286
3.942523956298828,-0.004679590463638306,-0.0018900036811828613,0.0054416656494140625,-0.006657839752733707,0.01633352041244507,0.0034999456256628036,-0.06630011796334294,0.27315225723441305,-0.011572938224224172
3.95247483253479,-0.0037774741649627686,-0.0018823444843292236,0.00766366720199585,0.0001701058354228735,0.019521057605743408,0.002488157246261835,-0.06633832341876841,0.27327808215331134,-0.011540927529397725
3.9626519680023193,-0.0074620842933654785,-0.00031115859746932983,0.00701594352722168,-0.0077048614621162415,0.01940041594207287,-0.0015891422517597675,-0.0663540850279539,0.27341297895698824,-0.011525789856607599
3.9725348949432373,-0.010171741247177124,0.00024813413619995117,0.004954934120178223,-0.01205455232411623,0.016933130100369453,-0.0036872336640954018,-0.06646642597982794,0.27350369320397067,-0.011538474522440756
3.9825479984283447,-0.007482200860977173,-0.0036837682127952576,0.005592226982116699,-0.007449680473655462,0.013167420402169228,-0.0030312971211969852,-0.06650742982335084,0.27356383678592155,-0.011554805895793503
3.992553949356079,-0.0053321123123168945,-0.003756321966648102,0.004768729209899902,-0.0114586865529418,0.018685534596443176,-0.0012200813507661223,-0.06656485307406967,0.27366167789847007,-0.011557393374339886
4.002827882766724,-0.009243220090866089,0.0007600486278533936,0.005197882652282715,-0.011567876674234867,0.026279006153345108,0.0003360037226229906,-0.06671801120324204,0.2738443368456661,-0.011534620216968177
4.012571096420288,-0.010561913251876831,-0.0025523900985717773,0.00534433126449585,-0.010893912985920906,0.026321306824684143,-0.0014775557210668921,-0.06685692383060857,0.27406015171029235,-0.011507674038554608
4.022700071334839,-0.01045149564743042,-0.003338247537612915,0.004346489906311035,-0.00412069633603096,0.027288034558296204,0.0008567050099372864,-0.06691048503585068,0.27429568500851115,-0.011488239461649079
4.032521963119507,-0.006354868412017822,-0.001531854271888733,0.007100880146026611,0.004523375071585178,0.028736039996147156,0.003912735730409622,-0.06687402923218475,0.27455752191194266,-0.011467965651078105
4.042567014694214,-0.0066273510456085205,0.0009337589144706726,0.005371153354644775,0.00869015697389841,0.03217018395662308,0.005661899223923683,-0.06678859509141058,0.27482375599329584,-0.011440252203876932
4.054018020629883,-0.009489208459854126,0.003646768629550934,0.0064656734466552734,0.007787412032485008,0.034697968512773514,-0.0009091306710615754,-0.06669990568401798,0.2750851403087076,-0.01144192553421667
4.062646150588989,-0.010622620582580566,-0.0013428255915641785,0.010323524475097656,0.011384543962776661,0.04083096235990524,-0.008923115208745003,-0.06657753146568597,0.27540508865066343,-0.011518319195844132
4.072673082351685,-0.008235961198806763,-0.0036697685718536377,0.009027540683746338,0.003979291766881943,0.03864787891507149,-0.008291945792734623,-0.06647809510949826,0.27576213523832144,-0.011623868932650697
4.082553148269653,-0.008029133081436157,0.003935359418392181,0.004719436168670654,0.00024287658743560314,0.03348347917199135,-0.01213062647730112,-0.06650242529112059,0.2760557992673619,-0.011727716988697812
4.092663049697876,-0.005999118089675903,0.005384370684623718,0.007430732250213623,0.0024791997857391834,0.030965901911258698,-0.01762254349887371,-0.06651829324188646,0.2762938913886024,-0.011883946532440008
4.1031060218811035,-0.005729228258132935,0.0002888143062591553,0.007902920246124268,-0.0004561364185065031,0.0319957472383976,-0.01418759860098362,-0.06651740699500232,0.2765213830367084,-0.01205308911425594
4.112957000732422,-0.009116888046264648,0.0001865178346633911,0.007307589054107666,-0.0018449915805831552,0.03299350291490555,-0.015135310590267181,-0.06655875580880796,0.2767926284446582,-0.012195975350771607
4.122539043426514,-0.008345931768417358,-0.0005618259310722351,0.004441678524017334,-0.0037070736289024353,0.026544656604528427,-0.017672237008810043,-0.06665118538687965,0.2770404147191447,-0.012349668274432528
4.132644891738892,-0.0062701404094696045,-0.0037519559264183044,0.0018602609634399414,-0.005098625551909208,0.018502309918403625,-0.018562747165560722,-0.06678985621208801,0.27718551099382127,-0.01252113606032586
4.143441915512085,-0.0029661357402801514,-0.004934906959533691,0.0014109611511230469,-0.005187841132283211,0.00949922762811184,-0.020624032244086266,-0.06688966679812873,0.277242610211973,-0.012712865664499341
4.1530091762542725,-0.0026311874389648438,-0.004574231803417206,-0.0008412599563598633,-0.005493538919836283,0.0061828820034861565,-0.021249502897262573,-0.06695638436551189,0.27726053608987544,-0.01291282576356323
4.162891149520874,-0.0019277632236480713,-0.005974248051643372,-0.002953648567199707,-0.006410997826606035,0.0030651192646473646,-0.018490735441446304,-0.06712081381727318,0.27724620091572,-0.013097115757401086
