timestamp,accel_x,accel_y,accel_z,rotation_x,rotation_y,rotation_z, pitch,roll,yaw
0.0421600341796875,-0.023655051365494728,-0.005036711692810059,0.008097529411315918,0.004014212638139725,0.009577760472893715,0.01064123772084713,-0.17529042154522836,-0.018499603072978987,-0.0016256121898920554
0.05549287796020508,-0.025744857266545296,-0.0040549635887146,0.008630037307739258,0.007821151986718178,0.009709631092846394,0.008000073954463005,-0.17522316652316514,-0.01839155217374249,-0.001528100317201934
0.06777286529541016,-0.025523047894239426,-0.003726080060005188,0.008934080600738525,0.006638974417001009,0.00729494309052825,0.009230987168848515,-0.17515261099048843,-0.018291151892258557,-0.0014434974368493236
0.07544994354248047,-0.026157353073358536,-0.0005621910095214844,0.006485044956207275,0.0016221448313444853,0.004852824378758669,0.010849176906049252,-0.1751162074057654,-0.018220205536468283,-0.0013396034019367998
0.07683086395263672,-0.024414192885160446,0.0003514140844345093,0.004181385040283203,-0.0017462215619161725,0.001961163943633437,0.01105344109237194,-0.17511816627419768,-0.018177430512720732,-0.0012297788699966905
0.08433914184570312,-0.02377481758594513,-0.0009549558162689209,0.0048487186431884766,-0.003455638187006116,-0.0021527092903852463,0.009732833132147789,-0.17514317122390993,-0.018160493856447437,-0.0011206092425111976
0.09148907661437988,-0.02374625951051712,0.00010010600090026855,0.00558847188949585,-0.0052958824671804905,-0.003488816786557436,0.009875845164060593,-0.17518741467534485,-0.018174146113281976,-0.0010200353142361617
0.10113000869750977,-0.02489640936255455,0.0002551078796386719,0.005849242210388184,-0.0087279649451375,-0.006200714502483606,0.006476213224232197,-0.17526246388406455,-0.018215051198752812,-0.0009365164085549639
0.11250805854797363,-0.024563632905483246,-0.0008354634046554565,0.004368305206298828,-0.00827336311340332,-0.009266545996069908,0.0044098664075136185,-0.1753472411677999,-0.018289861802144203,-0.0008808348657022145
0.12120294570922852,-0.023543262854218483,-0.0013523399829864502,0.0037706494331359863,-0.00966616254299879,-0.012025136500597,0.002537397900596261,-0.17543827527286388,-0.01839665039125774,-0.0008538735861331445
0.1312880516052246,-0.022722642868757248,-0.0026608258485794067,0.00509566068649292,-0.006318835541605949,-0.011334579437971115,0.002556839259341359,-0.17552742980021158,-0.018517528887570207,-0.0008356346401492771
0.14147400856018066,-0.02475721202790737,-0.0032951682806015015,0.006579160690307617,-0.005783856846392155,-0.01189122349023819,0.0034544311929494143,-0.17558279066111415,-0.018636475321977496,-0.0008090879474187076
0.15142488479614258,-0.02536720409989357,-0.003767743706703186,0.005879819393157959,-0.006392921786755323,-0.011880038306117058,0.0036895882803946733,-0.17564432076778785,-0.018745548118242354,-0.0007749292154714068
0.16255807876586914,-0.023595290258526802,-0.0062822699546813965,0.004372119903564453,-0.0050032176077365875,-0.010539935901761055,0.006205050274729729,-0.17570308439726232,-0.018856162986501817,-0.0007310068119862398
0.1715099811553955,-0.022742442786693573,-0.009370192885398865,0.006573796272277832,-0.005664214491844177,-0.008143622428178787,0.007068713195621967,-0.1757553083778051,-0.018947671827362518,-0.0006681726025787497
0.18131589889526367,-0.023722197860479355,-0.011878684163093567,0.01086646318435669,-0.003972141537815332,-0.004099525045603514,0.008274752646684647,-0.17580796269876406,-0.01900661096919382,-0.0005928972823749587
0.1913919448852539,-0.02571207657456398,-0.010305941104888916,0.012160778045654297,0.002470311475917697,0.0008707325905561447,0.01178027130663395,-0.17582235855657602,-0.019015819770458815,-0.0004886073715125865
0.20155811309814453,-0.02429802529513836,-0.009736254811286926,0.01111668348312378,0.010586626827716827,0.004183616489171982,0.009883621707558632,-0.17572417746566826,-0.019459908690045324,-0.00047341268185663174
0.2126178741455078,-0.02395680360496044,-0.009789705276489258,0.008899867534637451,0.016223475337028503,0.004072030074894428,0.008057225495576859,-0.17553051067348693,-0.019852350739220672,-0.00046014336232004554
0.22148704528808594,-0.019583193585276604,-0.0072721391916275024,0.006185412406921387,0.01676349714398384,0.004680829122662544,0.0064120846800506115,-0.17529818027950747,-0.02027976061903002,-0.00046622778476281
0.2314469814300537,-0.01783127523958683,-0.005695745348930359,0.00847160816192627,0.011981524527072906,0.007454244885593653,0.009452881291508675,-0.1750919101454317,-0.020679108375369144,-0.00047284629200804634
0.24138903617858887,-0.017852328717708588,-0.005803048610687256,0.009719789028167725,0.0037893918342888355,0.003173612989485264,0.005859371740370989,-0.17489097103483783,-0.021044447845459086,-0.00047515558404509565
0.25139307975769043,-0.016031429171562195,-0.007561206817626953,0.008052587509155273,-0.0012434502132236958,-0.00018703006207942963,0.0043741269037127495,-0.17469300394769746,-0.02142085767960323,-0.0004960523035787154
0.26236796379089355,-0.015176966786384583,-0.006910338997840881,0.007244229316711426,0.0005990080535411835,0.0005468036979436874,0.003949352540075779,-0.17446593012017975,-0.021822906792217236,-0.0005362765380841323
0.27146291732788086,-0.016576146706938744,-0.001355186104774475,0.0041702985763549805,0.002266146708279848,0.0027793317567557096,0.0019154965411871672,-0.1742790314929286,-0.022229818851456435,-0.0005783833750077947
0.28138017654418945,-0.018655214458703995,0.0013006329536437988,0.00015091896057128906,0.004808999598026276,0.0015053641982376575,0.0033000740222632885,-0.1740923156712505,-0.022597074320482954,-0.000616670543165052
0.2914149761199951,-0.018066011369228363,0.0002308189868927002,0.0023772716522216797,0.006755503825843334,0.0014470410533249378,0.0009687428828328848,-0.17387715142232074,-0.022962152997614053,-0.0006657482610703398
0.3014650344848633,-0.01774144172668457,0.0012936592102050781,0.00533139705657959,0.006479683797806501,-0.00018303515389561653,-5.795876495540142e-05,-0.17369658632369467,-0.0232600474609548,-0.0007093906251602251
0.31238412857055664,-0.016422750428318977,0.000896841287612915,0.004357397556304932,0.007324438076466322,-0.0004496178589761257,-0.0007157595828175545,-0.17355725862131846,-0.023529442627072118,-0.000755696722928596
0.32144999504089355,-0.01739935390651226,-0.002658441662788391,0.005488872528076172,0.007230078801512718,-0.0011316980235278606,-0.0007247612811625004,-0.17341782375707343,-0.023807745340626116,-0.0007979326060623827
0.3313729763031006,-0.016929464414715767,-0.004280745983123779,0.008883476257324219,0.003952793311327696,-0.004769309889525175,0.0008989679627120495,-0.17325236190522153,-0.024067291302952043,-0.000848583115414116
0.34145212173461914,-0.015451062470674515,-0.002268165349960327,0.009307622909545898,-0.0009259679354727268,-0.004580979701131582,0.0018108878284692764,-0.17314554484079384,-0.02432853109043379,-0.0008643142903106443
0.3513178825378418,-0.01626119576394558,-0.005576565861701965,0.00842905044555664,-0.00017309235408902168,-0.0036004032008349895,0.003656991058960557,-0.17315820506823293,-0.024606052789720195,-0.0008802095555554122
0.3621530532836914,-0.01674106903374195,-0.0068270862102508545,0.007620275020599365,0.001961497822776437,-0.0036801211535930634,0.006698107812553644,-0.17320398958899727,-0.02490920615225738,-0.0008748302963942229
0.3715229034423828,-0.014844682067632675,-0.0027095526456832886,0.006910979747772217,0.002724493620917201,-0.005287338979542255,0.009118655696511269,-0.17320636334751421,-0.025192493507694008,-0.0008363728035730067
0.38143110275268555,-0.014491179957985878,0.0014606267213821411,0.008046507835388184,0.004602155182510614,-0.00509674521163106,0.008043697103857994,-0.17321726303034116,-0.02547405357187557,-0.000788616024144984
0.39153289794921875,-0.01450873352587223,-0.0011891424655914307,0.009072721004486084,-0.0005547900218516588,-0.007126606535166502,0.00853158812969923,-0.17324288350445846,-0.025750760311664737,-0.0007435413936253728
0.40154600143432617,-0.014369184151291847,-0.0015623420476913452,0.011947810649871826,-0.004138555843383074,-0.006447988096624613,0.007851576432585716,-0.17324998801197503,-0.026047471692311835,-0.0007068967809748324
0.41234803199768066,-0.014134738594293594,-0.0008767545223236084,0.013789653778076172,-0.0033020570408552885,-0.005330792162567377,0.0073303962126374245,-0.17323557727374203,-0.026316484329092515,-0.0006710210341305858
0.42153215408325195,-0.015294630080461502,-0.0017743110656738281,0.01415717601776123,-0.005592308938503265,-0.005410953890532255,0.004073988646268845,-0.17327928073570906,-0.026564392564370296,-0.0006546096824917946
0.4319629669189453,-0.014851387590169907,-0.001010313630104065,0.013728499412536621,-0.004337693564593792,-0.005521741230040789,0.0015008423943072557,-0.17324722949872598,-0.026828435278799467,-0.0006646153187291049
0.44155216217041016,-0.014429450035095215,0.001214444637298584,0.014186859130859375,-0.00815325416624546,-0.002510637976229191,0.00019621336832642555,-0.17320384220561402,-0.027086271556305545,-0.0006935097780192975
0.451815128326416,-0.014749189838767052,0.0024277567863464355,0.015454292297363281,-0.007330071181058884,0.0025179425720125437,0.0004209841135889292,-0.17325782277706944,-0.027273194599040953,-0.0007206488694104405
0.46442699432373047,-0.017604632303118706,0.0006919801235198975,0.014697015285491943,-0.006960524711757898,0.0032128498423844576,-0.001556519651785493,-0.1733779578151187,-0.02742665556507866,-0.0007545297843777597
0.47212791442871094,-0.017138037830591202,0.00018067657947540283,0.011552929878234863,-0.004546368960291147,0.0036442819982767105,-0.0014044531853869557,-0.17344780140576868,-0.02757543040711964,-0.0008023514408125134
0.4825019836425781,-0.013322591781616211,0.003484204411506653,0.011310875415802002,-0.0058341906405985355,0.005251810885965824,-0.0013371282257139683,-0.1735020322949693,-0.027715931055042126,-0.0008393757291245397
0.4919600486755371,-0.013383215293288231,0.002249091863632202,0.01141136884689331,-0.011931231245398521,0.006701902020722628,0.00011802290100604296,-0.17360961471240055,-0.027825359163129438,-0.0008784528111516119
0.5044989585876465,-0.013727320358157158,0.0016687214374542236,0.010516524314880371,-0.008956081233918667,0.00413656746968627,1.2135482393205166e-05,-0.17373406849797218,-0.027956901689108124,-0.0009101683033265058
0.5164129734039307,-0.014495838433504105,-0.000500798225402832,0.009911060333251953,-0.015176160261034966,0.0015620894264429808,-0.0009133130661211908,-0.17386083055573398,-0.02809134425217211,-0.0009494734430737777
0.524716854095459,-0.012441592290997505,-0.001431390643119812,0.007588207721710205,-0.009457187727093697,-0.0006222352385520935,0.00042375363409519196,-0.1740310500981281,-0.028256892304277397,-0.00098194183187436
0.5337429046630859,-0.010622696951031685,0.0005792528390884399,0.010043025016784668,-0.009832960553467274,-6.030825898051262e-05,-0.00045775261241942644,-0.1741895490874507,-0.028431326673529957,-0.0010109852065906524
0.5418059825897217,-0.0121258944272995,-0.0022784769535064697,0.0074460506439208984,-0.011609422042965889,-0.00031703710556030273,0.0024131881073117256,-0.17434889118155716,-0.028641158870934977,-0.0010554884346063425
0.5519580841064453,-0.012709582224488258,-0.003889992833137512,0.006577670574188232,-0.012330340221524239,-0.0019594081677496433,0.002593484241515398,-0.17448232701355457,-0.02885492452956832,-0.001072530141765079
0.5631229877471924,-0.011490872129797935,-0.004714027047157288,0.007114529609680176,-0.01452481746673584,-0.005395862273871899,0.0028776435647159815,-0.17469931218050472,-0.029040020590596162,-0.0010771858609819043
0.5719561576843262,-0.010129224509000778,-0.004457399249076843,0.0074751973152160645,-0.009929000400006771,-0.0065873609855771065,0.005069691687822342,-0.17487256674689378,-0.029246102220711452,-0.0010684324149067526
0.5823299884796143,-0.01138370856642723,-0.004919096827507019,0.005762457847595215,-0.013410650193691254,-0.008431687951087952,0.006273652892559767,-0.175031514135465,-0.02947614530847417,-0.0010416852656244232
0.5919320583343506,-0.009795233607292175,-0.007085859775543213,0.002837061882019043,-0.009475297294557095,-0.010016802698373795,0.00548242824152112,-0.1751400074191275,-0.02972633793370703,-0.0010186121960796012
0.602078914642334,-0.01029849424958229,-0.006828516721725464,0.0022212862968444824,-0.009142952039837837,-0.010131185874342918,0.006718774326145649,-0.17521956661021565,-0.029959582443414005,-0.0009725848580656853
0.6131911277770996,-0.01113319955766201,-0.003726065158843994,0.0037382841110229492,-0.007178604137152433,-0.010171931236982346,0.005819158162921667,-0.17532303739851887,-0.030166273012187952,-0.0009346938443430214
0.6219890117645264,-0.010718116536736488,-0.003948226571083069,0.004607081413269043,-0.00911247543990612,-0.009960521012544632,0.005729622207581997,-0.17537821033959394,-0.03038677132059855,-0.0009079837265705416
0.6320130825042725,-0.012504342943429947,-0.00429120659828186,0.005695223808288574,-0.006224010605365038,-0.007507482543587685,0.004418548196554184,-0.17540110592361643,-0.030602977373605445,-0.0008755140516254333
0.6419670581817627,-0.013847293332219124,-0.00582142174243927,0.005749881267547607,-0.007738367188721895,-0.006879997905343771,0.0038327593356370926,-0.17540551607823954,-0.03078887083264727,-0.0008611962727992078
0.6520559787750244,-0.013410190120339394,-0.006723314523696899,0.004463315010070801,-0.004860023036599159,-0.003463428933173418,0.0033957348205149174,-0.17540716769971557,-0.030938427823120212,-0.0008448607642887839
0.6629140377044678,-0.011807672679424286,-0.006180018186569214,0.00546109676361084,0.0026608107145875692,0.0017307121306657791,0.002641314407810569,-0.17535128996363036,-0.031062502761827517,-0.0008420349903317502
0.6720118522644043,-0.012100834399461746,-0.005762025713920593,0.004739224910736084,0.009336822666227818,0.003096114844083786,0.002593910088762641,-0.17519023447270315,-0.031135836659088607,-0.000822084117607816
0.6820721626281738,-0.011521054431796074,-0.0030432939529418945,0.0037712454795837402,0.01784324273467064,0.004328492563217878,0.005778145045042038,-0.1749550792506395,-0.031196504490616547,-0.0007889468066137723
0.6921579837799072,-0.009342329576611519,-0.0010804980993270874,0.0026514530181884766,0.023585814982652664,0.0012975491117686033,0.003914198838174343,-0.1747128360662982,-0.03126934433052054,-0.0007544760193390961
0.7025971412658691,-0.008523393422365189,-0.0012948662042617798,0.001128077507019043,0.027796775102615356,0.0012161447666585445,0.0043749259784817696,-0.17441920452848178,-0.031355615143239236,-0.0007207783804217389
0.7140069007873535,-0.006993675604462624,-0.0013974756002426147,0.001710057258605957,0.024415358901023865,-0.002347963862121105,0.005106230266392231,-0.17412054456279968,-0.03148186986793497,-0.0006868741805817779
0.7225539684295654,-0.005632970482110977,0.0009546428918838501,-0.0002155303955078125,0.02097039297223091,-0.007896659895777702,0.004880127497017384,-0.17383939454791647,-0.03166902651465411,-0.0006526239174421552
0.7322750091552734,-0.003079298883676529,-0.0014860481023788452,0.00024455785751342773,0.015205980278551579,-0.014444839209318161,0.004181047901511192,-0.17360628665106595,-0.031905769277774304,-0.00062016973353717
0.7421879768371582,-0.00014935433864593506,-0.002687707543373108,-0.0029663443565368652,0.01127813383936882,-0.019884657114744186,0.0037762473803013563,-0.1734165433511491,-0.03218394597924533,-0.0005934711557060436
0.7522759437561035,-0.0005452707409858704,0.0004978775978088379,-0.0015804767608642578,0.008815242908895016,-0.026029635220766068,0.005904379300773144,-0.17328069150935524,-0.03252498304249889,-0.000566047567141175
0.763592004776001,-0.0012786537408828735,-8.799135684967041e-05,0.0029538869857788086,0.005399005953222513,-0.03176164627075195,0.007569973357021809,-0.1731938780483523,-0.032910982854112945,-0.0005162513015782643
0.7720119953155518,-0.00305807963013649,8.028745651245117e-05,0.0026964545249938965,-0.0026091192848980427,-0.03675560653209686,0.008834175765514374,-0.17319343690613867,-0.03331990115993505,-0.0004405737258888488
0.7821779251098633,-0.003996636718511581,0.0014401823282241821,0.002418041229248047,-0.0029095569625496864,-0.038317639380693436,0.012112420983612537,-0.17322251382135107,-0.03374615090810352,-0.0003432244417579963
0.7921509742736816,-0.004129763692617416,-0.0014322400093078613,0.0058647990226745605,-0.0012259065406396985,-0.03720017522573471,0.013783288188278675,-0.1732418323882669,-0.03415353169817577,-0.00022469068102340316
0.8023281097412109,-0.005385611206293106,-0.0003001689910888672,0.0051555633544921875,-0.0028669796884059906,-0.036542199552059174,0.016156483441591263,-0.17330082924735446,-0.03452118247338782,-8.62080797910261e-05
0.8136720657348633,-0.006712324917316437,0.005766481161117554,0.0037105679512023926,0.0003290800377726555,-0.039317741990089417,0.013923157937824726,-0.17329178406319082,-0.03487844105002725,6.900247063015574e-05
0.8223710060119629,-0.0034485049545764923,0.003324955701828003,0.005681395530700684,-0.008563847281038761,-0.04339317977428436,0.01526176929473877,-0.1732919154657009,-0.03524886738899061,0.00021984996815695377
0.8344449996948242,-0.0019441768527030945,0.0025676339864730835,0.007493495941162109,-0.014800970442593098,-0.044901326298713684,0.014100098982453346,-0.17341012552460067,-0.03564622242931425,0.00036925296884530236
0.8425378799438477,-0.005222685635089874,0.0025949627161026,0.010144650936126709,-0.024924762547016144,-0.0423760749399662,0.012909292243421078,-0.17361474142967553,-0.03605270772751356,0.0005084488469349719
0.853416919708252,-0.0068705640733242035,-0.0026022642850875854,0.013776600360870361,-0.04548089951276779,-0.024869251996278763,0.028755631297826767,-0.17399594670051893,-0.03633424921064384,0.0007213275941073571
0.863591194152832,-0.008185159415006638,-0.001006782054901123,0.01333087682723999,-0.029250435531139374,-0.03984740376472473,0.01018114946782589,-0.1743745935127109,-0.036721895634504266,0.0008597195083806195
0.8723640441894531,-0.008843425661325455,-0.0031640976667404175,0.014689147472381592,-0.024364866316318512,-0.03755761682987213,0.007672452367842197,-0.17464389359905,-0.0371090949268046,0.0009532494474434433
0.8823680877685547,-0.005879513919353485,0.0005596727132797241,0.01105344295501709,-0.019752684980630875,-0.038575075566768646,0.007621372118592262,-0.17484469167476735,-0.03751733055727088,0.0009991515404190396
0.8922791481018066,-0.007900957018136978,0.007044374942779541,0.008445143699645996,-0.017152640968561172,-0.03140291944146156,0.007015769369900227,-0.1751084101576962,-0.0378993476019104,0.0010767951168857664
0.9024391174316406,-0.008886866271495819,0.0025626718997955322,0.011522769927978516,-0.02280891314148903,-0.02542940340936184,0.009211919270455837,-0.17533639907457746,-0.03818602187816075,0.0011418249110385407
0.9130878448486328,-0.011896047741174698,-0.00019621849060058594,0.011514008045196533,-0.041254233568906784,-0.023404868319630623,0.012618368491530418,-0.17568981667752243,-0.038402286204302714,0.0012554966854189519
0.9223270416259766,-0.006000038236379623,-0.004066288471221924,0.012568891048431396,-0.04318913444876671,-0.01874251663684845,0.01894204318523407,-0.17614902389597747,-0.038644295719446387,0.0013734898723933937
0.9323749542236328,-0.007312636822462082,-0.002926945686340332,0.017961561679840088,-0.03154446557164192,-0.01748816855251789,0.029070045799016953,-0.17651064691225843,-0.038817057125586495,0.0015937639481682293
0.9423770904541016,-0.010415107011795044,0.0008216202259063721,0.011218428611755371,-0.05744016170501709,-0.020717915147542953,0.038425199687480927,-0.1768878177025645,-0.03904733741692879,0.0019163799567685554
0.9526979923248291,-0.006011482328176498,0.004754841327667236,0.006961345672607422,-0.07992949336767197,0.012107141315937042,0.056349337100982666,-0.17757349571564893,-0.03907690089465014,0.0023655409968159034
0.9641890525817871,-0.008534654974937439,-0.010862231254577637,0.018087446689605713,-0.06699132174253464,-0.0015168795362114906,0.03603096306324005,-0.1783561296472645,-0.038983743953131596,0.0027858933711192224
0.9723670482635498,-0.013002846390008926,-0.008446931838989258,0.012510061264038086,-0.04604422673583031,-0.014468897134065628,0.04013143107295036,-0.17898737872981407,-0.039052942573220645,0.0031704113060334344
0.9828090667724609,-0.002320028841495514,0.011177480220794678,0.00903010368347168,-0.049012523144483566,-0.009406760334968567,0.0474293977022171,-0.17948197047281936,-0.03916677689584271,0.003563065509164326
0.9924039840698242,-0.0012045875191688538,0.005733609199523926,0.0028738975524902344,-0.04600661247968674,0.010868949815630913,0.06113162636756897,-0.17994364675813895,-0.039187160922821436,0.004154454687428051
1.0024571418762207,-0.00286995992064476,0.003082454204559326,0.0025177597999572754,-0.08382609486579895,0.024343125522136688,0.08521305024623871,-0.18045154447159015,-0.03894021972850663,0.004733999328616613
1.0135021209716797,-0.006866727024316788,0.010305777192115784,0.017915070056915283,-0.07117021828889847,0.0033624754287302494,0.11668069660663605,-0.1812831586088204,-0.03859013565571966,0.0058965919419003265
1.0224361419677734,-0.0010191388428211212,0.010244414210319519,0.032933712005615234,-0.14206872880458832,-0.005692982580512762,0.09685015678405762,-0.18229194718184216,-0.038507661981470445,0.006872215930131031
1.0324978828430176,-0.0007950179278850555,-0.05163992941379547,0.030214130878448486,-0.18790680170059204,-0.0013355184346437454,0.12397471070289612,-0.18400908937799162,-0.03840635048017807,0.007894354896095928
1.042417049407959,0.00315992534160614,-0.03239494562149048,0.032118022441864014,-0.19122374057769775,0.006284805946052074,0.15317702293395996,-0.1858992316556786,-0.0381898385133859,0.009246677798507748
1.0525240898132324,-0.00029854103922843933,-0.005735039710998535,0.03719055652618408,-0.14502747356891632,0.009940793737769127,0.1884937435388565,-0.1875735020434009,-0.03786537490921569,0.010910802582737215
1.0636119842529297,-0.008430883288383484,-0.003977730870246887,0.04552417993545532,-0.09253577888011932,0.00920283142477274,0.22503310441970825,-0.18887566497487607,-0.03740899111488506,0.012937558341851172
1.0725741386413574,-0.012039296329021454,-0.021657541394233704,0.046547889709472656,0.006241663359105587,0.017739593982696533,0.30059126019477844,-0.18939868706161064,-0.03676782296147055,0.01558428376205692
1.0831120014190674,-0.008674688637256622,-0.035766422748565674,0.04269629716873169,0.06234290078282356,0.009247439913451672,0.39356136322021484,-0.18909790018838382,-0.03596513183742967,0.019132919544620867
1.0925710201263428,-0.013285741209983826,-0.043035298585891724,0.04100865125656128,0.06592272222042084,-0.044378504157066345,0.5051661729812622,-0.18862211284880176,-0.03529050420148803,0.02373559489367378
1.102613925933838,-0.019011445343494415,-0.09480340778827667,0.0729101300239563,0.04219457134604454,-0.09519530087709427,0.6185733675956726,-0.18830638361012877,-0.03492716100938906,0.029472582878554678
1.1135830879211426,-0.03734494373202324,-0.19376949965953827,0.1057385802268982,0.035109229385852814,-0.13315707445144653,0.7469049692153931,-0.18805540219694075,-0.03476223852748394,0.036422610762457286
1.1226911544799805,-0.06848585605621338,-0.2469792366027832,0.11292773485183716,0.05708640068769455,-0.07027574628591537,0.8075454235076904,-0.1878713848321866,-0.034359263342393476,0.04444000103567863
1.132878065109253,-0.10434125363826752,-0.2634677290916443,0.10374253988265991,0.08822780847549438,-0.038265883922576904,0.8313181400299072,-0.18739905948228636,-0.03331783310433071,0.05280539829840024
1.1427130699157715,-0.1331120729446411,-0.278796911239624,0.0811452865600586,0.08439286053180695,-0.028032420203089714,0.9069859981536865,-0.1868029264469314,-0.03198525740531316,0.061679419951270645
1.1533279418945312,-0.1254417598247528,-0.2688434422016144,0.07680535316467285,0.09130749106407166,-0.02602652832865715,0.9804604649543762,-0.18627015997043692,-0.030439139645042988,0.07130904031624787
1.1641578674316406,-0.11738316714763641,-0.2888687252998352,0.09888935089111328,0.1120334044098854,0.006359552498906851,1.0358998775482178,-0.1855307265259409,-0.028681775704803618,0.08162906630320604
1.1729400157928467,-0.14293032884597778,-0.3460899591445923,0.11927121877670288,0.12387967854738235,0.07974428683519363,1.077429175376892,-0.18466221559319357,-0.026266158848933845,0.09240129172084771
1.182831048965454,-0.17965921759605408,-0.3904847502708435,0.12071353197097778,0.20425991714000702,0.10256726294755936,1.1514074802398682,-0.18335000876361637,-0.02326267841286855,0.1037671570907283
1.1926679611206055,-0.20172268152236938,-0.4185594320297241,0.14245939254760742,0.39986056089401245,0.0537392720580101,1.2402254343032837,-0.18058684969040786,-0.020133152261151435,0.11593433293196084
1.2027790546417236,-0.20758745074272156,-0.41676127910614014,0.18818271160125732,0.5848343372344971,-0.02564183436334133,1.4647589921951294,-0.17590692420668866,-0.017537573980896046,0.1297788118484108
1.214832067489624,-0.21123762428760529,-0.4239647388458252,0.22715717554092407,0.7799239158630371,-0.12106209248304367,1.6505526304244995,-0.1693254194692112,-0.015516879670953238,0.14575250610290913
1.223060131072998,-0.2268155962228775,-0.5078860521316528,0.2696819305419922,0.9283674359321594,-0.25574588775634766,1.805522084236145,-0.16098538162939027,-0.014429814714465188,0.16341433694653265
1.233126163482666,-0.25149020552635193,-0.5813002586364746,0.35451334714889526,1.0706307888031006,-0.4428979158401489,2.0312893390655518,-0.15127361961135355,-0.014900589269973948,0.18293505292211854
1.242913007736206,-0.26559746265411377,-0.5735807418823242,0.47741609811782837,1.1117479801177979,-0.5686612725257874,2.2267439365386963,-0.14050998669870882,-0.01682622879528802,0.2047009678698248
1.2530100345611572,-0.2941915690898895,-0.6009016036987305,0.5222575068473816,0.9458969831466675,-0.39875590801239014,2.485536575317383,-0.13058466113779565,-0.018697571073901166,0.22861484506502566
1.263597011566162,-0.34121009707450867,-0.6631025075912476,0.4691147208213806,0.580942690372467,-0.05992390587925911,2.842315435409546,-0.12311490900157987,-0.017581702915647472,0.25552148722847956
1.2728450298309326,-0.3656780421733856,-0.6893815994262695,0.38879650831222534,-0.005142633803188801,0.07458889484405518,3.143810987472534,-0.1206894739934008,-0.013709797773709967,0.28587328033121767
1.2828080654144287,-0.3022225797176361,-0.6441423892974854,0.29263895750045776,-0.47753769159317017,0.21170684695243835,3.417964458465576,-0.12364433922298028,-0.008403785227840807,0.31878643382936467
1.2928881645202637,-0.14294181764125824,-0.7078056335449219,0.20361071825027466,-0.4782088100910187,0.7202595472335815,3.707162857055664,-0.12895445869885963,0.0006745017706376488,0.35493266424440806
1.3030190467834473,-0.08388080447912216,-0.658123254776001,0.062186479568481445,0.05835834518074989,1.349604606628418,3.9050846099853516,-0.1306320265516294,0.015855578961593914,0.3932666378598853
1.313066005706787,-0.17597268521785736,-0.4124070703983307,-0.05951225757598877,0.9682877659797668,2.0270767211914062,4.135226249694824,-0.12501280372773801,0.037926276931404324,0.4337434828856056
1.322770118713379,-0.21355432271957397,-0.1883581429719925,-0.011821150779724121,1.3007397651672363,2.677358865737915,4.031456470489502,-0.11082619330057973,0.06642742317097794,0.47442859380833785
1.3329648971557617,-0.19635426998138428,-0.08573753386735916,0.17631816864013672,1.6344938278198242,3.118110418319702,4.183402061462402,-0.09312007509714773,0.0995216067177633,0.5143553303808064
1.3429231643676758,-0.15530075132846832,0.0792396292090416,0.3022388815879822,1.4939095973968506,3.5856711864471436,3.989919662475586,-0.07231272952833803,0.1364102573771026,0.553260039815331
1.352858066558838,-0.1317124217748642,0.20613498985767365,0.19269657135009766,1.1611589193344116,4.028215408325195,4.125852584838867,-0.052907740505567395,0.17676184341190604,0.5913907297630269
1.3645579814910889,-0.09242911636829376,0.2690396308898926,0.12438344955444336,0.7960553765296936,4.391025066375732,3.9767508506774902,-0.03539594853414825,0.22082145254651087,0.6293909996825466
1.3729839324951172,0.01480141282081604,0.026955846697092056,0.13139373064041138,0.7018774747848511,4.683625221252441,4.09749698638916,-0.01836388913763074,0.2671256792720865,0.6666781256379062
1.3829989433288574,0.2205522060394287,0.08921422809362411,0.14155930280685425,0.5185714960098267,4.817546844482422,4.047763824462891,-0.0008279770031678509,0.31525308030439714,0.704196306245047
1.3930420875549316,0.39306899905204773,0.19892336428165436,0.12028837203979492,0.6633425354957581,4.662054538726807,4.012317657470703,0.017863441546077972,0.36267356678742896,0.7402528097929868
1.4041152000427246,0.491903692483902,0.014646738767623901,0.17290085554122925,0.9121733903884888,4.300559043884277,4.016235828399658,0.04024649836963673,0.4065972859759201,0.77468381600506
1.4143691062927246,0.8198053240776062,0.09971187263727188,0.07310450077056885,1.1119989156723022,3.976162910461426,3.9480934143066406,0.06605314478613691,0.4462248544462065,0.80680087133539
1.422943115234375,1.208475112915039,0.2287522703409195,-0.2559407949447632,1.0351041555404663,3.747701644897461,3.7872605323791504,0.09328255044679111,0.48257257243735263,0.8366759136693944
1.4330768585205078,1.3324167728424072,0.3931436538696289,-0.5572402477264404,0.5108440518379211,3.322263240814209,3.4304044246673584,0.11765799140268061,0.5151084004292237,0.8648685480146089
1.4430170059204102,1.2965185642242432,0.5315057635307312,-0.6070954203605652,-0.26798582077026367,2.7200515270233154,2.8554844856262207,0.13474200160926084,0.5420901414831412,0.8916878835633736
1.4531760215759277,1.1873160600662231,0.5810965299606323,-0.5175467133522034,-1.1986087560653687,1.8682260513305664,2.1057240962982178,0.14155100397921472,0.5617184949118381,0.9170082649502608
1.4642469882965088,1.0312905311584473,0.671518087387085,-0.45735204219818115,-1.9915144443511963,0.8842454552650452,1.2662373781204224,0.1369881609010406,0.57222142759598,0.9401827946163849
1.4734621047973633,0.8226950168609619,0.7355403900146484,-0.4224194288253784,-2.294790744781494,-0.0068192328326404095,0.38947123289108276,0.12314996015139154,0.5739382315375502,0.9592234426600355
1.4830069541931152,0.613111674785614,0.7489902377128601,-0.37632185220718384,-1.9092363119125366,-0.6378318667411804,-0.30754056572914124,0.10517146522054949,0.5692201631448501,0.9710039367418816
1.4933710098266602,0.43905335664749146,0.6494049429893494,-0.3085553050041199,-1.0345804691314697,-0.9054030776023865,-0.6632371544837952,0.08986388347424225,0.56081123074378,0.9748339276875314
1.502993106842041,0.296547532081604,0.4958966374397278,-0.23734211921691895,0.04645148664712906,-0.8801462650299072,-0.8323974609375,0.08165008710255062,0.5521160523466234,0.9709529756587564
1.5135259628295898,0.15841591358184814,0.3004642128944397,-0.16018974781036377,1.0205950736999512,-0.690895676612854,-0.7973009943962097,0.08197375511382611,0.5449301648303345,0.9610794986819865
1.5231318473815918,0.12299919128417969,0.09209758043289185,-0.06971955299377441,1.6805802583694458,-0.37445351481437683,-0.6070511341094971,0.09014433691009886,0.5407060613779339,0.9477949557982797
1.5333681106567383,0.06936413049697876,-0.0420052632689476,0.0329778790473938,1.772462248802185,-0.06333612650632858,-0.40058982372283936,0.10267570611991686,0.5398067335900312,0.9343443321621523
1.5430850982666016,-0.030817270278930664,-0.13261285424232483,0.15007340908050537,1.3470503091812134,0.16977296769618988,-0.18130220472812653,0.11477020717462727,0.541574834364812,0.9236394841153726
1.553351879119873,-0.03274393081665039,-0.19883820414543152,0.18590879440307617,0.6264178156852722,0.30213579535484314,-0.027100922539830208,0.1228357461293184,0.5447817252924037,0.9174696604535003
1.5633440017700195,-0.020840167999267578,-0.21283888816833496,0.15991365909576416,-0.3229902386665344,0.302252858877182,0.16155202686786652,0.12456480656025563,0.5478794797688916,0.9173060784957893
1.573395013809204,-0.004856586456298828,-0.21243073046207428,0.1536065936088562,-1.161739468574524,0.23832981288433075,0.25086063146591187,0.11919584191606744,0.5499370162693186,0.923063782209766
1.5834670066833496,0.01706308126449585,-0.25167787075042725,0.14889627695083618,-1.708308458328247,0.12304595112800598,0.3043442964553833,0.10818260028904944,0.550597523398158,0.9331526236083477
1.5933070182800293,0.02683854103088379,-0.24591884016990662,0.12421828508377075,-1.7389588356018066,0.05367087572813034,0.31001657247543335,0.0947991699504814,0.5502173803591494,0.9450874442777469
1.6032118797302246,0.030025899410247803,-0.2090398669242859,0.09743118286132812,-1.386654257774353,0.031957902014255524,0.30118659138679504,0.08292517053223522,0.5496427745530784,0.9559990524353684
1.6135501861572266,0.021124720573425293,-0.11989566683769226,0.047699570655822754,-0.8689279556274414,0.03735586255788803,0.30615711212158203,0.07486105623125465,0.5493124756457088,0.9645073433129456
1.6232500076293945,0.03255438804626465,-0.06801347434520721,0.011119723320007324,-0.37105029821395874,0.07748881727457047,0.20044173300266266,0.07094670729065855,0.5494951727293528,0.9699586695136121
1.6333580017089844,0.04311305284500122,-0.0474819615483284,-0.010065674781799316,0.07708726078271866,0.1081540510058403,0.10335807502269745,0.07054215674835573,0.5502854927479822,0.9719980544695618
1.643165111541748,0.03702282905578613,-0.010411165654659271,-0.017851650714874268,0.3809387981891632,0.10855592042207718,0.01702004112303257,0.07288997789813023,0.5514507261362314,0.9712223943666184
1.6533708572387695,0.04460418224334717,0.03410986810922623,-0.0006597042083740234,0.5329829454421997,0.08560239523649216,-0.04416847974061966,0.07677246639754788,0.5526210874118501,0.9686566748619477
1.6634609699249268,0.05458366870880127,0.03241470456123352,0.029907584190368652,0.5545029640197754,0.058959513902664185,-0.08065842092037201,0.08114868735945231,0.5536260626932115,0.965181916268786
1.6735081672668457,0.05404239892959595,0.027083776891231537,0.04464679956436157,0.4419357180595398,0.03053692728281021,-0.08713975548744202,0.08497095414298171,0.554335595371234,0.9618083430511614
1.6834380626678467,0.0517309308052063,0.005920253694057465,0.0646287202835083,0.3260633945465088,0.03558472543954849,-0.07812011241912842,0.0877588629400372,0.5548901857814025,0.9590751121728455
1.6933131217956543,0.03266936540603638,-0.01686055213212967,0.08377200365066528,0.20396918058395386,0.06052549555897713,-0.03126498684287071,0.0897049423784513,0.5555242839121907,0.9571849682248663
1.7033281326293945,0.017355263233184814,-0.016659364104270935,0.06862372159957886,0.11993926763534546,0.10528098046779633,0.024326371029019356,0.09105606425049474,0.5564233705189057,0.956306518791033
1.7136220932006836,0.010982692241668701,-0.03618721663951874,0.04514235258102417,0.03967372328042984,0.13691213726997375,0.07071889936923981,0.09199416466125089,0.5576437770076319,0.9562921177713348
1.7232999801635742,0.0055119991302490234,-0.025027602910995483,0.02251112461090088,-0.04046277329325676,0.15497933328151703,0.09031689167022705,0.09241336821443268,0.5590325418914064,0.9570087345975505
1.7334749698638916,0.00032585859298706055,-0.006644889712333679,0.01618516445159912,-0.08360758423805237,0.16540321707725525,0.09372547268867493,0.09236325962992804,0.5605284849899622,0.9581384252669399
1.74338698387146,-0.011417031288146973,0.0024136900901794434,0.009291887283325195,-0.1428472399711609,0.15714885294437408,0.08517032861709595,0.09188306135955475,0.5620315646406373,0.9594943236991524
1.7539291381835938,-0.012147665023803711,0.017862804234027863,-0.006258368492126465,-0.15997402369976044,0.13250714540481567,0.08060327172279358,0.09101691063141511,0.5633380285320111,0.9610503366937689
1.7642810344696045,-0.010405004024505615,0.0033746063709259033,-0.012574613094329834,-0.15194880962371826,0.10055937618017197,0.0666775032877922,0.09008997594672909,0.564386852290827,0.9625164189012878
1.7734179496765137,-0.0174291729927063,0.0020767301321029663,-0.008447885513305664,-0.12891672551631927,0.0761813297867775,0.045553840696811676,0.0892005196730217,0.5651584650002746,0.9637577412929443
1.783444881439209,-0.013805270195007324,0.010465867817401886,-0.015559613704681396,-0.09534348547458649,0.06649612635374069,0.02821676805615425,0.08846197040326116,0.5657789734399679,0.9646679414937216
1.7933380603790283,-0.012002408504486084,0.01827351003885269,-0.027690649032592773,-0.04769713431596756,0.06182494014501572,0.01582055352628231,0.08795160782572485,0.566364642687793,0.9652589114085011
1.8034539222717285,-0.01218503713607788,0.027791008353233337,-0.028294861316680908,0.01732364296913147,0.06830201297998428,-0.0008183979662135243,0.08785569967850917,0.5669941666094406,0.9654023499236974
1.8140411376953125,-0.009892761707305908,0.03859878331422806,-0.0376434326171875,0.07116343826055527,0.06999046355485916,-0.005932466126978397,0.08828916624302002,0.5677228314324307,0.9651328009254535
1.8233981132507324,-0.0036269426345825195,0.039507053792476654,-0.04927241802215576,0.10051897913217545,0.06991415470838547,-0.013922534883022308,0.08900187546057466,0.5684241255939116,0.9645823921546818
1.8335671424865723,-0.00435107946395874,0.03191268444061279,-0.03746294975280762,0.08122198283672333,0.0642261803150177,-0.022564759477972984,0.08963451688261788,0.5691049916208747,0.9639290695492801
1.8434538841247559,-0.0044820308685302734,0.021982550621032715,-0.035903215408325195,0.051306623965501785,0.047112442553043365,-0.022823724895715714,0.09008216403046504,0.5696325546746139,0.9633819275873767
1.8536081314086914,-1.7881393432617188e-07,0.016785167157649994,-0.03655838966369629,0.003193426411598921,0.02601221576333046,-0.029276298359036446,0.09019530586113046,0.5698989134326153,0.9630378288415219
1.863983154296875,-0.002369999885559082,0.011003158986568451,-0.03427392244338989,-0.03920409828424454,0.003011381486430764,-0.03574319928884506,0.08976739254853326,0.5698252374779578,0.9628828469801363
1.873617172241211,-0.005946159362792969,0.006191916763782501,-0.035621464252471924,-0.05235345661640167,-0.013883179053664207,-0.03204886242747307,0.088950701967167,0.5694939103284571,0.9628717899129835
1.8835511207580566,-0.002018272876739502,0.007128775119781494,-0.041920006275177,-0.05802096053957939,-0.021615134552121162,-0.03038523718714714,0.08806831212950876,0.5691269687483821,0.9629172577340198
1.8935599327087402,0.00040215253829956055,0.013142995536327362,-0.04414236545562744,-0.05905213579535484,-0.022608760744333267,-0.025965722277760506,0.08712088784445293,0.5687351916997676,0.96300920990997
1.9036169052124023,-0.0008310675621032715,0.009743906557559967,-0.04577791690826416,-0.05898219719529152,-0.014505026862025261,-0.02301696501672268,0.08626680260264087,0.5684300008325317,0.9631393796414203
1.9138798713684082,-0.002359926700592041,0.00886591523885727,-0.03713345527648926,-0.06953390687704086,-0.009259399026632309,-0.01730501651763916,0.08547746307533385,0.5682084225598023,0.9633282969464291
1.9235360622406006,-0.004022061824798584,0.00045271217823028564,-0.03415870666503906,-0.09081829339265823,-0.010691912844777107,-0.023110229521989822,0.0845989129995705,0.5680140206362736,0.9636016720130446
1.9336318969726562,-0.00895005464553833,-0.013456255197525024,-0.03594595193862915,-0.11021063476800919,-0.03175485506653786,-0.028122032061219215,0.08359534356801723,0.5677232133415746,0.9639495532522759
1.9435319900512695,-0.008990228176116943,-0.011022314429283142,-0.03509634733200073,-0.14217674732208252,-0.06128260865807533,-0.036792270839214325,0.08231700009685744,0.5671585233913824,0.9643562206437299
1.953719139099121,-0.003913462162017822,-0.007416106760501862,-0.036577820777893066,-0.15887317061424255,-0.09567627310752869,-0.05420827865600586,0.08082179608447082,0.5662694595678202,0.9647828294928895
1.9640350341796875,-0.004470348358154297,-0.004036851227283478,-0.032459378242492676,-0.16808946430683136,-0.1289040744304657,-0.06365174055099487,0.07911442144761602,0.5650310957392569,0.9651543931127686
1.9736340045928955,-0.005004763603210449,-0.008444659411907196,-0.033514976501464844,-0.17772850394248962,-0.1574385166168213,-0.06981775909662247,0.0772644404939607,0.5634907493097364,0.9655276194581428
1.9836421012878418,-0.002577662467956543,-0.00555439293384552,-0.02837848663330078,-0.1480913609266281,-0.16106125712394714,-0.06835328787565231,0.07549562421952974,0.5617939774767123,0.9658239350261049
1.9936108589172363,-0.00597834587097168,-0.007939890027046204,-0.008471369743347168,-0.11197490990161896,-0.15476395189762115,-0.05882236734032631,0.0740674363057054,0.5601341040032269,0.9659792451116561
2.003692150115967,-0.005627453327178955,-0.004453092813491821,-0.011097609996795654,-0.054288409650325775,-0.13374513387680054,-0.04293719679117203,0.07315723714718891,0.5586300112351801,0.9659969417142343
2.013979911804199,0.0012792348861694336,-0.011338502168655396,-0.027902960777282715,-0.036120325326919556,-0.12108767032623291,-0.04620516300201416,0.07267924704443676,0.5572802132860394,0.9658559164822684
2.0236048698425293,0.0014490485191345215,-0.005172319710254669,-0.026278257369995117,-0.019172947853803635,-0.1298375129699707,-0.052356742322444916,0.07228311785360332,0.5559806218764626,0.9656035763051815
2.033803939819336,0.0019921064376831055,-0.003702394664287567,-0.015946388244628906,-0.001016049413010478,-0.14310911297798157,-0.05701940506696701,0.07199752543113984,0.5545888599179084,0.9651857611716069
2.0437870025634766,0.007131099700927734,-0.00089997798204422,-0.005979776382446289,0.00825311616063118,-0.16098247468471527,-0.0592532679438591,0.07179344599870138,0.5530367579139006,0.9646769969671046
2.0539469718933105,0.00854349136352539,-0.002499900758266449,0.0010677576065063477,0.007690656464546919,-0.16517722606658936,-0.064033642411232,0.07164270930955484,0.5513668144987757,0.9641129645626628
2.064648151397705,0.006512641906738281,-0.010289281606674194,0.014601826667785645,-0.00983583927154541,-0.1643625646829605,-0.06620059907436371,0.0713599388193069,0.5497046765380293,0.9635603540089159
2.0739798545837402,0.006009697914123535,-0.016002193093299866,0.021483898162841797,-0.013662269338965416,-0.1544409543275833,-0.055544495582580566,0.07103255562903028,0.5481296236246415,0.9631059424118616
2.0845770835876465,0.011289060115814209,-0.012953117489814758,0.030525028705596924,-0.01921241357922554,-0.13818684220314026,-0.0456760972738266,0.07070860526423699,0.5466825699484616,0.9627507395998088
2.093883991241455,0.012502193450927734,-0.010371699929237366,0.03680014610290527,-0.01052065473049879,-0.12129761278629303,-0.04422946646809578,0.0705277439685551,0.5453412431360473,0.9624633010202907
2.103976011276245,0.01487964391708374,-0.012386932969093323,0.03254342079162598,-0.007595272269099951,-0.11538752168416977,-0.042681798338890076,0.07031251649145531,0.5441550658217109,0.9621316174518814
2.1149280071258545,0.016145288944244385,-0.004380039870738983,0.02984076738357544,-0.008483968675136566,-0.10976239293813705,-0.04926859587430954,0.0700790831318124,0.5430916330174312,0.9617877281065433
2.1239449977874756,0.02142512798309326,-0.0004759952425956726,0.028803110122680664,-0.0428156778216362,-0.11705288290977478,-0.06175008788704872,0.06958740702648687,0.5421416863548671,0.9614196653982453
2.134704113006592,0.020275890827178955,0.007092289626598358,0.029518306255340576,-0.08880473673343658,-0.1346539855003357,-0.0811472237110138,0.06868488948536801,0.5410922438321005,0.9611319616509144
2.1440269947052,0.017246007919311523,0.011580348014831543,0.0355798602104187,-0.13342565298080444,-0.157406747341156,-0.10805883258581161,0.06741746145472573,0.5398911810300692,0.9608770749527392
2.1549391746520996,0.01974010467529297,0.020528346300125122,0.036120474338531494,-0.16071027517318726,-0.1816210150718689,-0.1378209888935089,0.06578750633182708,0.5384814656067527,0.9605659142976514
2.164350986480713,0.0234033465385437,0.026584334671497345,0.03595775365829468,-0.18646328151226044,-0.21171197295188904,-0.17608492076396942,0.0637214819748194,0.5369048161176516,0.9600794952710449
2.173905849456787,0.0252530574798584,0.027306970208883286,0.033754587173461914,-0.22024761140346527,-0.2370535433292389,-0.20954246819019318,0.06118906927833176,0.5351174559556333,0.9594292175003237
2.183928966522217,0.03143930435180664,0.02688201144337654,0.02627420425415039,-0.27565237879753113,-0.2605248987674713,-0.24942757189273834,0.058134163198142526,0.533030743542575,0.9586915295301157
2.1938061714172363,0.03713172674179077,0.025414783507585526,0.024030745029449463,-0.37655848264694214,-0.29127031564712524,-0.299909383058548,0.0540970979292796,0.5306443483929935,0.9579515952387916
2.203946113586426,0.046176791191101074,0.027960382401943207,0.01837301254272461,-0.5274678468704224,-0.330814927816391,-0.3594170808792114,0.04868571281012913,0.5279364532386512,0.9573703055650455
2.2139859199523926,0.06253385543823242,0.03608904033899307,0.01897662878036499,-0.6906604766845703,-0.411024808883667,-0.43926185369491577,0.04148722375216705,0.5245862312833525,0.9569667211484664
2.223886013031006,0.06724527478218079,0.038303814828395844,0.02671515941619873,-0.8162504434585571,-0.4956407845020294,-0.5155223608016968,0.03251112357261464,0.5200472985824933,0.956628615546338
2.2339789867401123,0.08175674080848694,0.03924374654889107,0.029193460941314697,-0.8673184514045715,-0.5778115391731262,-0.5995429754257202,0.02238457798455488,0.514689910514554,0.9559659995309148
2.244032859802246,0.07849135994911194,0.03851544111967087,0.026477038860321045,-0.8587712049484253,-0.6572393774986267,-0.6890885233879089,0.011675422426479738,0.5085317231038017,0.9545907551605888
2.2548420429229736,0.06799477338790894,0.030862879008054733,0.008310377597808838,-0.7943956851959229,-0.7169111967086792,-0.7778759002685547,0.0008335105524852739,0.5016399844133508,0.9521932386501935
2.2643871307373047,0.07460549473762512,0.024594824761152267,-0.021935462951660156,-0.6804712414741516,-0.7546449303627014,-0.888403058052063,-0.009661386167578232,0.49424472576363027,0.9484031473084918
2.2743070125579834,0.07506483793258667,0.0243613813072443,-0.048251211643218994,-0.5448082089424133,-0.8011652827262878,-1.003619909286499,-0.019524211115154875,0.486379680768214,0.9429478188604287
2.2839319705963135,0.08801183104515076,0.022421831265091896,-0.05957883596420288,-0.385179728269577,-0.8214579820632935,-1.1090219020843506,-0.028561734281842475,0.4780776307638252,0.9357295369650066
2.29413104057312,0.11493456363677979,0.009685732424259186,-0.047366976737976074,-0.23231294751167297,-0.8449936509132385,-1.2181518077850342,-0.036632955930193466,0.469455617773813,0.9267708438533705
2.3040661811828613,0.12699469923973083,-0.0067086368799209595,-0.024506211280822754,-0.07845694571733475,-0.8819268345832825,-1.3103736639022827,-0.04370992958427514,0.4603662541415221,0.9161295646191654
2.314418077468872,0.15338343381881714,-0.015789303928613663,-0.01716017723083496,0.04742295667529106,-0.8974485397338867,-1.3927119970321655,-0.0497607238366126,0.45088673355688497,0.9039984494138208
2.324213981628418,0.19493937492370605,-0.005480043590068817,-0.0370364785194397,0.11463617533445358,-0.9029144644737244,-1.4480094909667969,-0.05517546363907519,0.44117535666093977,0.8907848295956303
2.334820032119751,0.2151271104812622,-0.008200764656066895,-0.05402952432632446,0.1873260885477066,-0.9096429347991943,-1.4852700233459473,-0.06000992716069866,0.4313048101187131,0.8768211418756967
2.3440380096435547,0.22584906220436096,-0.022035636007785797,-0.043145954608917236,0.21002550423145294,-0.9214136600494385,-1.5033531188964844,-0.06440812078848533,0.4212257994240063,0.8623378823146244
2.354217052459717,0.22517964243888855,-0.020153768360614777,-0.011513888835906982,0.20606458187103271,-0.9292218089103699,-1.5134062767028809,-0.06860853325426462,0.41098129907425657,0.8476652970735794
2.364230155944824,0.21390914916992188,-0.04412021487951279,0.003976225852966309,0.17280733585357666,-0.9249401092529297,-1.4967488050460815,-0.0728253900836619,0.40063094441194985,0.8329963572810098
2.3742198944091797,0.20749515295028687,-0.0574987530708313,0.0009033083915710449,0.11145636439323425,-0.9035043716430664,-1.4962193965911865,-0.07725951491865439,0.3903954663088169,0.8186067137023503
2.3842310905456543,0.1991342306137085,-0.06634477525949478,0.00909411907196045,0.08581825345754623,-0.9369586110115051,-1.5363483428955078,-0.08207724267976262,0.38004507056114156,0.8041454751518066
2.3940701484680176,0.1941101849079132,-0.06807444989681244,0.024047255516052246,-0.010877668857574463,-0.9786152839660645,-1.5910049676895142,-0.08744251185316913,0.36921994354938176,0.7893602134431787
2.4041950702667236,0.22326943278312683,-0.022003911435604095,0.017619013786315918,-0.13551679253578186,-1.0058543682098389,-1.6611483097076416,-0.0939193509472624,0.357903387100174,0.7743499571314316
2.4147748947143555,0.22451943159103394,0.01449238508939743,0.013030290603637695,-0.19796313345432281,-0.9875099658966064,-1.737480878829956,-0.1014500581653103,0.34641502191638135,0.7589297199559667
2.4240689277648926,0.19698846340179443,0.010698601603507996,-0.01023024320602417,-0.19042319059371948,-0.918578028678894,-1.8252429962158203,-0.10946933717947342,0.3352263096753852,0.7427331908736251
2.434080123901367,0.17060759663581848,0.051088400185108185,-0.02555382251739502,-0.025625454261898994,-0.8568478226661682,-1.8827593326568604,-0.11656438994095861,0.3243977454778615,0.7254286805566612
2.444110870361328,0.15362852811813354,0.08030484616756439,-0.02899116277694702,0.19639775156974792,-0.8066440224647522,-1.9596165418624878,-0.12185510748659154,0.31387215439710925,0.7067914301684194
2.4541139602661133,0.14315345883369446,0.11949268728494644,-0.03229355812072754,0.4251108169555664,-0.7492946982383728,-2.036224365234375,-0.12500384166576176,0.30361121461372703,0.6866264869692473
2.4645309448242188,0.1375446915626526,0.17316846549510956,-0.022459685802459717,0.6631389856338501,-0.7011114358901978,-2.088679313659668,-0.1259620545947439,0.2936805865796568,0.6651162320360843
2.474226951599121,0.149551659822464,0.23385317623615265,0.009404599666595459,0.7737086415290833,-0.6579466462135315,-2.1311593055725098,-0.12500800483289232,0.28408401485766593,0.6426409694872427
2.4844088554382324,0.1655656099319458,0.2888363003730774,0.04721564054489136,0.8122130632400513,-0.6623349785804749,-2.1673712730407715,-0.12329541294375904,0.27462440909277264,0.6195700662999848
2.496819019317627,0.18255290389060974,0.2853001356124878,0.05775505304336548,0.7387862205505371,-0.679364800453186,-2.192105531692505,-0.1215696159504413,0.26508616633410687,0.596270469511943
2.504302978515625,0.19925269484519958,0.20184125006198883,0.003602325916290283,0.6277633905410767,-0.7120751738548279,-2.2135183811187744,-0.12074819602291488,0.2553016236180459,0.5730376269512599
2.5150880813598633,0.187503382563591,0.13964885473251343,-0.04856234788894653,0.5302459001541138,-0.7250096201896667,-2.221285104751587,-0.12065353790063811,0.24533545814888072,0.5498893469989814
2.5246670246124268,0.16296647489070892,0.07906997203826904,-0.08321869373321533,0.4074639678001404,-0.7088753581047058,-2.223994493484497,-0.12143897215072012,0.23540489567005102,0.5270042279606385
2.534325122833252,0.14342932403087616,0.07184047996997833,-0.10336858034133911,0.29118505120277405,-0.6576603651046753,-2.2437713146209717,-0.12318835647940869,0.22578117054315863,0.5042506340485785
2.544344902038574,0.12371623516082764,0.08549562096595764,-0.1251002550125122,0.20886924862861633,-0.6144815683364868,-2.225651264190674,-0.12568102925300909,0.2166293318694657,0.4816760787153552
2.5543551445007324,0.10939988493919373,0.09148119390010834,-0.12172961235046387,0.13693034648895264,-0.5667760968208313,-2.204407215118408,-0.12870733705384418,0.20790412041538917,0.45946959326066883
2.564472198486328,0.09025020897388458,0.10200470685958862,-0.08045268058776855,0.14786390960216522,-0.5017796158790588,-2.1555237770080566,-0.1317902607466193,0.19970596169740973,0.43760483295588876
2.574805974960327,0.05638444423675537,0.09463104605674744,-0.052182674407958984,0.21221786737442017,-0.42151597142219543,-2.0858118534088135,-0.13419551662378396,0.19225850429178926,0.41622613132501785
2.584459066390991,0.02809421718120575,0.10731761157512665,-0.0026023387908935547,0.31997624039649963,-0.39325690269470215,-2.0191049575805664,-0.13546705127740796,0.18542528576122527,0.395365144651633
2.5944161415100098,0.011637687683105469,0.15813270211219788,0.0694994330406189,0.3936781585216522,-0.444596529006958,-1.9307419061660767,-0.135556076412564,0.17852982328404485,0.3750811514904193
2.6050829887390137,0.012567520141601562,0.15700596570968628,0.12465369701385498,0.43122848868370056,-0.5089788436889648,-1.8149033784866333,-0.13469131462574901,0.17117600281568465,0.35574095144727796
2.6154608726501465,0.013907074928283691,0.06980675458908081,0.14981937408447266,0.3883555829524994,-0.5963225364685059,-1.7526969909667969,-0.13357791226843777,0.163159159012583,0.33729047526011885
2.6246190071105957,-0.002339601516723633,-0.03373196721076965,0.1409950852394104,0.26770859956741333,-0.6829350590705872,-1.719367265701294,-0.13303157926682405,0.15439655190058754,0.31944825693358375
2.634582996368408,-0.020723477005958557,-0.09329867362976074,0.11445605754852295,0.04508962854743004,-0.7005367279052734,-1.674005389213562,-0.13404407018373896,0.14516530488198204,0.3022605816481174
2.6452951431274414,-0.0346405953168869,-0.10685724020004272,0.08506268262863159,-0.09906661510467529,-0.714358389377594,-1.5904428958892822,-0.13664005853662778,0.1358846560776712,0.2859499398342543
2.6548471450805664,-0.0542415976524353,-0.13987885415554047,0.05598706007003784,-0.27960020303726196,-0.7165659070014954,-1.493754267692566,-0.14057032491881888,0.12661065530022975,0.270729496313792
2.6645030975341797,-0.077239491045475,-0.19109134376049042,0.03198850154876709,-0.4023408889770508,-0.6836745142936707,-1.402832269668579,-0.14578515741065587,0.11754181642905835,0.2566146007037101
2.674455165863037,-0.1108313724398613,-0.241072878241539,0.04746454954147339,-0.3925287425518036,-0.6023786067962646,-1.3356375694274902,-0.1514258051988661,0.10913569347252794,0.2433195481870952
2.684535026550293,-0.1522694230079651,-0.2598534822463989,0.06694144010543823,-0.3263794183731079,-0.5097362995147705,-1.284845232963562,-0.15642582810876451,0.10158879082108173,0.23049066323896236
2.6944000720977783,-0.17510460317134857,-0.18257823586463928,0.10079526901245117,-0.2255166918039322,-0.4364866018295288,-1.2223237752914429,-0.16048496602813805,0.09490652299412693,0.21811375007954148
2.704529047012329,-0.16595850884914398,-0.08786638081073761,0.1450035572052002,-0.08408470451831818,-0.3926445543766022,-1.1602470874786377,-0.16331377531921973,0.0888409933217346,0.20623857333238327
2.714508056640625,-0.14206823706626892,-0.0747109204530716,0.16844522953033447,0.04101782292127609,-0.35060417652130127,-1.0810084342956543,-0.16440943378370573,0.08327326564850353,0.19492689923773227
2.7244739532470703,-0.12336510419845581,-0.09610289335250854,0.14651918411254883,0.13788633048534393,-0.35626351833343506,-1.0093529224395752,-0.16453232506005597,0.07801852871273758,0.18430282419463606
2.7349979877471924,-0.10813738405704498,-0.11825692653656006,0.14163941144943237,0.21618805825710297,-0.3613424301147461,-0.9709542393684387,-0.16341700238860757,0.07282468554091047,0.17417236207178885
2.746641159057617,-0.09980810433626175,-0.17555736005306244,0.10219943523406982,0.1759142428636551,-0.40703272819519043,-0.9448177814483643,-0.1621372744790213,0.06737102289951377,0.16430273575350315
2.754826068878174,-0.09394979476928711,-0.20458680391311646,0.07378411293029785,0.1942485123872757,-0.39488792419433594,-0.9144798517227173,-0.16095417995088906,0.061782379607929865,0.15481267968271675
2.765249013900757,-0.09146956354379654,-0.23410619795322418,0.07941776514053345,0.1296459585428238,-0.3342593014240265,-0.9044001698493958,-0.1597729946631,0.05659088217884253,0.14546586138810655
2.7754721641540527,-0.11352583765983582,-0.20610977709293365,0.044966816902160645,0.0019100985955446959,-0.2935161292552948,-0.8566845655441284,-0.15962195536249904,0.05213923045668826,0.13650168226322443
2.7849059104919434,-0.10947887599468231,-0.13051599264144897,0.08479684591293335,-0.052022676914930344,-0.26441141963005066,-0.7687142491340637,-0.1603002483404948,0.048009315882456514,0.12827978624353178
2.7970008850097656,-0.09219880402088165,-0.13814222812652588,0.14659470319747925,-0.14909595251083374,-0.22680170834064484,-0.701829731464386,-0.16162648215894443,0.04435991391279988,0.12089473322865357
2.804780960083008,-0.09843766689300537,-0.13493888080120087,0.15280485153198242,-0.2595774829387665,-0.19260521233081818,-0.6350864171981812,-0.16396245891788355,0.04118597280701483,0.11418864432135697
2.8152451515197754,-0.09713508188724518,-0.11316865682601929,0.15868335962295532,-0.35075798630714417,-0.2044839859008789,-0.5660759210586548,-0.16732369372938977,0.03824542205124106,0.1082416384328096
2.8247108459472656,-0.07958424091339111,-0.15104800462722778,0.14770442247390747,-0.41148895025253296,-0.24078765511512756,-0.5362402200698853,-0.1713092166151253,0.035091566277178056,0.10280032882420005
2.835561990737915,-0.060885727405548096,-0.18581464886665344,0.10372418165206909,-0.4914844334125519,-0.25085708498954773,-0.5168330073356628,-0.17604147460780895,0.0317180908018123,0.09760176442121536
2.8461480140686035,-0.04381363093852997,-0.154305562376976,0.05015355348587036,-0.5290485620498657,-0.2462601512670517,-0.4966231882572174,-0.1813137149565104,0.028320907955363663,0.09258113005638328
2.855113983154297,-0.038235317915678024,-0.13760815560817719,0.02222466468811035,-0.49645334482192993,-0.20413373410701752,-0.459033727645874,-0.18663295409856853,0.025186536046467343,0.08785984088145987
2.864784002304077,-0.04340190067887306,-0.13806916773319244,0.0049193501472473145,-0.4109478294849396,-0.16330981254577637,-0.43470191955566406,-0.19128130357533285,0.02252864854786702,0.08341438274462556
2.8748679161071777,-0.05232255905866623,-0.11766834557056427,-0.006358802318572998,-0.3362509608268738,-0.15497252345085144,-0.40996381640434265,-0.1951218918223699,0.02020611357839603,0.07920650563203702
2.884819984436035,-0.04982006922364235,-0.07796542346477509,-0.007300317287445068,-0.22085371613502502,-0.16557864844799042,-0.3631384074687958,-0.19798505210519515,0.017804914137882957,0.0753062515916057
2.8987069129943848,-0.033257920295000076,-0.07513788342475891,-0.009177029132843018,-0.13060930371284485,-0.16628092527389526,-0.33273497223854065,-0.19980150107013672,0.015438202260773509,0.07179000542703823
2.905546188354492,-0.03416281193494797,-0.07365421950817108,-0.021201908588409424,-0.05343424901366234,-0.1557338386774063,-0.31777989864349365,-0.20073206403729243,0.013187748235349626,0.06848066311433917
2.9148550033569336,-0.04721546545624733,-0.0791197270154953,-0.01754617691040039,-0.01578247919678688,-0.1556835025548935,-0.29598137736320496,-0.20112429348221042,0.01098383714425778,0.06535389526697177
2.9247920513153076,-0.04988379031419754,-0.10068395733833313,-0.0026923418045043945,0.0058627622202038765,-0.14050552248954773,-0.2806188464164734,-0.20119021438001483,0.008910679250038437,0.06241761004964111
2.9350709915161133,-0.05060851573944092,-0.10324081778526306,0.004342973232269287,0.01781955547630787,-0.12484853714704514,-0.25948184728622437,-0.2011056027944632,0.0070338965400787495,0.05965157995830786
2.946274995803833,-0.050418611615896225,-0.0977000892162323,0.01186150312423706,0.012631985358893871,-0.11166296154260635,-0.23232027888298035,-0.20094805362273596,0.005344908826757659,0.057140967127996135
2.9549431800842285,-0.043599896132946014,-0.10180933773517609,0.014104127883911133,-0.014791915193200111,-0.09634951502084732,-0.20134025812149048,-0.20098392429986303,0.003851997235825472,0.054918504214184996
2.965139865875244,-0.04150580242276192,-0.10402832925319672,0.0109596848487854,-0.02109403721988201,-0.07352094352245331,-0.16903835535049438,-0.2011618178197175,0.0026181645031073636,0.05302351060574359
2.97483491897583,-0.041098687797784805,-0.11351867020130157,0.009669780731201172,-0.02336305007338524,-0.047932226210832596,-0.1440989226102829,-0.20144148548444832,0.0016888628793605665,0.051425112407566594
2.9849319458007812,-0.04243241250514984,-0.11838331818580627,0.00731503963470459,0.014306847006082535,0.0022948579862713814,-0.11780562996864319,-0.20146967529080578,0.0011657021016481903,0.0500786937128827
2.9972991943359375,-0.042137064039707184,-0.12061697244644165,0.009188830852508545,0.02973773330450058,-0.029422858729958534,-0.1160639226436615,-0.20125763863875318,0.0007863561206457829,0.04882853432211435
3.0049328804016113,-0.035709913820028305,-0.1062183678150177,0.012037158012390137,0.07599347829818726,-0.027545064687728882,-0.07909472286701202,-0.20074954028981076,0.00030028987254502156,0.047853106443223534
3.014975070953369,-0.016707168892025948,-0.08732405304908752,0.018498480319976807,0.12955711781978607,-0.021898362785577774,-0.06464601308107376,-0.19971793582510675,-9.464496516624173e-05,0.047125246546229446
3.0249738693237305,-0.017157742753624916,-0.07330077886581421,0.014429926872253418,0.18217678368091583,-0.0056608025915920734,-0.039030712097883224,-0.19814534558779529,-0.0003509611301579685,0.046563849548421396
3.034891128540039,-0.01800484210252762,-0.05883625149726868,0.01172858476638794,0.18241673707962036,-0.020711392164230347,-0.029962647706270218,-0.19627888576231636,-0.0004828268497156056,0.04623777817840693
3.0464110374450684,-0.012495347298681736,-0.0486520379781723,0.006568551063537598,0.17493942379951477,-0.027666013687849045,0.009561965242028236,-0.19361253271652187,-0.0008879482956353365,0.046110750819135925
3.0548880100250244,-0.0005769075360149145,-0.06016531586647034,0.00548475980758667,0.16266997158527374,-0.015625063329935074,0.01788301020860672,-0.19097814824448214,-0.0011841312169269876,0.04623556903922206
3.0651350021362305,-0.0005118683911859989,-0.05440874397754669,-0.013122260570526123,0.15221324563026428,-0.007699763402342796,0.025732943788170815,-0.18850358863846914,-0.001374051733709205,0.04643071350667038
3.075015068054199,-0.003232404123991728,-0.03741252422332764,-0.017169058322906494,0.12802374362945557,0.021077554672956467,0.03883010521531105,-0.18614503374191568,-0.0013533611475712141,0.04676557795406781
3.085057020187378,-0.0037832993548363447,-0.026618361473083496,-0.016512274742126465,0.0994492843747139,-0.01496824063360691,0.030791034922003746,-0.18415166810575098,-0.0013978126491633956,0.047039936957533696
3.0970921516418457,-0.005990471690893173,-0.0221392959356308,-0.005376040935516357,0.07388134300708771,-0.01357940211892128,0.03677089512348175,-0.18257587003702871,-0.0014804296771832523,0.04742108753864984
3.1050190925598145,3.631750587373972e-05,-0.022094115614891052,0.013988316059112549,0.06836958229541779,-0.020246580243110657,0.014061269350349903,-0.18130425578513618,-0.0016347740425267715,0.04767166793308917
3.1151680946350098,-0.007914271205663681,-0.015411734580993652,0.027868568897247314,0.0536942332983017,-0.02922969125211239,0.0029407076071947813,-0.18031250490028114,-0.0019128923004320248,0.04775666047016247
3.125152111053467,-0.007761253975331783,0.00026841461658477783,0.03613990545272827,0.029393471777439117,-0.03193257376551628,-0.00819237157702446,-0.17962056478543148,-0.0022542700647502586,0.04771715396574012
3.1352150440216064,-0.004387810826301575,0.017517253756523132,0.03353774547576904,-0.0046941908076405525,-0.040144965052604675,-0.012749573215842247,-0.17914882387605438,-0.0025809944603385477,0.047620914571099474
3.147367000579834,0.001260578166693449,0.01909390091896057,0.02413111925125122,-0.01758069545030594,-0.03953137248754501,-0.012980734929442406,-0.1789266670456944,-0.002955723165432793,0.04749906649310063
3.15523099899292,0.005251449532806873,0.01915760338306427,0.011507213115692139,-0.024524886161088943,-0.03422822058200836,-0.012895513325929642,-0.1788619258685826,-0.003320795984566125,0.047384324655705405
3.165130138397217,0.005252054892480373,0.022650986909866333,-0.0018427371978759766,-0.01976831629872322,-0.02917008101940155,-0.023074809461832047,-0.17884731233769952,-0.0036470315228361865,0.047208010985459
3.1751761436462402,0.006865110248327255,0.02216765284538269,-0.0037601590156555176,-0.01004777755588293,-0.027523711323738098,-0.029921529814600945,-0.17881125286420538,-0.003983696017832309,0.04693717371769419
3.185188055038452,0.006546728778630495,0.022277548909187317,0.004011213779449463,0.005984402261674404,-0.029178200289607048,-0.03257371485233307,-0.17860656581660042,-0.004280243791078807,0.04661954341276262
3.1962108612060547,0.005846966058015823,0.025600984692573547,0.014461159706115723,0.007657133974134922,-0.02239539660513401,-0.03385309875011444,-0.17843901502848863,-0.004638906564026124,0.04627714024273775
3.2051680088043213,0.003742670640349388,0.022156566381454468,0.024736642837524414,0.0045976778492331505,-0.012491144239902496,-0.0355517715215683,-0.17848142266378364,-0.0049349832358714365,0.04590949380552931
3.215123176574707,7.353723049163818e-05,0.00830039381980896,0.0329630970954895,0.007132207974791527,0.0006683324463665485,-0.033134154975414276,-0.17880823811845814,-0.00512971712610729,0.04553264313044499
3.2250819206237793,-0.005394888110458851,0.0011094361543655396,0.03175842761993408,0.011266998946666718,0.0047154501080513,-0.02664637379348278,-0.17906048522204607,-0.005155093621849708,0.04522462137359195
3.2354750633239746,-0.005073295906186104,0.0023424923419952393,0.021957814693450928,0.018909204751253128,0.008480627089738846,-0.02875426597893238,-0.17917198224878533,-0.005125358635788035,0.04494506252384283
3.2469801902770996,0.0010995706543326378,0.0013155490159988403,0.02293264865875244,0.03826214745640755,0.01741388998925686,-0.021186307072639465,-0.17909909957923964,-0.005025192530153345,0.04470054048029049
3.2553930282592773,-0.001804156694561243,-0.0014437735080718994,0.027580857276916504,0.04147578403353691,0.02596210315823555,-0.017737779766321182,-0.17887946585576936,-0.0048187774499377995,0.0445055162864929
3.2658729553222656,-0.00543436873704195,0.003104299306869507,0.028024494647979736,0.02909138612449169,0.02603738382458687,-0.014242541044950485,-0.17870793431243223,-0.004571937602719765,0.04435653041447472
3.2753419876098633,-0.0027308021672070026,0.006706252694129944,0.02408355474472046,0.01716548390686512,0.02857590839266777,-0.003839700948446989,-0.17873804706273175,-0.00431116595097551,0.04426622402027217
3.2853031158447266,-0.00034854933619499207,0.0007627904415130615,0.022052526473999023,0.011268063448369503,0.02868194505572319,0.0025444822385907173,-0.1788390188386832,-0.004034044788554985,0.04425866931056046
3.2962889671325684,-0.0007287466432899237,-0.0012080073356628418,0.011706292629241943,0.0022450077813118696,0.02356947585940361,0.011955028399825096,-0.17893450564654817,-0.0037873018661700075,0.04433519832573756
3.305279016494751,0.0010890092235058546,0.004989102482795715,0.006178140640258789,0.012704523280262947,0.0219741091132164,0.016213474795222282,-0.17896343762636324,-0.003603236044706559,0.04446450222916739
3.3153200149536133,-0.0002840189263224602,0.0036939531564712524,0.006244301795959473,0.027548717334866524,0.02582184411585331,0.016296032816171646,-0.17885299626031004,-0.0034018492157978806,0.04462313326513635
3.325309991836548,-0.006691670976579189,0.0036840438842773438,0.002612769603729248,0.03489382937550545,0.020301509648561478,0.013528796844184399,-0.17859949906413855,-0.0031546617700272594,0.04476049772546727
3.335482120513916,-0.012545990757644176,0.003189772367477417,-0.0008243918418884277,0.04078980162739754,0.007157213054597378,0.012645426206290722,-0.17827996676763067,-0.003020075269451285,0.0449049559551865
3.3474080562591553,-0.008988597430288792,0.0009188205003738403,0.00010907649993896484,0.04814976826310158,0.005201876163482666,-0.00012166169472038746,-0.17792072131549141,-0.0030065083542021123,0.04495106865894645
3.3552370071411133,-0.013735034503042698,0.007587864995002747,-0.0069023966789245605,0.05807963013648987,0.001995430327951908,-0.006526297889649868,-0.17753219041827256,-0.0030208318619138466,0.04491270445010386
3.365604877471924,-0.015970412641763687,0.01712760329246521,-0.015190064907073975,0.04242318496108055,-0.010942872613668442,-0.0067602298222482204,-0.17711059115394906,-0.0031058963967306404,0.044827161437456214
3.375375986099243,-0.01402362622320652,0.020594611763954163,-0.014526784420013428,0.04531990736722946,-0.023719120770692825,-0.005844901315867901,-0.1767197402386835,-0.003300743342051855,0.04477072495064034
3.38546085357666,-0.012535031884908676,0.02203059196472168,-0.008176624774932861,0.03935346007347107,-0.03309273719787598,-0.01451258547604084,-0.17643906678600513,-0.0036036920830989304,0.044666681489926946
3.397351026535034,-0.014365339651703835,0.02084699273109436,-0.006735324859619141,0.02834688313305378,-0.04631293565034866,-0.023495161905884743,-0.17621540372605055,-0.004053777980304094,0.044469497396779016
3.405358076095581,-0.01277090609073639,0.0205487459897995,-0.005609333515167236,0.014161071740090847,-0.056453317403793335,-0.028824731707572937,-0.17613085545291773,-0.004696800353404191,0.04419145112486094
3.4155080318450928,-0.012665297836065292,0.016885504126548767,-0.005557894706726074,-0.0006841863505542278,-0.06503535807132721,-0.029663894325494766,-0.176163005574897,-0.005486046174460221,0.04387059850960584
3.425389051437378,-0.012354686856269836,0.009381070733070374,-0.0023159384727478027,-0.00965817365795374,-0.07746867835521698,-0.027068324387073517,-0.17626857369311336,-0.0063286309114514655,0.04358349986262486
3.4357151985168457,-0.011008502915501595,0.006776586174964905,0.0009970664978027344,-0.0052367933094501495,-0.08716684579849243,-0.02245945855975151,-0.17648073042976525,-0.007324327520252053,0.04331345209919118
3.446390151977539,-0.010224415920674801,0.0012906193733215332,0.0024585723876953125,-0.0099852429702878,-0.09365883469581604,-0.020043490454554558,-0.17679890706429807,-0.008415787148746133,0.043076131987605536
