timestamp,accel_x,accel_y,accel_z,rotation_x,rotation_y,rotation_z, pitch,roll,yaw
0.04974079132080078,-0.0022566765546798706,0.008359253406524658,-0.007938742637634277,-0.026525337249040604,-0.06417406350374222,-0.002427758416160941,0.1766037516962769,0.13030222898322633,-0.011552152784285669
0.07021689414978027,-0.0010718107223510742,0.005597814917564392,-0.0049596428871154785,-0.024009980261325836,-0.05988690257072449,0.002243958879262209,0.1763406831595441,0.12967629589767793,-0.011515896650635925
0.0727548599243164,-0.0007623881101608276,0.005501210689544678,-0.0016407966613769531,-0.017858246341347694,-0.060641199350357056,0.005143715068697929,0.17613405156302664,0.1290576049946501,-0.011452090028673218
0.08076786994934082,-0.0011436790227890015,0.008745774626731873,0.001743316650390625,-0.016363946720957756,-0.056423287838697433,0.00214659352786839,0.17597342921485348,0.1284598724844799,-0.011394927698314074
0.08353281021118164,0.00034931302070617676,0.008954748511314392,0.004169881343841553,-0.011762569658458233,-0.04777760058641434,0.0024346942082047462,0.17582922428490425,0.12792770416090188,-0.011354879090719026
0.09071993827819824,-1.8775463104248047e-05,0.009214445948600769,0.008399903774261475,-0.0036865342408418655,-0.0334513895213604,-0.0031121375504881144,0.17575203630633246,0.12752159920212083,-0.011357261936360552
0.09864473342895508,-0.003966882824897766,0.010464191436767578,0.011887848377227783,0.001111916033551097,-0.023304570466279984,-0.009976914152503014,0.1757195345059153,0.1272512417882159,-0.01141342527750323
0.10863494873046875,-0.0029562413692474365,0.009828910231590271,0.01573789119720459,0.00706274900585413,-0.020020626485347748,-0.015841728076338768,0.17574072816274286,0.127060602179862,-0.011544560371878941
0.11870884895324707,-0.001563437283039093,0.009280607104301453,0.02087104320526123,0.01390624139457941,-0.018706444650888443,-0.021491996943950653,0.1758192381349404,0.12690179254561396,-0.011746758087021802
0.12865686416625977,0.0008104592561721802,0.011385798454284668,0.020292818546295166,0.01887143775820732,-0.007473763544112444,-0.02340760827064514,0.17595818541566186,0.1268178316103951,-0.011990966228710997
0.13875579833984375,-0.0015494003891944885,0.010792315006256104,0.018929719924926758,0.02336898446083069,0.0069717541337013245,-0.02424277551472187,0.17613030217119036,0.12686323067723665,-0.012253008793428338
0.14874601364135742,-0.0035859346389770508,0.00828292965888977,0.01725482940673828,0.026517372578382492,0.016408931463956833,-0.022751405835151672,0.17634024557372144,0.1270315311896429,-0.012516410398029665
0.1587357521057129,-0.003353111445903778,0.011267676949501038,0.013365030288696289,0.03527011722326279,0.020143482834100723,-0.022652069106698036,0.17661315236156827,0.12725247465142853,-0.012783345851073566
0.1688227653503418,0.000679314136505127,0.009783744812011719,0.010929346084594727,0.03367621824145317,0.019727230072021484,-0.019039491191506386,0.17693476139665082,0.12749003400660436,-0.013034588707833026
0.17906904220581055,0.0017165541648864746,0.00895199179649353,0.00983339548110962,0.02536928653717041,0.015049921348690987,-0.018186215311288834,0.17720588535409776,0.12769977238324498,-0.013251235297792032
0.18912982940673828,0.0010447949171066284,0.006830960512161255,0.011643826961517334,0.010801278054714203,0.016960695385932922,-0.01781901903450489,0.17736084961621792,0.1278912868152757,-0.013450412247097318
0.19913387298583984,-0.000402987003326416,0.0006331652402877808,0.010394752025604248,0.0005891211330890656,0.013967035338282585,-0.014391263946890831,0.1773890787497855,0.1280776540528569,-0.013627101031242095
0.20915699005126953,0.00014425814151763916,0.0010157972574234009,0.00811767578125,-0.0017576564569026232,0.013441594317555428,-0.011640750803053379,0.17718875454782632,0.12826271194136726,-0.013769697732314836
0.21901488304138184,0.0009116232395172119,0.005323395133018494,0.00318145751953125,0.0022190087474882603,0.012047871947288513,-0.007700071670114994,0.17703841898716086,0.12841099787145002,-0.013873899826864445
0.22919392585754395,0.0020292550325393677,0.007834568619728088,-0.0022498369216918945,0.005913878325372934,0.010409762151539326,-0.0009745245915837586,0.1769697937589378,0.12849935787441988,-0.013910042890281164
0.23894596099853516,0.0013294517993927002,0.00989997386932373,-0.005530834197998047,0.01827535778284073,0.008891715668141842,0.003727552480995655,0.17692883462147405,0.12855879015979046,-0.013906884770917952
0.2489147186279297,0.0022878646850585938,0.00929972529411316,-0.007960855960845947,0.02363150753080845,0.0026884148828685284,0.008680766448378563,0.17700111447530656,0.12861031412547716,-0.013868560815168879
0.25890493392944336,0.0007390528917312622,0.010378390550613403,-0.005917608737945557,0.01877032220363617,-0.0036353059113025665,0.011172419413924217,0.17708933830310808,0.12862020533363244,-0.013796720884702946
0.2689528465270996,0.0009414702653884888,0.005202993750572205,-0.0025905370712280273,0.00663403095677495,-0.011368859559297562,0.01022699661552906,0.17713311928929984,0.1285545486938751,-0.013715325714196048
0.27900075912475586,0.0003435760736465454,-0.001102164387702942,-0.00014293193817138672,0.0010225505102425814,-0.017094654962420464,0.007672865409404039,0.17720729618171302,0.12840282604321185,-0.01363332237135655
0.2890138626098633,-0.0011081695556640625,-0.0032839328050613403,0.004458010196685791,-0.006503542885184288,-0.019761545583605766,0.008977815508842468,0.17720754634148247,0.12821749484313222,-0.013550674183019567
0.2990138530731201,-0.004993945360183716,-0.0020302236080169678,0.005537211894989014,-0.010917033068835735,-0.017822053283452988,0.012900863774120808,0.1770240390107907,0.1280203471860221,-0.013436091054657076
0.3089790344238281,-0.004882380366325378,-0.002167254686355591,0.005310654640197754,-0.007500197272747755,-0.01770860143005848,0.017664726823568344,0.1767918574977013,0.12783824833870866,-0.013279249004698337
0.31910276412963867,-0.004502326250076294,0.0023105591535568237,0.0035706758499145508,-0.0015086843632161617,-0.014600959606468678,0.02544424682855606,0.17658194705264904,0.12764735788314552,-0.013065873383526876
0.3290119171142578,-0.006876006722450256,0.006260529160499573,0.005736351013183594,0.011727758683264256,-0.001715787686407566,0.03233250975608826,0.17648686230672891,0.12754456860930716,-0.012786747117116427
0.33902692794799805,-0.00904439389705658,0.007487863302230835,0.006414949893951416,0.016621848568320274,0.0020493892952799797,0.035517919808626175,0.17647810437003306,0.12749915779453241,-0.012458719114176536
0.34915971755981445,-0.011816754937171936,0.012492135167121887,0.010328531265258789,0.01659681461751461,0.008611418306827545,0.03380843624472618,0.1766014677717136,0.12751276378378887,-0.012134233444469166
0.3592100143432617,-0.012957677245140076,0.009775310754776001,0.015704751014709473,0.023458566516637802,0.014749960042536259,0.03138410672545433,0.17686420735148822,0.12759334527860083,-0.011837891805463178
0.3693349361419678,-0.013935580849647522,0.012415468692779541,0.015338361263275146,0.021666260436177254,0.02086297981441021,0.026800008490681648,0.17720561404411647,0.12772757424694442,-0.011569762633497434
0.37917590141296387,-0.014030680060386658,0.019276663661003113,0.012010157108306885,0.015851929783821106,0.020956411957740784,0.01892823725938797,0.17747930074478369,0.12784690064360518,-0.01135418891314764
0.38930487632751465,-0.011155709624290466,0.02105790376663208,0.00929170846939087,0.011242530308663845,0.015454055741429329,0.012116403318941593,0.17767674430655206,0.12795442227688347,-0.011211226172900868
0.3992269039154053,-0.0075962841510772705,0.01860886812210083,0.009412884712219238,0.005239516496658325,0.014392120763659477,0.009570315480232239,0.17771550206417883,0.12802923994682194,-0.011105429318716723
0.4092738628387451,-0.007726401090621948,0.019136369228363037,0.009099721908569336,-0.0017451564781367779,0.011207511648535728,0.008871767669916153,0.17764682157670614,0.12806714935140237,-0.010995611944393094
0.41944074630737305,-0.009092837572097778,0.023106232285499573,0.007896482944488525,-0.01107599027454853,0.004629104398190975,0.0055473437532782555,0.17747891902467067,0.12804061901306885,-0.010893713857541946
0.42931699752807617,-0.007564723491668701,0.020647108554840088,0.009248673915863037,-0.02148149348795414,0.0018258611671626568,0.004980889614671469,0.177150873428748,0.12793697993498393,-0.01079985871364184
0.4396679401397705,-0.006228998303413391,0.015441030263900757,0.009721219539642334,-0.028387635946273804,0.000200001522898674,0.00699258828535676,0.1768069813186474,0.1278112734939746,-0.010695210343715478
0.4491567611694336,-0.009093627333641052,0.016255825757980347,0.013092637062072754,-0.03719710558652878,0.004921786021441221,0.009723393246531487,0.17636367039006978,0.12770322880776383,-0.010547423853633607
0.45926594734191895,-0.01313762366771698,0.014484092593193054,0.015827715396881104,-0.031829021871089935,0.014141605235636234,0.011966148391366005,0.1758349848898549,0.12767595880860566,-0.010381944787671153
0.4695298671722412,-0.015654295682907104,0.013781026005744934,0.013986527919769287,-0.019620027393102646,0.017890537157654762,0.01473210658878088,0.17541538004092525,0.12772784252680605,-0.01018217786273818
0.4794039726257324,-0.014740869402885437,0.020120158791542053,0.010516345500946045,-0.01335182785987854,0.018376164138317108,0.013606122694909573,0.17511229508259318,0.12783246289501646,-0.010000650248861738
0.48940181732177734,-0.010181307792663574,0.02097479999065399,0.004048645496368408,-0.005703495815396309,0.009617294184863567,0.01455287728458643,0.17488001764442831,0.12789255869937524,-0.009844109133665083
0.4993288516998291,-0.004852399230003357,0.019907206296920776,0.0036930441856384277,-0.0061250245198607445,0.007113789673894644,0.01360846683382988,0.17464811345847572,0.12788360971304552,-0.009678637520546967
0.5094048976898193,-0.005581870675086975,0.020907089114189148,0.004179418087005615,-0.016971280798316002,0.010520771145820618,0.009198803454637527,0.1743773939853578,0.12790567667623295,-0.009534185382518908
0.5194978713989258,-0.005470365285873413,0.012195602059364319,0.001366734504699707,-0.025946350768208504,0.00307577196508646,-0.0006592062418349087,0.17403785966615812,0.1279244436695208,-0.009456777233848218
0.5293989181518555,-0.005127310752868652,0.008492827415466309,0.0015578269958496094,-0.0312817245721817,-0.002011398319154978,-0.010880152694880962,0.17359378177858215,0.1278600263615256,-0.009457280964140346
0.5396878719329834,-0.004011377692222595,0.011501774191856384,0.002929210662841797,-0.03118651732802391,0.00014984514564275742,-0.013883558101952076,0.17314755605041024,0.12775417852907664,-0.00951648172501349
0.5494418144226074,-0.006119281053543091,0.012522995471954346,-0.0011182427406311035,-0.02926664613187313,0.006553948391228914,-0.017164573073387146,0.17269717766776885,0.12766822608947137,-0.009603609834181305
0.5594329833984375,-0.009431853890419006,0.008228883147239685,-0.0017673969268798828,-0.014298181980848312,0.009692927822470665,-0.018206721171736717,0.17222606042902047,0.1276435369860367,-0.00973098132110066
0.5694580078125,-0.010779976844787598,0.005879640579223633,-0.003452777862548828,0.0017108777537941933,0.010521704331040382,-0.014962991699576378,0.1718859466720703,0.12767263921482405,-0.009882266048512589
0.5794787406921387,-0.011479094624519348,0.008656591176986694,-0.004731118679046631,0.010940329171717167,0.014491146430373192,-0.010106184519827366,0.17169996416238026,0.12777495072295258,-0.009999751681444924
0.589465856552124,-0.01036912202835083,0.0036590993404388428,-0.005927383899688721,0.010096639394760132,0.017527682706713676,-0.008606025949120522,0.17155260763409963,0.12790058742277707,-0.010096805196454572
0.5994699001312256,-0.010821640491485596,-0.004527270793914795,-0.007253885269165039,0.012650578282773495,0.02220463566482067,-0.003029739251360297,0.17151386789995685,0.12806611799561063,-0.010162916731149642
0.6095137596130371,-0.011262968182563782,-0.009605780243873596,-0.007159113883972168,0.01205216534435749,0.01978728547692299,0.0006017473060637712,0.17154754126389066,0.12823741099621555,-0.010182149428041042
0.6195859909057617,-0.008924439549446106,-0.009686499834060669,-0.007840991020202637,0.01312242355197668,0.008173860609531403,0.006000187713652849,0.17154303783040056,0.12832696503406799,-0.01015810361045575
0.6297197341918945,-0.004945546388626099,-0.006159469485282898,-0.005697786808013916,0.016848186030983925,-0.004883085377514362,0.009569622576236725,0.17154533016672271,0.1282683026761462,-0.010095904387542555
0.6413619518280029,0.0010188370943069458,-0.004994064569473267,-0.008151352405548096,0.01211404986679554,-0.014578767120838165,0.01168513111770153,0.17159759064086416,0.12805269619792184,-0.009994135085242878
0.6495058536529541,-0.0004764646291732788,-0.0013196766376495361,-0.010346710681915283,0.0056084804236888885,-0.017704252153635025,0.014252418652176857,0.17162555854622236,0.12775662132220722,-0.009851676619515092
0.6596858501434326,-0.0027336180210113525,-0.002108246088027954,-0.008088409900665283,-0.005652063526213169,-0.025464171543717384,0.010943334549665451,0.17152211874215934,0.12740965493088752,-0.009700805575696754
0.6696269512176514,-0.005440011620521545,0.00026345252990722656,-0.0020368099212646484,-0.00589893851429224,-0.029795270413160324,0.0054449718445539474,0.17140492470350166,0.12700686686388604,-0.009585359292196574
0.6795830726623535,-0.008503958582878113,0.00229741632938385,0.008152008056640625,0.0008957174140959978,-0.021497037261724472,0.0006250231526792049,0.1714250119045063,0.12664511319050276,-0.009529227122928375
0.6896209716796875,-0.016788244247436523,0.009959310293197632,0.014905452728271484,0.011144892312586308,0.0011989530175924301,-0.0048626866191625595,0.17159736063133627,0.12646031807023042,-0.009543216150508824
0.6996560096740723,-0.024977385997772217,0.02125389873981476,0.010882437229156494,0.02789900451898575,0.020780999213457108,-0.016102397814393044,0.17187926094481862,0.1265240437153747,-0.009665235976039995
0.7097387313842773,-0.026929527521133423,0.028352215886116028,0.003520369529724121,0.05373113602399826,0.04065510258078575,-0.02709006704390049,0.17231593924992852,0.12684495515521516,-0.009929765149312961
0.7196319103240967,-0.025853171944618225,0.031154468655586243,-0.002382516860961914,0.07563215494155884,0.0547015480697155,-0.032157957553863525,0.1729610288695689,0.12741303709172078,-0.010319295475308746
0.7296638488769531,-0.02287931740283966,0.036999136209487915,-0.00840538740158081,0.07661832869052887,0.048895590007305145,-0.03904995322227478,0.1736586827675641,0.12800824570406583,-0.010778419625480878
0.7396879196166992,-0.016051411628723145,0.03598658740520477,-0.007278323173522949,0.06341657042503357,0.0368654727935791,-0.054109010845422745,0.17428831216784202,0.12849935208161622,-0.01133258222254846
0.7496318817138672,-0.00928361713886261,0.021300002932548523,-0.004736363887786865,0.04296482354402542,0.016070710495114326,-0.06104361638426781,0.17471440915687383,0.12881320601031748,-0.011973242754125198
0.75996994972229,-0.0031548738479614258,0.012956559658050537,-0.003706514835357666,0.015266017988324165,-0.005348650272935629,-0.06069287657737732,0.17487253112909823,0.12890035564275337,-0.01261354895240868
0.7698240280151367,0.0033113062381744385,0.007319137454032898,-0.006335735321044922,-0.007935441099107265,-0.026625176891684532,-0.05685952305793762,0.17469504791034404,0.1286968075561439,-0.01318802757432251
0.7797408103942871,0.01187346875667572,-0.0020969659090042114,-0.008242607116699219,-0.024778736755251884,-0.04836047440767288,-0.04641050100326538,0.17418228610727057,0.12818318204557946,-0.01364972572413192
0.7903199195861816,0.018249720335006714,-0.006865993142127991,-0.010766923427581787,-0.038615722209215164,-0.06869104504585266,-0.031999338418245316,0.17344573914527417,0.1274188029449188,-0.013964361893768163
0.8019669055938721,0.022418901324272156,-0.00765615701675415,-0.008147120475769043,-0.051641859114170074,-0.08402903378009796,-0.018561242148280144,0.1725661571541338,0.1264586216461731,-0.014129270208191757
0.809844970703125,0.02251484990119934,-0.011054664850234985,-0.002209484577178955,-0.04898402467370033,-0.08235177397727966,-0.0037902845069766045,0.17159470664009066,0.12543363662090612,-0.014147238855529416
0.8198480606079102,0.016101650893688202,-0.014637485146522522,0.004215121269226074,-0.05120101943612099,-0.08137284219264984,0.011059395037591457,0.17066865149653415,0.1244661362735555,-0.014017920427196682
0.8298768997192383,0.010445795953273773,-0.011565253138542175,0.015437602996826172,-0.027975594624876976,-0.0716288685798645,0.019608940929174423,0.1700700880660382,0.12360547706774784,-0.0138009376223529
0.83980393409729,0.008688442409038544,-0.011861756443977356,0.024079322814941406,-0.007878432981669903,-0.06483305990695953,0.032860830426216125,0.16983118633095448,0.12288543766310653,-0.013514899766813034
0.8497898578643799,0.0053200796246528625,-0.004382729530334473,0.028653740882873535,-0.0008586067706346512,-0.04789908230304718,0.038455329835414886,0.16980248613618595,0.12231937125241116,-0.013161547051353728
0.8599529266357422,0.003259427845478058,-0.003373846411705017,0.03433489799499512,-0.00498961890116334,-0.021823320537805557,0.038410112261772156,0.1698817265237435,0.12204100746038014,-0.012786647387361969
0.8699560165405273,0.0010947957634925842,-0.00971345603466034,0.033558428287506104,-0.011703713797032833,0.0019429964013397694,0.03999549150466919,0.1699517936128093,0.12205591068499148,-0.012407150353765203
0.8798418045043945,0.0003060847520828247,-0.00797329843044281,0.03131842613220215,-0.0012051006779074669,0.016979025676846504,0.035675738006830215,0.17002987949675177,0.12230228137706375,-0.012054994203425167
0.8899040222167969,0.005691222846508026,-0.0025815367698669434,0.03216552734375,0.003344377502799034,0.014233572408556938,0.03300858289003372,0.17022114140587863,0.12260394431554442,-0.011742192344554208
0.8999979496002197,0.010170109570026398,0.004276096820831299,0.036848247051239014,-0.0059063620865345,0.016846001148223877,0.029771137982606888,0.1704289734729281,0.12283412124097035,-0.011439677749066617
0.909888744354248,0.009256541728973389,0.0025947988033294678,0.035478830337524414,-0.011242805048823357,0.03186383470892906,0.022598711773753166,0.1704880344058123,0.12309858753722734,-0.011182147353047544
0.9199137687683105,0.006373018026351929,-0.0050081610679626465,0.031628310680389404,-0.016830099746584892,0.0448467880487442,0.01928211748600006,0.17049936598890536,0.12350408145467599,-0.010963163909664503
0.9298977851867676,0.0034100934863090515,-0.005014762282371521,0.025923311710357666,-0.018456492573022842,0.05272175371646881,0.016947589814662933,0.17039975609724303,0.12400399806006594,-0.0107660890400092
0.9399459362030029,0.0014168992638587952,-0.0014193207025527954,0.021931350231170654,-0.007303489372134209,0.05216901749372482,0.018179887905716896,0.1703475926332003,0.12452755789224447,-0.010583057502348336
0.951746940612793,0.004462249577045441,0.0007983744144439697,0.017024576663970947,-0.0013973974855616689,0.04896816238760948,0.01935620605945587,0.1704147858970275,0.1250036978769763,-0.010391407153343963
0.9599809646606445,0.001002781093120575,0.004645109176635742,0.012242436408996582,-0.004955880343914032,0.05424521490931511,0.01953655667603016,0.1704627585414331,0.12548411786428182,-0.010202159461013454
0.9701437950134277,-0.0038796663284301758,-0.0018038302659988403,0.0067983269691467285,-0.004572384990751743,0.05829907953739166,0.0222612377256155,0.170483859377014,0.1260460351423755,-0.009994782271407151
0.979949951171875,-0.009012803435325623,-0.0038756132125854492,0.004253983497619629,-0.004993529990315437,0.06340178847312927,0.027409818023443222,0.17047185294454964,0.12664519823885817,-0.009739135334258957
0.990062952041626,-0.012191399931907654,-0.0018848329782485962,0.0031107068061828613,-0.005671038292348385,0.061588969081640244,0.028286531567573547,0.1704636118795572,0.12725864698640088,-0.009451201528196004
1.0015487670898438,-0.013401210308074951,-0.0013827681541442871,-0.002337038516998291,0.01272730901837349,0.055758602917194366,0.030359428375959396,0.17058598178323495,0.12782777411798243,-0.009163834024960845
1.0106709003448486,-0.00977402925491333,0.002280399203300476,-0.007994771003723145,0.023532819002866745,0.04020867124199867,0.0293066818267107,0.17086576635705222,0.12827561901486995,-0.008891617418125343
1.0211188793182373,-0.009255409240722656,0.0074834078550338745,-0.009702086448669434,0.019678326323628426,0.03304050490260124,0.03228580206632614,0.17115974139759615,0.12859462594948562,-0.008608064781316111
1.0300538539886475,-0.010223403573036194,0.004876554012298584,-0.012197673320770264,0.01008029468357563,0.028117120265960693,0.029475366696715355,0.17136346101526917,0.12887148482218505,-0.008321348332645258
1.0400867462158203,-0.010544180870056152,0.002174481749534607,-0.01664966344833374,-0.0020913006737828255,0.01682118885219097,0.026424502953886986,0.17139316861237777,0.12904426623464757,-0.00803026281968537
1.0527219772338867,-0.011956453323364258,0.00174713134765625,-0.017040789127349854,-0.0052807023748755455,0.009945971891283989,0.020470207557082176,0.17140852666649214,0.12910012302619123,-0.007785203313466877
1.0600359439849854,-0.012944802641868591,0.002840474247932434,-0.018729865550994873,-0.0074360487051308155,0.003240355523303151,0.019525157287716866,0.17141866390420044,0.12904995158699925,-0.007555813572569068
1.0701408386230469,-0.01630401611328125,0.008724331855773926,-0.01870858669281006,-0.0055976686999201775,-0.002975728828459978,0.016643350943922997,0.17139704167681025,0.12891124149381228,-0.007341056519162608
1.0800819396972656,-0.01696932315826416,0.011952593922615051,-0.016132771968841553,-0.00035973009653389454,-0.01137995533645153,0.011385471560060978,0.1713903434143688,0.1287018957819142,-0.007177100185478047
1.0901389122009277,-0.01786482334136963,0.01129409670829773,-0.012383639812469482,0.00984443724155426,-0.011804996058344841,0.0073502506129443645,0.17140343065103375,0.12847870987103394,-0.0070751534969667055
1.101529836654663,-0.018605276942253113,0.011428728699684143,-0.009541749954223633,0.01954716630280018,-0.01354403980076313,0.00510872108861804,0.1714471470524184,0.12826929855448388,-0.007024374354170455
1.1102080345153809,-0.018761679530143738,0.015423193573951721,-0.009651601314544678,0.01877804473042488,-0.02045867033302784,0.0052677118219435215,0.17156762640223974,0.12801043333337941,-0.0069773990799112074
1.1205930709838867,-0.016771256923675537,0.01586395502090454,-0.004105508327484131,0.010500824078917503,-0.02178763411939144,0.002315331483259797,0.17165878964013148,0.12770889102337812,-0.00694888973924067
1.1301238536834717,-0.014347836375236511,0.009600356221199036,-0.0015808939933776855,0.020504988729953766,-0.017838964238762856,0.004385939333587885,0.17174409509485747,0.12741690587472587,-0.006924424537593657
1.1414809226989746,-0.013814449310302734,0.00859709084033966,-0.0013564229011535645,0.0243753120303154,-0.027207745239138603,0.007548283785581589,0.1719183397815358,0.12709359770298084,-0.00686307095893996
1.153151035308838,-0.012750044465065002,0.017330333590507507,0.0027281641960144043,0.01949240453541279,-0.03956560790538788,0.006811919622123241,0.17201654764898291,0.12663117984975017,-0.006801412194640396
1.1609010696411133,-0.008513011038303375,0.015043273568153381,0.008155465126037598,0.026150023564696312,-0.041237764060497284,0.009309218265116215,0.1720802794146964,0.126091203782204,-0.006730165888008294
1.171010971069336,-0.008367359638214111,0.012400463223457336,0.011883974075317383,0.03372139111161232,-0.036722905933856964,0.012393691577017307,0.17224755040027187,0.12557119447146192,-0.006644310438093722
1.1802978515625,-0.01329406350851059,0.018708691000938416,0.011866748332977295,0.02057274989783764,-0.03709277883172035,0.008525025099515915,0.17236241547171532,0.1250566413881392,-0.006557124625334695
1.1902868747711182,-0.011359438300132751,0.016129404306411743,0.014752089977264404,0.012397644110023975,-0.030346723273396492,0.008329814299941063,0.17233088775552322,0.12459097428088983,-0.006479739033680582
1.201673984527588,-0.009679049253463745,0.01151113212108612,0.016461551189422607,0.010932755656540394,-0.02942735329270363,0.012959454208612442,0.17227415484676165,0.1241663460300905,-0.006359630402016898
1.2102859020233154,-0.013600260019302368,0.01918192207813263,0.022419333457946777,-0.0026709376834332943,-0.021091662347316742,0.00831569917500019,0.17222323014457006,0.12380594256367775,-0.006239754669465247
1.2202658653259277,-0.015118815004825592,0.016443878412246704,0.026937484741210938,-0.016269704326987267,-0.011008311063051224,0.006844409741461277,0.17203058070937088,0.12356019310258523,-0.006147130724117419
1.2304177284240723,-0.013702303171157837,0.013480037450790405,0.023404479026794434,-0.02273479476571083,-0.006289989221841097,0.0019612377509474754,0.1716551926691515,0.1233986664455013,-0.00606741154008513
1.241023063659668,-0.011184625327587128,0.01816907525062561,0.019799649715423584,-0.02475142292678356,-0.005387221463024616,-0.006576537154614925,0.17128819284820754,0.12331278748672421,-0.006053609690067762
1.2517879009246826,-0.008694082498550415,0.019374430179595947,0.018315136432647705,-0.01878141425549984,-0.0047752270475029945,-0.00892517901957035,0.17099387415754524,0.1232562292806284,-0.006100182383428977
1.260455846786499,-0.007042579352855682,0.0209338515996933,0.01838696002960205,-0.019692914560437202,-0.022282669320702553,-0.011873457580804825,0.17068728144723427,0.12309003270389907,-0.0061717514930339475
1.2703628540039062,-0.0037618204951286316,0.020589858293533325,0.021429359912872314,-0.03406412899494171,-0.040292032063007355,-0.019831249490380287,0.17033821291472492,0.12277045372817431,-0.006293199604808377
1.2802519798278809,-0.00013891607522964478,0.016032308340072632,0.02518916130065918,-0.05174214392900467,-0.05547244846820831,-0.021871550008654594,0.16983218512192996,0.12228506017478813,-0.006444239000589602
1.2903459072113037,0.0019499287009239197,0.007401213049888611,0.030031681060791016,-0.054003700613975525,-0.060865618288517,-0.014571825973689556,0.16921843222780938,0.12169675934920643,-0.006555708761124793
1.3016748428344727,-0.0010969489812850952,0.0055921971797943115,0.03253048658370972,-0.0662858709692955,-0.07260554283857346,-0.010221552103757858,0.16854424148505068,0.12100722064846163,-0.006612804722878486
1.310384750366211,-0.00222073495388031,0.012371793389320374,0.024972081184387207,-0.08179692178964615,-0.07846768945455551,-0.018335938453674316,0.16775966744755122,0.12022167410730923,-0.006648843443036082
1.3203678131103516,0.0015924051403999329,-0.0018009543418884277,0.02174520492553711,-0.06523812562227249,-0.08104415982961655,-0.006213814951479435,0.16692672436336592,0.11938023217093319,-0.006694415125707272
1.33046293258667,-0.000462263822555542,-0.0006377995014190674,0.029368221759796143,-0.05466431379318237,-0.0436006560921669,-0.0027815327048301697,0.16635773906763607,0.11880238611921988,-0.006699550837734454
1.3404459953308105,-0.014665663242340088,0.017066121101379395,0.04085904359817505,-0.07142672687768936,-0.05610974133014679,0.0400550402700901,0.16572719182388826,0.11824189575742167,-0.0064181899930598136
1.352151870727539,-0.022816643118858337,0.012816190719604492,0.06641203165054321,-0.11027426272630692,-0.0695967897772789,0.0463653989136219,0.16477545412668992,0.11752494638228649,-0.005869986883506243
1.360381841659546,-0.009554043412208557,-0.02627447247505188,0.07238894701004028,-0.10970882326364517,-0.15285301208496094,0.056232038885354996,0.1637570141368538,0.11634991571456876,-0.005209148464463817
1.370487928390503,-0.010573618113994598,-0.01721872389316559,0.10297727584838867,-0.1257796734571457,-0.21208570897579193,0.08503226190805435,0.16269736273203433,0.1144120311738175,-0.00439398082488763
1.3802947998046875,-0.0069278329610824585,-0.0027938783168792725,0.11887258291244507,-0.2575080394744873,-0.31578806042671204,0.11144144833087921,0.16098655732044231,0.11156503806379017,-0.0031540962497928022
1.390570878982544,0.0010137483477592468,-0.022376522421836853,0.13410735130310059,-0.5070616602897644,-0.345529168844223,0.11867965012788773,0.15748819908907888,0.10799768740308106,-0.0015685607948839218
1.4015378952026367,-0.008068829774856567,-0.05626973509788513,0.17730778455734253,-0.8873556852340698,-0.4302728474140167,0.04882482811808586,0.1507057641088921,0.10400699567486163,4.230498539602238e-05
1.4104249477386475,-0.025597304105758667,-0.0577981173992157,0.20255392789840698,-1.1570781469345093,-0.4195767939090729,0.0798163041472435,0.14023189263807456,0.09952128316083834,0.0017060394648107068
1.4204750061035156,-0.042983219027519226,-0.08372138440608978,0.168199360370636,-1.6526210308074951,-0.3668642044067383,-0.011610337533056736,0.1265773174487682,0.09523369315384579,0.0034221591543261197
1.4303579330444336,-0.07564583420753479,-0.1569688618183136,0.14067214727401733,-2.277649164199829,-0.21137873828411102,-0.10789799690246582,0.10681449983672871,0.09213917749239603,0.004647749278937413
1.4403738975524902,-0.11262709647417068,-0.25755205750465393,0.2130882740020752,-2.6429247856140137,-0.06450144946575165,-0.08873367309570312,0.08187967420332519,0.0905316588066781,0.0058727288568115954
1.451375961303711,-0.159237802028656,-0.289695680141449,0.20216810703277588,-2.805629014968872,0.1881539672613144,-0.1378769874572754,0.05467672115916293,0.09100247478864994,0.007214392116042901
1.460442066192627,-0.17997145652770996,-0.1489170789718628,0.16421663761138916,-3.119901418685913,0.28260165452957153,-0.16439658403396606,0.025218942611864952,0.09348259579494604,0.008491628402221238
1.4704358577728271,-0.14129473268985748,-0.11610530316829681,0.18161314725875854,-3.668541669845581,0.24841544032096863,-0.2952778935432434,-0.00880555527399594,0.09608186028343661,0.009451777547246864
1.4805479049682617,-0.06232167035341263,-0.22108876705169678,0.23442554473876953,-3.9873173236846924,0.3017243444919586,-0.354483962059021,-0.047568427300709676,0.09884910579566387,0.009849958463824058
1.4904518127441406,-0.04713720083236694,-0.2452627718448639,0.23651456832885742,-4.126834869384766,0.3001362979412079,-0.37115880846977234,-0.08853322841976631,0.10197280406008973,0.010253202912034154
1.5010578632354736,-0.04362732172012329,-0.1233096569776535,0.1479594111442566,-4.39530086517334,0.23003354668617249,-0.40569302439689636,-0.1311313712901332,0.1046825735488708,0.010812217477092233
1.5104038715362549,0.004852496087551117,0.00910729169845581,0.05954807996749878,-4.817311763763428,0.09994319826364517,-0.43102023005485535,-0.17735253561282274,0.10649789430409064,0.011496783983863798
1.5204849243164062,0.06371508538722992,-0.024290665984153748,0.017788290977478027,-5.257165431976318,0.017945442348718643,-0.46446678042411804,-0.2280128940556793,0.1072763689428115,0.012464607727968584
1.5304548740386963,0.08886053413152695,-0.1230822205543518,0.0013661384582519531,-5.674140930175781,-0.06270386278629303,-0.5390691161155701,-0.28298724234485145,0.10728511586469901,0.013369244822256484
1.540496826171875,0.0769038125872612,-0.07823345065116882,-0.023422658443450928,-6.031294822692871,-0.214650958776474,-0.6143730878829956,-0.3418569494046669,0.10602366550773622,0.013853095064734911
1.5511958599090576,0.06219915300607681,-0.004662424325942993,-0.02999359369277954,-6.3179707527160645,-0.30876147747039795,-0.6135466694831848,-0.404122552065881,0.1035209333514526,0.014233998274916585
1.56048583984375,0.0624818280339241,-0.021513372659683228,-0.04425406455993652,-6.576695442199707,-0.38266468048095703,-0.646312952041626,-0.4689141882738451,0.10020165017290959,0.014607134253000469
1.5705528259277344,0.048385247588157654,-0.03802973031997681,-0.07569092512130737,-6.893216133117676,-0.46816813945770264,-0.7124395370483398,-0.5367279222774933,0.09579551519207409,0.014371341074737674
1.5810317993164062,0.030766047537326813,-0.014083147048950195,-0.04470151662826538,-7.110988616943359,-0.5054648518562317,-0.7009108662605286,-0.6072381982293059,0.0905496306815418,0.013735349609608094
1.5946297645568848,0.017055608332157135,-0.022580385208129883,-0.027447879314422607,-7.252354621887207,-0.5321992635726929,-0.6932258009910583,-0.6794946438030863,0.08490503262908736,0.012941738769813756
1.6043267250061035,0.00632273405790329,0.005116820335388184,-0.03792804479598999,-7.28886079788208,-0.5935012698173523,-0.6949416995048523,-0.7526471082176606,0.07846974227999984,0.011667116458151322
1.6106889247894287,0.010109301656484604,0.03975754976272583,-0.03288942575454712,-7.199572563171387,-0.6272805333137512,-0.724246084690094,-0.8257225471229253,0.07055410194689274,0.00925102234324978
1.6206269264221191,0.021703768521547318,0.039758145809173584,-0.04405498504638672,-6.81605863571167,-0.6083251237869263,-0.6814716458320618,-0.8963824024753543,0.061534975575274285,0.005570623247090613
1.630526065826416,0.025683879852294922,0.09617966413497925,-0.11282050609588623,-6.338595390319824,-0.6563275456428528,-0.6636066436767578,-0.9624580134855054,0.051118992407493215,0.000536646099134643
1.6414580345153809,0.03577004000544548,0.17820101976394653,-0.1338302493095398,-5.820126056671143,-0.6582914590835571,-0.6269449591636658,-1.0234399581314042,0.038822203594355814,-0.006208164040845252
1.6522598266601562,0.04173688590526581,0.17168748378753662,-0.14496386051177979,-5.477824687957764,-0.602191686630249,-0.6709870100021362,-1.080106657664922,0.024343939272383597,-0.01563688335269111
1.660928726196289,0.02261918969452381,0.14318615198135376,-0.14309370517730713,-5.280500411987305,-0.5362458229064941,-0.7074892520904541,-1.1340077602511414,0.006443309531629355,-0.029262232668674178
1.67091703414917,-0.0059551065787673,0.14627152681350708,-0.08380115032196045,-5.306652545928955,-0.498455286026001,-0.7445127964019775,-1.1868248454171937,-0.0159974786337936,-0.04810793310715107
1.6808137893676758,-0.0097544826567173,0.11909925937652588,-0.045330584049224854,-5.3253655433654785,-0.44377416372299194,-0.7887664437294006,-1.239990739823185,-0.04566599879648962,-0.07464599028019799
1.6911988258361816,0.008888868615031242,0.05189049243927002,-0.022562026977539062,-5.2147321701049805,-0.31401270627975464,-0.8349877595901489,-1.2922116672254857,-0.0866989521748039,-0.11365450395773324
1.7018928527832031,-0.005240194499492645,0.0484539270401001,-0.013106152415275574,-4.874441623687744,-0.2672887444496155,-0.7842625379562378,-1.3416219558599496,-0.14298895247072513,-0.16882497610822148
1.7108418941497803,-0.031079120934009552,0.13665181398391724,-0.00387553870677948,-4.456338405609131,-0.23088333010673523,-0.7507621049880981,-1.3861837880704644,-0.22194828162999206,-0.24693035415389003
1.7208747863769531,-0.013219550251960754,0.14173853397369385,-0.031324803829193115,-4.0507917404174805,-0.18852922320365906,-0.6816056966781616,-1.4251390048409716,-0.33570770848224507,-0.36011723973022414
1.730860948562622,-0.001256462186574936,0.13218873739242554,-0.06301385164260864,-3.7491390705108643,-0.13325956463813782,-0.613355815410614,-1.458181562328187,-0.505861761129045,-0.5300268339234193
1.7410469055175781,-0.0027900002896785736,0.10302233695983887,-0.07697153836488724,-3.465240955352783,-0.053409699350595474,-0.561039388179779,-1.4840059267284103,-0.7696577175738817,-0.794147454520998
1.7521488666534424,-0.013489589095115662,0.05279672145843506,-0.07906962186098099,-3.314760208129883,0.010992994531989098,-0.5844408273696899,-1.4987367014223867,-1.1621233621417095,-1.1876239882244166
1.7609279155731201,-0.03376203030347824,0.0008944272994995117,-0.056656718254089355,-3.2507705688476562,0.039881631731987,-0.566548228263855,-1.4988333332002524,-1.6279251298925588,-1.6548231720750313
1.7709569931030273,-0.023967444896697998,-0.021773934364318848,-0.03349900618195534,-3.291698932647705,0.08766726404428482,-0.553084135055542,-1.4850033557736122,-2.0138561422900927,-2.042594564164359
1.780958890914917,-0.0005827248096466064,-0.04731708765029907,-0.0363084152340889,-3.253793954849243,0.08859279751777649,-0.515123188495636,-1.462625897172921,-2.2673976551616835,-2.298228372526773
1.7910919189453125,0.012293078005313873,-0.03088057041168213,-0.04367099702358246,-3.175614356994629,0.047543372958898544,-0.4559064507484436,-1.436373836128918,-2.428503498261717,-2.461166196393948
1.8019800186157227,0.03296040743589401,-0.013044774532318115,-0.07412336766719818,-3.057546615600586,0.07511041313409805,-0.4548701047897339,-1.4089845825598908,-2.5318696439583097,-2.566229116633214
1.8110668659210205,0.03659897297620773,-0.03380155563354492,-0.11209392547607422,-3.0393753051757812,0.059241704642772675,-0.4074237644672394,-1.3809243199356458,-2.6040126952489326,-2.6402479241778063
1.8210010528564453,0.03121863305568695,-0.005451619625091553,-0.10095521807670593,-2.951599597930908,0.05533493682742119,-0.3945348262786865,-1.3528944646080143,-2.657561975137881,-2.6954579764821616
1.8310399055480957,0.03858838975429535,-0.02230745553970337,-0.08647558093070984,-2.9379162788391113,0.12466554343700409,-0.3937199115753174,-1.324668274490318,-2.6975344648602824,-2.7374609253084317
1.841062068939209,0.02342335134744644,-0.0668756365776062,-0.07542778551578522,-2.6429972648620605,0.09836212545633316,-0.4091375470161438,-1.29750169131779,-2.7267623633151263,-2.768914674553644
1.8520050048828125,0.017572417855262756,-0.02471715211868286,-0.01652538776397705,-2.249778985977173,0.0674436166882515,-0.3957463800907135,-1.2733329547755718,-2.74602271604132,-2.789848001398781
1.8610329627990723,0.03505542129278183,0.04051363468170166,-0.011246830224990845,-1.9015626907348633,0.013684608042240143,-0.2898988425731659,-1.2527811671729134,-2.760408268596814,-2.8053414592509465
1.8710558414459229,0.052032098174095154,0.13711929321289062,-0.030875563621520996,-1.6097079515457153,0.026945551857352257,-0.2697714567184448,-1.2356048086412639,-2.771629906350532,-2.8173763630474284
1.8810529708862305,0.04501447081565857,0.12440496683120728,-0.04684200882911682,-1.520635724067688,0.0291312076151371,-0.26746299862861633,-1.2200076038407008,-2.779807476702731,-2.8263804552067806
1.8911747932434082,0.03007660061120987,0.03306621313095093,-0.009009629487991333,-1.3920423984527588,0.033851128071546555,-0.22848843038082123,-1.2054643269932241,-2.7869638875322944,-2.83434743058524
1.902513027191162,0.03460778295993805,0.029924631118774414,0.02297171950340271,-1.2210686206817627,0.018911637365818024,-0.15527647733688354,-1.1924818859711854,-2.793532765476313,-2.8417165819063372
1.9112279415130615,0.03830224275588989,0.07907599210739136,0.013724327087402344,-0.9557905793190002,-0.01576138846576214,-0.125392347574234,-1.181794056208401,-2.7995358180197822,-2.848187838185812
1.9212329387664795,0.036770254373550415,0.08842587471008301,0.012214601039886475,-0.8494673371315002,0.011077815666794777,-0.09344789385795593,-1.172927548691393,-2.804189252143279,-2.853186527079569
1.9311909675598145,0.016673043370246887,0.03291165828704834,0.008883178234100342,-0.6520631909370422,0.01898846961557865,-0.027458490803837776,-1.1655559761582377,-2.8086279034400436,-2.8581773140339655
1.9413478374481201,0.005622565746307373,0.036282896995544434,0.004904210567474365,-0.3745683431625366,0.016280479729175568,-0.03442723676562309,-1.1606331087184842,-2.8116637624361376,-2.861691818079108
1.9526147842407227,0.0029646605253219604,0.025629699230194092,-0.016029953956604004,-0.12641525268554688,-0.031510744243860245,0.04982665553689003,-1.1582351473363517,-2.8136283125083885,-2.8637955502531818
1.9611709117889404,0.008879005908966064,0.04619556665420532,-0.007640719413757324,0.10088924318552017,-0.10732783377170563,0.08670733869075775,-1.1584710548687265,-2.815953611385298,-2.865551040075059
1.971329927444458,0.019985973834991455,0.06880217790603638,-0.005666613578796387,0.06303320825099945,-0.11327840387821198,0.10564720630645752,-1.1596704059843368,-2.8184531156744623,-2.867033967184598
1.9811718463897705,0.008785098791122437,-0.008286893367767334,-0.021476805210113525,-0.02954927459359169,-0.1380060762166977,0.13444700837135315,-1.1602096177292547,-2.822311638012508,-2.869867419204586
1.9912729263305664,0.00399383157491684,-0.048921167850494385,-0.008403927087783813,-0.14414270222187042,-0.14807309210300446,0.09983522444963455,-1.1598281051062183,-2.826902379190387,-2.873262356675737
2.0021328926086426,0.005326583981513977,-0.059205710887908936,-0.013647735118865967,-0.2407136857509613,-0.15257924795150757,0.09061403572559357,-1.158188859005081,-2.8318654250661,-2.87707038379336
2.0112600326538086,0.006525300443172455,-0.057801783084869385,-0.02600732445716858,-0.21526771783828735,-0.16265451908111572,0.06758834421634674,-1.156251780421942,-2.836788635559204,-2.88069617254518
2.0212860107421875,0.012670107185840607,-0.016244351863861084,-0.02844896912574768,-0.2088398039340973,-0.13935302197933197,0.061369165778160095,-1.1544178463436543,-2.841108249433451,-2.883755279410013
2.031259059906006,0.008440673351287842,0.022891521453857422,-0.04402214288711548,-0.2260528802871704,-0.12937308847904205,0.04047533869743347,-1.1525432459240534,-2.84497730057452,-2.886541807299985
2.041402816772461,0.007471635937690735,0.03737509250640869,-0.029366493225097656,-0.23236185312271118,-0.13937978446483612,0.04112323373556137,-1.150436630307463,-2.8487035326006995,-2.8891519348335253
2.0526809692382812,0.010022170841693878,0.029549360275268555,0.007566511631011963,-0.2141527533531189,-0.12101035565137863,0.021993746981024742,-1.1483424549550638,-2.852161426265645,-2.8914846868282167
2.061357021331787,0.00677124410867691,0.02318340539932251,0.014694064855575562,-0.15334366261959076,-0.11825992912054062,0.007807674817740917,-1.1466412868279077,-2.854832174179887,-2.8931232922754915
2.07218074798584,-0.01122448593378067,0.03768354654312134,0.023221701383590698,-0.17895475029945374,-0.10709036886692047,-0.013038484379649162,-1.1451132099244796,-2.856880079056329,-2.8941351984386983
2.081296920776367,-0.012042887508869171,0.0249330997467041,0.0255776047706604,-0.17958441376686096,-0.10082754492759705,-0.018344033509492874,-1.1432556021541729,-2.858749547921363,-2.895046123906564
2.091481924057007,-0.010346531867980957,-0.0017895698547363281,0.033269137144088745,-0.14189882576465607,-0.09127026051282883,-0.0346074253320694,-1.1416498023666433,-2.8600683568683354,-2.895438758300921
2.1030728816986084,-0.016085512936115265,0.007018923759460449,0.010751664638519287,-0.09349656105041504,-0.0734233483672142,-0.026802871376276016,-1.1406139790622518,-2.860915877644008,-2.895472723728818
2.111254930496216,-0.02327381819486618,0.025336027145385742,-0.00353848934173584,-0.08978518098592758,-0.06755880266427994,-0.03279311954975128,-1.139976996543043,-2.861319116574912,-2.8951842357349657
2.121363878250122,-0.02337557077407837,0.017057418823242188,0.007849633693695068,-0.05122440680861473,-0.07803231477737427,-0.012083527632057667,-1.1395218096441027,-2.861932904955141,-2.8950717456438047
2.1314468383789062,-0.012199699878692627,0.01771479845046997,0.011268198490142822,-0.0007471200078725815,-0.06951604783535004,-0.008428606204688549,-1.1393364378662716,-2.862639894298162,-2.8950252756249464
2.141571044921875,-0.013492636382579803,0.020168185234069824,0.0051715075969696045,0.07266396284103394,-0.05956874415278435,0.012369723059237003,-1.139709503670696,-2.8631572251649224,-2.8948934224709193
2.152498722076416,-0.025074005126953125,0.028199970722198486,0.011871516704559326,0.14422176778316498,-0.05951681360602379,0.012632843106985092,-1.140792444037071,-2.8632815451773244,-2.89437813232354
2.1615169048309326,-0.023311488330364227,0.02873384952545166,0.016745448112487793,0.2185051292181015,-0.07270665466785431,0.036739084869623184,-1.1425167463992323,-2.8633300508655917,-2.893727699426393
2.171565055847168,-0.01979874074459076,0.023156702518463135,0.029231369495391846,0.2102445363998413,-0.06031150370836258,0.03267989307641983,-1.144597840120993,-2.8634719656808083,-2.893120424760176
2.1815099716186523,-0.019194968044757843,0.021386027336120605,0.022652268409729004,0.03166032209992409,-0.01614426076412201,0.01930864155292511,-1.1457818235265664,-2.8636267045231456,-2.8928690862597843
2.1916518211364746,-0.02251812070608139,-0.01697397232055664,0.018296778202056885,-0.1055033951997757,0.026675906032323837,-0.015063445083796978,-1.145373276876292,-2.863760401193287,-2.893120866787928
2.20338773727417,-0.02122616022825241,-0.050638437271118164,0.02344498038291931,-0.10135263949632645,0.03699854016304016,-0.03444822132587433,-1.144163540748504,-2.8633819988955027,-2.893102515798795
2.211483955383301,-0.017792262136936188,-0.020912587642669678,0.026771903038024902,0.0021271465811878443,0.031483400613069534,-0.012424146756529808,-1.1435331230118693,-2.862818460870989,-2.89286674945857
2.2215657234191895,-0.011354945600032806,0.04355800151824951,0.018529146909713745,0.08114852756261826,0.0341753214597702,-0.022533664479851723,-1.1439327977848905,-2.8617663714083834,-2.892092648353022
2.2315587997436523,-0.013852901756763458,0.044983863830566406,0.005387842655181885,0.06424704194068909,0.023964498192071915,-0.02642427757382393,-1.144580784681292,-2.860346753916621,-2.8908721752419395
2.241626739501953,-0.015309944748878479,0.004603445529937744,0.02083343267440796,-0.022165609523653984,0.012352848425507545,-0.020761065185070038,-1.1446313593772623,-2.859372611776593,-2.8900411529410546
2.2525129318237305,-0.004625372588634491,-0.02771979570388794,0.029162168502807617,-0.002965283812955022,-0.0027845585718750954,-0.02786185033619404,-1.1442376422706322,-2.8589239728747478,-2.8896123051121307
2.261530876159668,-0.002097293734550476,-0.034347593784332275,0.014725089073181152,0.05237269029021263,-0.004346724133938551,-0.027057791128754616,-1.144287637931936,-2.858135787311169,-2.8887035835162496
2.2715797424316406,-0.008675433695316315,-0.015523076057434082,-0.012930154800415039,0.07026540488004684,-0.005708398763090372,-0.01751595176756382,-1.1446315447347084,-2.857227150200422,-2.8876771839711366
2.2816410064697266,-0.011061124503612518,0.0013273954391479492,-0.012068688869476318,0.04310567304491997,0.0063143083825707436,-0.009291736409068108,-1.1447679310390309,-2.85661432350818,-2.88698369830784
2.2917990684509277,-0.0033681318163871765,-0.018698394298553467,-0.01235702633857727,0.04144226387143135,0.012349031865596771,-0.011723202653229237,-1.1448565890608506,-2.856088518609338,-2.8865175287407863
2.302790880203247,-1.6391277313232422e-06,-0.023908138275146484,-0.016728878021240234,0.03345654159784317,0.02466988004744053,-0.006281246431171894,-1.1451677851287159,-2.8554777175880477,-2.8860514643736805
2.3115878105163574,-0.0005659908056259155,-0.018954217433929443,-0.010876715183258057,0.058519016951322556,0.0265471413731575,-0.013403603807091713,-1.1456243216522153,-2.854640729434224,-2.885452284106061
2.3220338821411133,0.00020129233598709106,-0.014262378215789795,-0.005856215953826904,0.12723596394062042,0.0034860316663980484,0.005610726773738861,-1.1463097681419103,-2.853757152418541,-2.8846466784558595
2.331713914871216,0.006930023431777954,0.004926025867462158,0.0070161521434783936,0.1613694280385971,-0.02142251469194889,0.0031515639275312424,-1.1474025430629218,-2.8532339337974566,-2.883938798218858
2.3417558670043945,0.012615062296390533,0.015306413173675537,0.020905256271362305,0.07598553597927094,-0.015495693311095238,-0.012760929763317108,-1.148284175650097,-2.8527465230745257,-2.88312860036549
2.352715015411377,0.005283154547214508,-0.026355087757110596,0.035218894481658936,-0.011903035454452038,-0.005148247350007296,-0.027775831520557404,-1.1484454840169156,-2.8521158687262878,-2.8823571980782727
2.3617188930511475,-0.0009975358843803406,-0.05573016405105591,0.037039995193481445,0.011715574190020561,-0.013095296919345856,-0.04150969907641411,-1.148412620019148,-2.8513065970429885,-2.881406584152977
2.3718619346618652,0.0003983825445175171,-0.026672005653381348,0.029189079999923706,0.02626761980354786,-0.026818566024303436,-0.01562350895255804,-1.1485116352022389,-2.8506782470346947,-2.880518861022705
2.3816447257995605,0.007791861891746521,0.010885953903198242,0.012047946453094482,0.011512093245983124,-0.009337177500128746,-0.024907182902097702,-1.1486827237327344,-2.8503099552579303,-2.879900281774233
2.391808032989502,0.007788956165313721,0.007548391819000244,-0.0034553110599517822,-0.0038895001634955406,0.008600011467933655,-0.03806426376104355,-1.1485984949935395,-2.8495572302180068,-2.8790905994836566
2.4028239250183105,-0.008072912693023682,-0.02271956205368042,0.005603790283203125,0.03350787237286568,-0.001726839691400528,-0.017124945297837257,-1.148547337111382,-2.848833795499476,-2.8783560581111667
2.4117279052734375,-0.0029251426458358765,-0.010692775249481201,0.02012532949447632,0.13154229521751404,-0.022127186879515648,0.0002242174232378602,-1.1492480822571256,-2.848504215655422,-2.8778032507511058
2.421751022338867,0.006283260881900787,0.021934211254119873,0.014862298965454102,0.2002984881401062,-0.014397893100976944,0.00829737726598978,-1.1506961162108869,-2.848093833737932,-2.8770663282390645
2.431764841079712,-0.0036680176854133606,0.015336394309997559,0.00944596529006958,0.2519145607948303,-0.01010940596461296,0.01754120923578739,-1.15224777190965,-2.8475564995580847,-2.8762736724588738
2.441833019256592,-0.008232481777668,0.004170536994934082,0.013716816902160645,0.2518460154533386,-0.01599530316889286,0.008746705949306488,-1.1538558918028834,-2.8468170404487276,-2.8752282118562267
2.4524989128112793,-0.009348295629024506,-0.006783008575439453,0.02934497594833374,0.1391945779323578,-0.0020717638544738293,0.0025319531559944153,-1.1552085042787241,-2.8460887778642543,-2.874253862711814
2.461840867996216,-0.009466312825679779,-0.024396300315856934,0.02841627597808838,-0.02318095788359642,0.02001773752272129,-0.01319928653538227,-1.1555604962777606,-2.8458353015373357,-2.874025782518091
2.4718079566955566,-0.010449878871440887,-0.040141761302948,0.024672329425811768,-0.10194101184606552,0.043691907078027725,-0.034285396337509155,-1.1548005254333455,-2.845548573796082,-2.8740454021840716
2.481739044189453,-0.01475503295660019,-0.05027955770492554,0.01699775457382202,-0.046586960554122925,0.03918517380952835,-0.03020585887134075,-1.153721998961804,-2.8449186759795664,-2.8738481626221253
2.49186372756958,-0.010776080191135406,-0.00979316234588623,-0.005963355302810669,-0.011036159470677376,0.025132205337285995,-0.008383918553590775,-1.15314573536171,-2.8444991065860004,-2.873717109843742
2.502307891845703,-0.002230629324913025,0.03650236129760742,-0.014066845178604126,-0.018024593591690063,0.019860032945871353,-0.016222134232521057,-1.152956084382246,-2.844274131130196,-2.8736749966355837
2.511882781982422,-0.0029043927788734436,0.01114422082901001,0.0027774572372436523,-0.04913697391748428,0.026949100196361542,-0.023903222754597664,-1.1525004444616809,-2.8438873474432116,-2.8735013429647487
2.5220947265625,-0.009452849626541138,-0.02462172508239746,0.00958871841430664,0.001414301572367549,0.02382330596446991,-0.020759254693984985,-1.152048381224126,-2.8433417919316204,-2.8731842115818695
2.5319437980651855,-0.012341246008872986,-0.008237779140472412,0.004385411739349365,0.07843638211488724,0.012402605265378952,-0.023296713829040527,-1.152058384965233,-2.8425219172696763,-2.872478844494957
2.541872978210449,-0.00882413238286972,0.013266682624816895,-0.0010879337787628174,0.11062963306903839,-0.0005515427328646183,-0.016218725591897964,-1.1525717570298957,-2.8415166735715403,-2.871415513147817
2.552304744720459,-0.0026471763849258423,0.012020409107208252,0.00890609622001648,0.12327698618173599,0.009899767115712166,-0.009040973149240017,-1.1531986695606231,-2.8406142071229588,-2.870432354388989
2.5618839263916016,-0.002916857600212097,0.0034856796264648438,0.012014925479888916,0.13978146016597748,0.020113255828619003,-0.02514180727303028,-1.1540024114672853,-2.8392484994904343,-2.8690954495108216
2.5719637870788574,-0.013152755796909332,0.0003331899642944336,0.007756471633911133,0.07821450382471085,0.026801785454154015,-0.021426696330308914,-1.1549682105809522,-2.837648709801578,-2.867615204768096
2.5819039344787598,-0.011294171214103699,-0.010672211647033691,0.015144050121307373,-0.030822429805994034,0.05340161174535751,-0.03607989102602005,-1.1553935971686093,-2.836283849587161,-2.866588682430367
2.5921077728271484,-0.0037725791335105896,-0.03457683324813843,0.01621958613395691,-0.03297373279929161,0.07090684026479721,-0.041998233646154404,-1.1548879712355702,-2.835103025801906,-2.865987263065005
2.602306842803955,-0.008488453924655914,-0.029330193996429443,0.016074955463409424,0.0319344624876976,0.07627497613430023,-0.03252531215548515,-1.1544784517489668,-2.8336170016232245,-2.8651702114773627
2.611938953399658,-0.008688077330589294,0.01054149866104126,0.008025169372558594,0.08155447244644165,0.06536506861448288,-0.02174457162618637,-1.1548544814395012,-2.8318825639677603,-2.86405032825472
2.622076988220215,-0.0017690062522888184,0.03386425971984863,0.0032593607902526855,0.046172019094228745,0.08278418332338333,-0.02269691601395607,-1.155440663579952,-2.830128535152425,-2.862936539953645
2.632174015045166,-0.0026060640811920166,0.005750298500061035,0.011134952306747437,0.0563247874379158,0.09260965138673782,-0.03195140138268471,-1.1557235695524728,-2.828405254947786,-2.8620146975721186
2.6441779136657715,-0.0061759501695632935,-0.011812806129455566,0.019627690315246582,0.12648940086364746,0.08157581835985184,-0.0305439755320549,-1.1563301407826734,-2.82632353938892,-2.860664998389613
2.6535398960113525,-0.002846255898475647,0.00890052318572998,0.019073128700256348,0.19683758914470673,0.08428531885147095,-0.017622316256165504,-1.157678563637397,-2.823791825281477,-2.8588007359841194
2.662163734436035,0.002153247594833374,0.03016972541809082,0.006660968065261841,0.25618186593055725,0.10230337083339691,-0.016184262931346893,-1.1594719167938514,-2.8209659026534912,-2.856726698696697
2.67214298248291,-0.00014577805995941162,0.023117244243621826,0.003425121307373047,0.34954243898391724,0.09915073215961456,-0.0024042692966759205,-1.1618524945182196,-2.817793702635718,-2.854325351779766
2.6821749210357666,0.0028896331787109375,0.029157638549804688,0.010348290205001831,0.43008410930633545,0.1072034165263176,0.001681499183177948,-1.165131591801677,-2.814091403433963,-2.8513785205634963
2.6922178268432617,0.007668405771255493,0.037517547607421875,0.0015986859798431396,0.49389877915382385,0.12391821295022964,0.007027528714388609,-1.1693330946149494,-2.8096492357999114,-2.8477899155044475
2.7026777267456055,0.007134392857551575,0.029443681240081787,0.002293705940246582,0.6185432076454163,0.14747147262096405,0.02450638823211193,-1.1745243778487022,-2.8044524052253426,-2.8435810770928347
2.712064743041992,0.009800121188163757,0.03542989492416382,0.0021792352199554443,0.7683878540992737,0.11638572812080383,0.03419683128595352,-1.1811263072748661,-2.7982775677366347,-2.838343307617383
2.722698926925659,0.009551599621772766,0.05977320671081543,0.008837521076202393,0.6699251532554626,0.14186684787273407,0.11042528599500656,-1.1878339791943602,-2.792991171761681,-2.833938787440577
2.73219895362854,0.0032601654529571533,0.05117034912109375,0.03011348843574524,0.6247281432151794,0.18436184525489807,0.05602303519845009,-1.1941648021952875,-2.787897046179414,-2.830198978193954
2.7439448833465576,-0.008475244045257568,-0.03559613227844238,0.029693812131881714,0.7553439140319824,0.1963828206062317,0.08446399122476578,-1.200746255033646,-2.7814117511825374,-2.8253276636671893
2.7543787956237793,-0.006067216396331787,-0.02074223756790161,0.010827183723449707,1.0777102708816528,0.1585230529308319,0.1642128974199295,-1.2096903182289016,-2.7742148272296046,-2.8195276401024247
2.762150764465332,0.017269402742385864,0.10037249326705933,-0.0028675496578216553,1.4463995695114136,0.16067220270633698,0.2136218249797821,-1.2221900639757244,-2.7650430963616004,-2.811425406102558
2.772325038909912,0.013173006474971771,0.12802749872207642,-0.0018745362758636475,1.8459738492965698,0.17007474601268768,0.28808993101119995,-1.2383453188729627,-2.7525184166432783,-2.799905907386022
2.7820539474487305,0.001624777913093567,0.1261318325996399,0.02214372158050537,2.4193952083587646,0.12664933502674103,0.38521578907966614,-1.2591841025521564,-2.735753147997601,-2.7838259201830136
2.7921228408813477,0.016639776527881622,0.16712301969528198,0.03844389319419861,3.130707025527954,0.16158707439899445,0.47600749135017395,-1.286395491996044,-2.7104559925502576,-2.75879658715536
2.803107738494873,0.022864677011966705,0.201277494430542,0.016807645559310913,4.051698684692383,0.1809021681547165,0.5402799844741821,-1.3206990059574928,-2.668641352181252,-2.7172990250055866
2.8122220039367676,-0.003906644880771637,0.21114474534988403,0.06704315543174744,4.75389289855957,0.16533254086971283,0.5224469304084778,-1.3622041925628674,-2.5931979315998177,-2.6414975806509875
2.822467803955078,-0.03370394557714462,0.1845760941505432,0.13077518343925476,5.138310432434082,0.32568883895874023,0.6398690938949585,-1.4061398451948355,-2.4651092315211227,-2.513719808656786
2.8322620391845703,-0.04151549190282822,0.16615062952041626,0.16592538356781006,5.619209289550781,0.3476961553096771,0.6754776835441589,-1.4488302636105732,-2.2270378597017246,-2.276773215116029
2.8429880142211914,-0.022694967687129974,0.1160936951637268,0.21204650402069092,6.334269046783447,0.35074537992477417,0.7334737181663513,-1.4799380098723174,-1.7314719312608746,-1.78204193286715
2.8535380363464355,0.0018701553344726562,0.11345690488815308,0.2223813533782959,7.055255889892578,0.38466259837150574,0.7865595817565918,-1.473254619854807,-0.9991400141377363,-1.0504100982105862
2.862285852432251,0.01292390376329422,0.14415240287780762,0.18709731101989746,7.7646050453186035,0.42521077394485474,0.8631512522697449,-1.42386210595321,-0.5243865064485707,-0.576490863095143
2.872314929962158,0.005274169147014618,0.17550253868103027,0.196366548538208,8.247812271118164,0.4921477138996124,0.8842320442199707,-1.3532460003600915,-0.3005522901310512,-0.3537349231524475
2.8821449279785156,-0.01454659178853035,0.1952870488166809,0.22106260061264038,8.550043106079102,0.48802462220191956,0.8295481204986572,-1.2733749205691292,-0.18652830423892003,-0.24109008540999238
2.8924479484558105,-0.03824671357870102,0.20071351528167725,0.30960530042648315,8.654289245605469,0.5914708375930786,0.8088198900222778,-1.1893618453818555,-0.12074206883177852,-0.17720695702837036
2.9031848907470703,-0.048979613929986954,0.18715530633926392,0.3520851731300354,8.693313598632812,0.6722580194473267,0.7608882784843445,-1.103592545245609,-0.07793503641662498,-0.13714437719480588
2.912327766418457,-0.060164254158735275,0.16585993766784668,0.34259188175201416,8.671670913696289,0.7999526262283325,0.7013226747512817,-1.0172203731590759,-0.04776450525148383,-0.11104069635803211
2.922360897064209,-0.07502418756484985,0.16259998083114624,0.3255702257156372,8.497552871704102,0.9123091697692871,0.671639084815979,-0.9314531559566633,-0.024455932010589043,-0.09329359674038856
2.932455062866211,-0.08427953720092773,0.18159335851669312,0.33246922492980957,8.200106620788574,0.9386835098266602,0.6379993557929993,-0.847810464028365,-0.005457873559501245,-0.08083990780317123
2.9424257278442383,-0.08290095627307892,0.15069133043289185,0.36497533321380615,7.732239246368408,0.9316037893295288,0.5548909306526184,-0.7678845656253256,0.010032969709392252,-0.072450069295411
2.953618049621582,-0.06929614394903183,0.083851158618927,0.3957917094230652,7.036341667175293,0.7899119257926941,0.5309685468673706,-0.6939956426669515,0.022440458163832895,-0.06682242436262524
2.9624269008636475,-0.048680976033210754,0.04252421855926514,0.40966206789016724,6.355920314788818,0.6252626776695251,0.4361419677734375,-0.6266604028882644,0.031848758677943616,-0.0628764303599229
2.97278094291687,-0.022115197032690048,-0.06589889526367188,0.35953962802886963,5.629882335662842,0.5915137529373169,0.3259398341178894,-0.5666219966211192,0.03906200096769997,-0.06091984217865253
2.9822959899902344,-0.03476830571889877,-0.13253411650657654,0.2688443660736084,5.0497236251831055,0.5401157140731812,0.24273186922073364,-0.5130896992895297,0.04510656126113383,-0.06022024794373238
2.9923548698425293,-0.04627712070941925,-0.12630721926689148,0.20170044898986816,4.392638206481934,0.46657443046569824,0.18734797835350037,-0.4657312708682743,0.0500554161983125,-0.06037874492998524
3.003303050994873,-0.045668892562389374,-0.13422420620918274,0.16114020347595215,3.7727200984954834,0.4213118553161621,0.15294426679611206,-0.42494398027479935,0.054257107095300044,-0.060849373710685675
3.0127487182617188,-0.033454202115535736,-0.1277698278427124,0.13443809747695923,3.380776882171631,0.4194830656051636,0.13817116618156433,-0.3892163329765164,0.05824179120939583,-0.06146997858740298
3.0249509811401367,-0.030867911875247955,-0.10057511925697327,0.1052546501159668,3.1402642726898193,0.35402411222457886,0.13079406321048737,-0.3566213795576816,0.06189918726260268,-0.06212255764008447
3.0323567390441895,-0.03348188102245331,-0.05815193057060242,0.10239660739898682,2.9274868965148926,0.267339289188385,0.14186614751815796,-0.3262049657818442,0.06480488974618347,-0.06274794379639696
3.042451858520508,-0.026008538901805878,-0.039057254791259766,0.09926474094390869,2.7195730209350586,0.18326067924499512,0.15816757082939148,-0.2978833866437645,0.06695364458206393,-0.06308647882741825
3.0534279346466064,-0.011047132313251495,-0.037125229835510254,0.09099948406219482,2.4907398223876953,0.15282101929187775,0.1462605744600296,-0.27175024743161924,0.06854596047897762,-0.06335085139084756
3.062513828277588,-0.012843109667301178,-0.04453340172767639,0.09041082859039307,2.2182257175445557,0.10874756425619125,0.1587837189435959,-0.24812118230527513,0.06983099458099226,-0.06346580080938771
3.073096752166748,-0.01417948305606842,-0.06389474868774414,0.09165501594543457,1.9546449184417725,0.08062351495027542,0.16577637195587158,-0.22714350588335855,0.07078867643670297,-0.06329898053718841
3.0825419425964355,-0.003966584801673889,-0.09725978970527649,0.09123963117599487,1.7399537563323975,0.06980611383914948,0.16876088082790375,-0.20863325976901081,0.07161962746249553,-0.06294178385104023
3.092651844024658,-0.002835214138031006,-0.08907446265220642,0.06907403469085693,1.6047061681747437,0.06999599933624268,0.1960955560207367,-0.19185752858294647,0.07243321882134042,-0.06232172868089567
3.1033120155334473,-0.007162906229496002,-0.06228119134902954,0.05341559648513794,1.713683843612671,0.13636991381645203,0.24671544134616852,-0.17522166503240605,0.07363301660452327,-0.06135379415609477
3.112679958343506,-0.01821982115507126,-0.01399184763431549,0.022114157676696777,1.9588277339935303,0.16152027249336243,0.3596164286136627,-0.1567532914111902,0.07545965416600474,-0.059649602151349485
3.122631072998047,-0.02417464554309845,0.10040368139743805,-0.020714282989501953,2.251126289367676,0.10106780380010605,0.4344104528427124,-0.13534540139250867,0.07715644224921478,-0.05725592007448755
3.1327199935913086,0.0003667697310447693,0.15396912395954132,-0.021074950695037842,2.3750786781311035,0.04150540754199028,0.47884687781333923,-0.11182770432132189,0.07815765359856866,-0.05447752357844923
3.1427619457244873,0.022098205983638763,0.12214892357587814,-0.008510947227478027,2.291902780532837,0.0679720789194107,0.4922874867916107,-0.08795582818895081,0.0789662997113759,-0.05143027077900794
3.1523969173431396,0.0171598419547081,0.055240847170352936,0.0016037821769714355,1.971868634223938,0.14313073456287384,0.4712604880332947,-0.06620637638338862,0.08022397301616586,-0.048291378233376384
3.1627049446105957,-0.012526333332061768,-0.02037227526307106,0.030682802200317383,1.5890352725982666,0.26971638202667236,0.4278886318206787,-0.048131272762716774,0.0824324455229123,-0.04524014706946376
3.1727590560913086,-0.0384758859872818,-0.09666340798139572,0.047583580017089844,1.409279704093933,0.4122687578201294,0.39971718192100525,-0.03293333721027415,0.08599170633217187,-0.04238585108049406
3.1827168464660645,-0.0438084602355957,-0.0913577526807785,0.04613596200942993,1.3173184394836426,0.43796658515930176,0.3836209774017334,-0.019062704103136624,0.09039569541709971,-0.03967017871475487
3.1928577423095703,-0.036978259682655334,0.008568119257688522,0.052973151206970215,1.3073039054870605,0.40417346358299255,0.37253689765930176,-0.005637785390378205,0.09464667279961153,-0.03710725763233918
3.2029688358306885,-0.013024508953094482,0.05038413405418396,0.05598026514053345,1.299892783164978,0.39061370491981506,0.32885706424713135,0.007690175826487702,0.09860586546449458,-0.034864708239457066
3.21281099319458,0.0071515291929244995,0.022150682285428047,0.04012507200241089,1.2943321466445923,0.39571258425712585,0.3044033944606781,0.020931563477469353,0.1025169501841596,-0.03304823027906121
3.224792003631592,0.005375169217586517,0.01749161258339882,0.0347597599029541,1.2781999111175537,0.40369558334350586,0.31115350127220154,0.03408456498211621,0.10647517284149893,-0.031324788793681634
3.2326669692993164,-0.0020309090614318848,0.034742213785648346,0.03801846504211426,1.2298582792282104,0.4060431718826294,0.28018492460250854,0.046966561818514684,0.11048569010352408,-0.02970846906162719
3.2426328659057617,-0.005742654204368591,0.012105461210012436,0.04332321882247925,1.1466139554977417,0.3900336027145386,0.2236410528421402,0.05901476458191724,0.11440615784162331,-0.028537840444878667
3.2544360160827637,-0.0041060671210289,-0.03342774510383606,0.05268871784210205,1.0999867916107178,0.3695206046104431,0.18601298332214355,0.07051256534383771,0.11819956418548011,-0.027811238635343207
3.2625269889831543,0.005596369504928589,-0.041410237550735474,0.05175989866256714,1.0231229066848755,0.3279639780521393,0.16096068918704987,0.08122242804491371,0.12166004047777061,-0.027368235155194494
3.272690773010254,0.007808402180671692,-0.0056741684675216675,0.04638606309890747,0.958560049533844,0.2979293763637543,0.14317955076694489,0.09126956345782401,0.12476209852321543,-0.02706648709686844
3.2827539443969727,0.011574387550354004,-0.008654437959194183,0.020663559436798096,0.8985602855682373,0.27955174446105957,0.12184662371873856,0.10061562379581997,0.1276296873797853,-0.026896797558720154
3.292891025543213,0.013698220252990723,-0.020695760846138,0.0035787224769592285,0.8550093173980713,0.2632358968257904,0.10526418685913086,0.10952803039415608,0.13036350675774852,-0.026914205627720157
3.3029799461364746,0.00888293981552124,-0.018853314220905304,-0.003727138042449951,0.7639014720916748,0.241282120347023,0.09017753601074219,0.11769450444580351,0.1328970168310548,-0.027004745736521812
3.312976837158203,0.0027466416358947754,-0.011852309107780457,0.003304600715637207,0.6788478493690491,0.24203713238239288,0.06905627250671387,0.12494719464328051,0.1353297803787015,-0.0271782591942689
3.323119878768921,0.0014808475971221924,-0.03430989384651184,0.004527032375335693,0.5873726010322571,0.24365144968032837,0.04991597682237625,0.1313353423146981,0.13780272031336083,-0.027458812883372704
3.33284592628479,-0.004373028874397278,-0.04052475094795227,0.00030040740966796875,0.46734553575515747,0.23579485714435577,0.03894348815083504,0.1366426607282828,0.1402447853507545,-0.02775669835102001
3.3429019451141357,-0.00889018177986145,-0.027465805411338806,0.006840109825134277,0.32412564754486084,0.23640094697475433,0.026719260960817337,0.1406149704466628,0.14262744069376174,-0.027986699037910862
3.35300874710083,-0.007634878158569336,-0.03729833662509918,0.0034824609756469727,0.20801237225532532,0.25035005807876587,0.021464310586452484,0.1432601861988251,0.14507651692863646,-0.02814475512757632
3.3627920150756836,-0.007113277912139893,-0.04575726389884949,-0.00372159481048584,0.0957174003124237,0.23477299511432648,0.02326146699488163,0.14476559094496477,0.14752148910062096,-0.028137497788231228
3.3728818893432617,-0.005547657608985901,-0.023524686694145203,-0.005919992923736572,0.04248826950788498,0.1954527497291565,0.02885224111378193,0.14546005958328964,0.14966345774497625,-0.02797642395763862
3.3829548358917236,0.0006607323884963989,-0.005418896675109863,0.0013325214385986328,0.003969188313931227,0.14594542980194092,0.025598069652915,0.14573119515948882,0.1513248920011563,-0.027725239900198446
3.392946720123291,0.005280435085296631,-0.018572717905044556,-0.0013849735260009766,-0.03377419710159302,0.11359602212905884,0.017318569123744965,0.14560706488598546,0.15257404064614222,-0.02748598438245298
3.403110980987549,0.006132751703262329,-0.027034103870391846,-0.01252734661102295,-0.06715937703847885,0.09020929783582687,0.016829825937747955,0.1451209000138364,0.15356393247065275,-0.027249956939154423
3.413003921508789,0.0035238116979599,-0.02109237015247345,-0.023974895477294922,-0.027838874608278275,0.06682167947292328,0.030657226219773293,0.14466440401355404,0.1543179115717566,-0.026935680446722024
3.422959804534912,0.004193782806396484,-0.004609912633895874,-0.03596991300582886,0.011245759204030037,0.02772226370871067,0.040337495505809784,0.14465199962948996,0.15474044534509865,-0.026560337216205352
3.433027744293213,0.004167705774307251,0.010798484086990356,-0.037758052349090576,0.034977987408638,-0.006697762291878462,0.04199238494038582,0.1449573857716809,0.15477406817874848,-0.026185230388284755
3.443204879760742,0.002324730157852173,0.009029418230056763,-0.0324363112449646,0.09084940701723099,-0.005405242554843426,0.05730731412768364,0.14565229602791274,0.15464603130023738,-0.02580340480783829
3.4539127349853516,-0.002063855528831482,0.000382155179977417,-0.037586748600006104,0.10730668157339096,-0.01869308575987816,0.07548818737268448,0.14675187328011705,0.15446225094550342,-0.025297357010926558
3.4633588790893555,-0.007991433143615723,0.015642687678337097,-0.0334281325340271,0.10555870831012726,-0.03646986186504364,0.08105776458978653,0.1479414466897722,0.15407554873191903,-0.024660055751878504
3.473066806793213,-0.008028790354728699,0.011196762323379517,-0.019115567207336426,0.0795699879527092,-0.04373949393630028,0.07540041208267212,0.14917006172271519,0.15359582099023486,-0.024020284530547525
3.483285903930664,-0.009991750121116638,-0.009976610541343689,-0.009759306907653809,0.017576824873685837,-0.043170198798179626,0.06063445657491684,0.14999378583967274,0.15307855999235606,-0.023401103082946555
3.493285894393921,-0.01610560715198517,-0.016951829195022583,0.0030497312545776367,-0.07613528519868851,-0.03637727349996567,0.040397629141807556,0.14991467639482747,0.1526032778512088,-0.022850340078884864
3.5031919479370117,-0.01766638457775116,-0.03136277198791504,0.012757182121276855,-0.1773509383201599,-0.034058768302202225,0.019645532593131065,0.14865807047681126,0.15218844247339108,-0.022351072280404716
3.5131418704986572,-0.016791492700576782,-0.03915552794933319,0.020603418350219727,-0.2503631114959717,-0.021422602236270905,-0.0025769486092031,0.1462715595562861,0.15183237308876452,-0.02194081647758971
3.52315092086792,-0.016138896346092224,-0.03914925456047058,0.02398836612701416,-0.27455151081085205,-0.0048853931948542595,-0.013855861499905586,0.14347138564210066,0.15166430736033726,-0.021622643555816338
3.533158779144287,-0.01685844361782074,-0.026621997356414795,0.013606846332550049,-0.27122920751571655,-0.008846579119563103,-0.02008499577641487,0.14069664428615297,0.1515437315667816,-0.021372973159808205
3.543148994445801,-0.013958409428596497,-0.004043027758598328,0.013233482837677002,-0.22675876319408417,-0.010065995156764984,-0.02112964540719986,0.13796532707181552,0.15134410065257783,-0.021182163835326343
3.553621768951416,-0.008401021361351013,0.002828046679496765,0.012562990188598633,-0.12924392521381378,-0.0007284204475581646,-0.00767509127035737,0.13615241089085048,0.151240418783989,-0.02105689703511011
3.5631518363952637,-0.008960753679275513,0.015744224190711975,0.002599000930786133,-0.05294229835271835,-0.005864682141691446,0.00240081874653697,0.13557449174182187,0.1511455401913428,-0.02093659254410155
3.573279857635498,-0.010803624987602234,0.03525446355342865,0.009746134281158447,-0.000784554285928607,-0.013664815574884415,-0.0013574339682236314,0.13573810113974985,0.15095848533850098,-0.02087791519671626
3.5831458568573,-0.007951289415359497,0.027200639247894287,0.016444504261016846,0.03492938354611397,-0.011829586699604988,-0.009572966024279594,0.1364031802019411,0.15077090282634298,-0.020948935389757412
3.593364953994751,-0.004950955510139465,0.015104159712791443,0.01927894353866577,0.022947290912270546,-0.005386866629123688,-0.019439445808529854,0.1372386984817625,0.15065391803251682,-0.021137169857892445
3.6032919883728027,-0.0052947551012039185,0.01178067922592163,0.01871025562286377,-0.012802701443433762,0.0035246475599706173,-0.030514733865857124,0.13775000338451798,0.1506261870638379,-0.021379619083081846
3.613334894180298,-0.004731595516204834,0.0034552961587905884,0.01546245813369751,-0.05934889614582062,0.014075025916099548,-0.04160493612289429,0.13764813770969778,0.1507034003363128,-0.021672976066431482
3.623189926147461,-0.0029526352882385254,-0.008413523435592651,0.015173554420471191,-0.09704707562923431,0.024354472756385803,-0.05132882669568062,0.1368650745001897,0.15089595643427584,-0.022012360202250603
3.633319854736328,-0.0027759820222854614,-0.00740446150302887,0.017306745052337646,-0.13124872744083405,0.035198066383600235,-0.06253700703382492,0.13561957015914325,0.1512192775845886,-0.0224102492441373
3.6442437171936035,-0.0007837563753128052,-0.0047582536935806274,0.014436125755310059,-0.13923391699790955,0.04237177595496178,-0.0628579705953598,0.13402462258313708,0.15162924401613648,-0.02283102608002077
3.653709888458252,0.001451730728149414,-0.0030822455883026123,0.010406851768493652,-0.13520322740077972,0.04355235770344734,-0.05937402695417404,0.13225172413148276,0.15206785222727195,-0.023229311779407114
3.663300037384033,0.004999071359634399,0.004954516887664795,0.006808221340179443,-0.1074545755982399,0.047492191195487976,-0.05322084575891495,0.13073868143645467,0.15254355347578705,-0.023609062918208256
3.6734399795532227,0.006016671657562256,0.0106019526720047,0.004699587821960449,-0.04901736602187157,0.047374214977025986,-0.03651057556271553,0.12981701601925758,0.15304362593503712,-0.02393798213954699
3.683306932449341,0.008129209280014038,0.018991321325302124,0.001685798168182373,0.01212227251380682,0.03439685329794884,-0.015355540439486504,0.12961398777406602,0.15346855220949554,-0.024165389519546228
3.6935009956359863,0.008129104971885681,0.025127694010734558,0.0014812946319580078,0.0398457795381546,0.019272228702902794,-0.00630825012922287,0.12995486521695235,0.1537246724804013,-0.024309653087995695
3.70350980758667,0.011060863733291626,0.019810006022453308,0.006112635135650635,0.03325171023607254,0.013307769782841206,0.0007577018113806844,0.13054737109092143,0.1538747645115297,-0.02438867347102678
3.7135019302368164,0.012368723750114441,0.000583842396736145,0.006797432899475098,0.03085406683385372,0.02305999957025051,0.0036677378229796886,0.13107055434029408,0.15404567104360048,-0.024413667948084923
3.7233738899230957,0.007728159427642822,-0.012314856052398682,0.005053818225860596,0.008395511656999588,0.029340842738747597,0.0025902760680764914,0.1313887003025539,0.1543033426317047,-0.024409501916747647
3.7333569526672363,-0.0006091147661209106,-0.013705670833587646,0.008715927600860596,-0.013134014792740345,0.03861210495233536,-0.00035651144571602345,0.13144798114231301,0.15465336891329928,-0.02438970356998315
3.743340015411377,-0.0013565123081207275,-0.01578371226787567,0.011200308799743652,-0.01591242477297783,0.0375240258872509,-0.001325635821558535,0.13121424631427378,0.15506885186196412,-0.02437685751794819
3.7536978721618652,0.0035319477319717407,-0.014359086751937866,0.008755683898925781,-0.007847040891647339,0.03024054691195488,0.002346597146242857,0.13092742654106723,0.15543104309399505,-0.02435799748635065
3.763378858566284,0.006092384457588196,-0.007333695888519287,0.009119808673858643,-0.0038340899627655745,0.022575438022613525,0.0013992040185257792,0.13059523972616924,0.1557232864152895,-0.024329978767846816
3.7734298706054688,0.004774764180183411,-0.0024688243865966797,0.011071085929870605,-0.004993630573153496,0.02273043431341648,-0.00032625801395624876,0.13017701839573953,0.15598497746801893,-0.02432159125802451
3.783437728881836,0.003193393349647522,-0.004433155059814453,0.011289894580841064,-0.018956316635012627,0.021852388978004456,0.0024122707545757294,0.12979638543122707,0.15626746086415408,-0.0243045268853441
3.7934517860412598,0.003191351890563965,-0.006996318697929382,0.010515868663787842,-0.016892900690436363,0.0271129310131073,0.004054109565913677,0.12962743865827958,0.15657764164101187,-0.024255318886384124
3.803602933883667,0.005618467926979065,-0.007981732487678528,0.009085297584533691,-0.027277130633592606,0.022202949970960617,0.00488421693444252,0.12961849005843187,0.15685686771839855,-0.024185210087097675
3.8136439323425293,0.0042231082916259766,-0.0077131688594818115,0.010326147079467773,-0.043833471834659576,0.014406012371182442,4.8448797315359116e-05,0.12950464448147697,0.15701728372661072,-0.024095305952429376
3.8235020637512207,0.002496972680091858,-0.01177428662776947,0.016398727893829346,-0.06017661094665527,0.01587860658764839,-0.0005140639841556549,0.12924076650062477,0.15713841400723746,-0.024016714993629718
3.8335037231445312,0.0016160309314727783,-0.01433032751083374,0.01778191328048706,-0.05304812639951706,0.02272959053516388,0.0013943571830168366,0.1289097636195958,0.15734555555477744,-0.02392432665826945
3.8435120582580566,0.00029963254928588867,-0.005996793508529663,0.014825582504272461,-0.044926680624485016,0.0236621405929327,0.002327688504010439,0.12855812942279965,0.15760738563762458,-0.023832583319215304
3.853724956512451,-0.004241615533828735,0.0012772828340530396,0.011594891548156738,-0.0241303239017725,0.03411717712879181,0.0036512797232717276,0.1282767653874022,0.15790718776039087,-0.02375809482528679
3.8635129928588867,-0.00579950213432312,0.002104535698890686,0.006744563579559326,0.0150286965072155,0.047116510570049286,0.01427803747355938,0.12834162098250632,0.15833069381264522,-0.023663621203558187
3.8737850189208984,-0.0061178505420684814,0.0066263675689697266,0.004422605037689209,0.054789960384368896,0.04950563237071037,0.029935825616121292,0.12883925008240232,0.15882188090806862,-0.02350654320689422
3.8836069107055664,-0.007575809955596924,0.023274168372154236,0.004234135150909424,0.08715146034955978,0.04032154381275177,0.03919782117009163,0.12974755776911662,0.15928572367618263,-0.023268670254847
3.8939337730407715,-0.003629729151725769,0.023063868284225464,0.0019525885581970215,0.08660072088241577,0.035850897431373596,0.02957102842628956,0.13078198541999175,0.15965652086459522,-0.023067327437909315
3.9040780067443848,-0.003256663680076599,0.00765661895275116,0.005579829216003418,0.06241972744464874,0.044764451682567596,0.019830675795674324,0.13174041417484397,0.1600596669237217,-0.022943468891389113
3.9138429164886475,-0.00762881338596344,-0.005325183272361755,0.004114210605621338,0.018353471532464027,0.049810074269771576,0.010825728997588158,0.13234417098155274,0.16053312233073114,-0.022849273363542217
3.9236788749694824,-0.009958639740943909,-0.0046302080154418945,0.0021343231201171875,-0.014412831515073776,0.051220573484897614,-0.003947731107473373,0.13241416750330753,0.16102878707430646,-0.02281395932742191
3.9338788986206055,-0.00844147801399231,-0.007593691349029541,0.0015935301780700684,-0.036426253616809845,0.05266667157411575,-0.014267213642597198,0.13208759424078967,0.16152969443684753,-0.022860993912479224
3.943741798400879,-0.00736507773399353,-0.007431849837303162,-0.004776716232299805,-0.04735415056347847,0.04530644789338112,-0.024930564686655998,0.13157358914337103,0.16199358516234122,-0.022978007037378297
3.9541609287261963,-0.00408993661403656,8.949637413024902e-05,-0.005379736423492432,-0.04847906902432442,0.037039730697870255,-0.03089950606226921,0.13092590427847448,0.1623750851930476,-0.02316921688810749
3.9638729095458984,-0.002889573574066162,-0.0018705874681472778,-0.0065839290618896484,-0.03494963049888611,0.03298510983586311,-0.03149988874793053,0.13016478108372426,0.16269140440396457,-0.023400407042151336
3.974254846572876,-0.0029835551977157593,-0.00489671528339386,-0.008374452590942383,-0.01095055602490902,0.02508644387125969,-0.029795998707413673,0.1296058869689453,0.16297819599147803,-0.023663659685305927
3.983743906021118,-0.005299776792526245,0.0007925182580947876,-0.008686065673828125,0.014132543466985226,0.013132622465491295,-0.01798887364566326,0.12952661706419827,0.16317603190997762,-0.02390654504831484
3.9953880310058594,-0.006222575902938843,0.008822321891784668,-0.010550916194915771,0.0337376706302166,0.0017569295596331358,-0.015208268538117409,0.129853467567772,0.16322167721369643,-0.024099370793012165
4.00407600402832,-0.004565253853797913,0.006179735064506531,-0.01130521297454834,0.036325179040431976,-0.016831446439027786,-0.012018706649541855,0.13028151472365138,0.16311213951343112,-0.02429229646856547
4.013735771179199,-0.0034942328929901123,-0.0008239001035690308,-0.010672032833099365,0.022106563672423363,-0.026632145047187805,-0.012273305095732212,0.1306664260119957,0.1628523647175717,-0.024450476625376697
4.023742914199829,-0.004992425441741943,-0.0037045925855636597,-0.005872786045074463,0.00499823410063982,-0.030144009739160538,-0.012229415588080883,0.13088515048852598,0.16253245274939052,-0.024586029973239033
4.033830881118774,-0.010190784931182861,-0.01538880169391632,-0.0008796453475952148,-0.01748630218207836,-0.03228013217449188,-0.01651524193584919,0.13078144986176315,0.16221329351627092,-0.02472353375914106
4.043759822845459,-0.011485785245895386,-0.021403014659881592,0.000583648681640625,-0.031140295788645744,-0.03790614753961563,-0.016971440985798836,0.13051755981401655,0.1618625324222261,-0.02484899942911623
4.054030895233154,-0.008788973093032837,-0.019246906042099,0.0017317533493041992,-0.03528337553143501,-0.04674411565065384,-0.01760687120258808,0.13018365520541567,0.1614384743614542,-0.02496599397655188
