timestamp,accel_x,accel_y,accel_z,rotation_x,rotation_y,rotation_z, pitch,roll,yaw
0.03386712074279785,-0.004271268844604492,0.007633836939930916,0.00859379768371582,-0.03764630854129791,-0.00834832713007927,-0.017198802903294563,-0.018597099762599077,0.21691258082692114,0.0020249759562610413
0.04560589790344238,-0.005467265844345093,0.007891548797488213,0.007597625255584717,-0.03634808212518692,-0.0074584754183888435,-0.02255314216017723,-0.019010851815474003,0.21682648825797285,0.0019156116061759933
0.04692387580871582,-0.004521876573562622,0.009366918355226517,0.006920337677001953,-0.030300840735435486,-0.00683582853525877,-0.018922453746199608,-0.019381862101111993,0.21675058701116742,0.0017754962193739694
0.05376291275024414,-0.0038416534662246704,0.011891275644302368,0.007265448570251465,-0.02212405391037464,-0.006603023502975702,-0.019105201587080956,-0.019680438356413903,0.21668031946089764,0.001645983613287447
0.06193280220031738,-0.002658277750015259,0.013740979135036469,0.004027605056762695,-0.002098148688673973,-0.005002730060368776,-0.011389756575226784,-0.019829664084965736,0.21660979841242806,0.0015171397012115736
0.0719449520111084,-0.000833466649055481,0.01327328011393547,0.001568436622619629,0.014872361905872822,-0.006085171829909086,-0.005285844672471285,-0.019793816959254626,0.21655353361945312,0.0014195300677625783
0.08200812339782715,-0.0004321783781051636,0.015210052952170372,0.0008639097213745117,0.02018590085208416,-0.014386510476469994,-0.0032594455406069756,-0.019627030939579886,0.21643875062669188,0.0013455047105615297
0.09195685386657715,0.0014916211366653442,0.014950720593333244,0.0009404420852661133,0.01797700859606266,-0.009631702676415443,-0.0010936030885204673,-0.019443825270299298,0.21631173677560017,0.0012685589595440286
0.10198497772216797,0.003269791603088379,0.010023297742009163,0.0034309029579162598,0.018927758559584618,-0.006283577065914869,0.004854300990700722,-0.019274777852043,0.2162401794653298,0.0012452846310960213
0.1134951114654541,0.00025360286235809326,0.006178872659802437,-0.0002219080924987793,0.013249930925667286,-0.013422179967164993,0.003344874130561948,-0.019106111943897785,0.21614053324449128,0.0012598758403664623
0.12198901176452637,0.0012071430683135986,0.0068252962082624435,-0.0032366514205932617,0.0068343766033649445,-0.01936901919543743,-0.002186777535825968,-0.019008987803845846,0.21597620855603392,0.0012399185590740826
0.1320030689239502,0.005852609872817993,0.0066299885511398315,-0.0013635754585266113,-0.0006019349675625563,-0.019769558683037758,-0.006602778099477291,-0.01899066638073592,0.21578166615044952,0.0011874893941216803
0.1421821117401123,0.003027409315109253,0.0046872422099113464,0.0031549930572509766,-0.01579686626791954,-0.025040486827492714,-0.01150379329919815,-0.01908712190309468,0.2155501150320184,0.0011173770221064503
0.15230393409729004,0.001664966344833374,0.002362232655286789,0.006055891513824463,-0.03139616549015045,-0.02380318194627762,-0.01798022724688053,-0.019336980947537954,0.21530571432277212,0.0010212758248275076
0.16363191604614258,0.0020038187503814697,-0.001256769523024559,0.006824374198913574,-0.04096836596727371,-0.016805194318294525,-0.016088850796222687,-0.019736454725554884,0.2151011046840885,0.0009262581607881337
0.17226791381835938,-0.0018563121557235718,-0.004141710698604584,0.009043335914611816,-0.034581057727336884,-0.012101385742425919,-0.013746494427323341,-0.020149551362070094,0.21496193444874462,0.0008595546146081565
0.1822950839996338,-0.0039905160665512085,-0.0022778883576393127,0.008588075637817383,-0.019018609076738358,-0.010377788916230202,-0.005670991260558367,-0.020437279221503415,0.2148518200134747,0.000821937322468845
0.19222712516784668,-0.0012884438037872314,0.0004329513758420944,0.007407486438751221,-0.006388534791767597,-0.005676597822457552,0.0038748434744775295,-0.02062564995301676,0.21478887005547714,0.0008493112180334655
0.20213699340820312,0.0015876442193984985,0.0028859563171863556,0.00558626651763916,0.012256255373358727,0.008348140865564346,0.015328299254179,-0.020644573564361623,0.21481258520139032,0.0009369702932078409
0.21338105201721191,0.002363532781600952,0.006103251129388809,0.0023519396781921387,0.03845814988017082,-0.0058481511659920216,0.027574686333537102,-0.02037216499954612,0.21490743211732816,0.0011008911268083244
0.2221391201019287,0.0033464431762695312,0.008120313286781311,1.9609928131103516e-05,0.04953397065401077,-0.01243894174695015,0.028780564665794373,-0.019911408852201905,0.21486768013440946,0.0012877590736042233
0.23225903511047363,0.006189063191413879,0.01498907245695591,0.004133105278015137,0.042089320719242096,-0.008810251951217651,0.027263682335615158,-0.019420728756881597,0.2147985064875165,0.001459652105066435
0.24224209785461426,0.007960259914398193,0.014855820685625076,0.006029009819030762,0.03310567885637283,-0.012914981693029404,0.029473839327692986,-0.01897406137033185,0.2147485581746189,0.0016638237291244841
0.2522881031036377,0.003793284296989441,0.007637789472937584,0.007403373718261719,0.0075918626971542835,-0.011447668075561523,0.019811678677797318,-0.018699980508244243,0.21462383232461343,0.0018607459683084267
0.2651808261871338,0.0031057745218276978,0.005542583763599396,0.008559703826904297,-0.00568239763379097,-0.010415161028504372,0.01420492585748434,-0.01865894924463475,0.21449960117606326,0.0020261435025153685
0.27251410484313965,0.0053633153438568115,0.010156292468309402,0.00983881950378418,0.0033964021131396294,-0.004899710416793823,0.017567645758390427,-0.018683915247513158,0.21443800961985943,0.0021758547331154057
0.28266310691833496,0.0042374879121780396,0.013918541371822357,0.008664608001708984,0.018138064071536064,-0.01590096205472946,0.01651250198483467,-0.018583754737930433,0.21437169973939116,0.002322676947627946
0.29262804985046387,0.003935456275939941,0.017078619450330734,0.0071389079093933105,0.027606599032878876,-0.01614748314023018,0.01460109744220972,-0.018399112456478548,0.2142428019544685,0.00242009876271236
0.3025858402252197,0.00582963228225708,0.023505056276917458,0.01105046272277832,0.022566568106412888,-0.0072831506840884686,0.01667303591966629,-0.018213491429475873,0.21416184506830563,0.002514928962883762
0.3149549961090088,0.0024377405643463135,0.019654620438814163,0.010759592056274414,0.01852119155228138,0.004921318031847477,0.021969478577375412,-0.018142403440194133,0.2142441717829477,0.002666055768748426
0.3229210376739502,-0.003948241472244263,0.014248216524720192,0.01004570722579956,0.015473471023142338,0.0008445507846772671,0.021693840622901917,-0.018086152410668688,0.21437690673380158,0.002857511410045322
0.33258605003356934,-6.563961505889893e-05,0.011899909004569054,0.009284913539886475,0.016710026189684868,0.001927702920511365,0.01975974813103676,-0.017977777466733538,0.2144475481668866,0.003027114710514067
0.3426179885864258,0.0025007128715515137,0.014802182093262672,0.012393414974212646,0.024760495871305466,0.006080636288970709,0.02199041098356247,-0.017806798839675373,0.2145532811161964,0.0031847829644766736
0.35260701179504395,-0.0003303438425064087,0.015194857493042946,0.015217244625091553,0.031523678451776505,-0.0019088909029960632,0.02040625549852848,-0.017581934774268594,0.21463887241194005,0.0033358382826862787
0.3649449348449707,-0.0026955008506774902,0.015698671340942383,0.014694809913635254,0.024528084322810173,-0.0021549672819674015,0.016816047951579094,-0.017413788158631482,0.21466951942919718,0.0034478485224228033
0.3725569248199463,-0.0012502074241638184,0.01769508235156536,0.01352161169052124,0.015038793906569481,0.005694300401955843,0.014727863483130932,-0.01737049849067644,0.21473624605703714,0.0035564579657361753
0.3825070858001709,-0.002247169613838196,0.015890588983893394,0.011147558689117432,0.009121781215071678,0.01396714337170124,0.015661833807826042,-0.017466022021373515,0.21491368579315814,0.003682448853734673
0.3924999237060547,-0.005753114819526672,0.01197357103228569,0.009218037128448486,0.008329108357429504,0.011632661335170269,0.016223547980189323,-0.017553097196688277,0.21508219142593366,0.0038230443089715895
0.402634859085083,-0.005087301135063171,0.011650359258055687,0.008211076259613037,0.009037509560585022,0.007019800134003162,0.013617645017802715,-0.017586395623971542,0.21515050262376798,0.003945593479163293
0.41443300247192383,-0.001867547631263733,0.015101676806807518,0.006568193435668945,0.006077788770198822,-0.0003746887668967247,0.010924656875431538,-0.017598827187619574,0.2151972526556146,0.004051781504410646
0.422497034072876,-0.0013751834630966187,0.01351115107536316,0.008575141429901123,0.002344036940485239,-0.005171042401343584,0.010563531890511513,-0.01767874490189676,0.21522462803543252,0.004145716689669845
0.43248796463012695,-0.001812070608139038,0.01057618297636509,0.008782148361206055,-0.0057844133116304874,-0.00737565103918314,0.0068541220389306545,-0.01782137520338629,0.21517257461567482,0.004231934174295167
0.44249796867370605,-0.0015581697225570679,0.01048237457871437,0.009354650974273682,-0.012643917463719845,-0.0032397620379924774,0.006062896456569433,-0.018052550619557666,0.21511661290305178,0.004310311783164252
0.45258593559265137,-0.003914430737495422,0.008661171421408653,0.010183632373809814,-0.015837213024497032,0.004646302200853825,0.006447297520935535,-0.018347923500407093,0.2151399637464912,0.004412553399852848
0.46457600593566895,-0.0065568238496780396,0.008909907191991806,0.008105814456939697,0.0015670766588300467,0.007723052054643631,0.0069714076817035675,-0.018556988085083118,0.21520599270775584,0.00448198587307895
0.4726989269256592,-0.005995631217956543,0.012291816994547844,0.005660533905029297,0.0163582731038332,0.004385667387396097,0.009623702615499496,-0.018547268700245985,0.21522503361149345,0.004539910257310522
0.4826629161834717,-0.0038542598485946655,0.016854122281074524,0.0053130388259887695,0.024119524285197258,0.0019430159591138363,0.007159213535487652,-0.018425248833440145,0.2152192726870846,0.004574147935380127
0.4929649829864502,-0.004162430763244629,0.01953892968595028,0.005386710166931152,0.014725855551660061,0.004436267074197531,0.0024940476287156343,-0.018349682618609715,0.2152376732219819,0.004581842202071862
0.5026848316192627,-0.003332585096359253,0.012351760640740395,0.006518244743347168,-0.0017591116484254599,0.004250378347933292,-0.0018791293259710073,-0.018395741940713584,0.2152943142157439,0.004565934856738159
0.513861894607544,-0.004841625690460205,0.005183154717087746,0.006398022174835205,-0.01652415841817856,0.004627438262104988,-0.008163549937307835,-0.018591117816180478,0.21534036916247454,0.004530568203696145
0.5227558612823486,-0.005534067749977112,0.0027103833854198456,0.0074977874755859375,-0.023378871381282806,0.002391714369878173,-0.010958271101117134,-0.018912456677275483,0.21537886954185773,0.004472395349736925
0.5327579975128174,-0.0044332146644592285,0.00422537699341774,0.008194029331207275,-0.019795086234807968,0.0009582233615219593,-0.010055193677544594,-0.019228577827839627,0.21537790532388218,0.0044067761094772305
0.5428109169006348,-0.005930006504058838,0.0053508952260017395,0.0071190595626831055,-0.005051561165601015,-0.002547029871493578,-0.007830122485756874,-0.01946113182161,0.21531785441638926,0.004343521593905006
0.5528438091278076,-0.004542529582977295,0.010823599994182587,0.0024369359016418457,0.005477346479892731,-0.0064109209924936295,-0.007345906458795071,-0.01957316804315784,0.21522571631649887,0.004269630301889779
0.5643408298492432,-0.004308789968490601,0.01624431647360325,0.0009267330169677734,0.008075792342424393,-0.0031653260812163353,-0.010913477279245853,-0.019676151618461778,0.21514306740402867,0.004164889185749779
0.5729289054870605,-0.006853058934211731,0.012484859675168991,0.002503633499145508,0.00699201924726367,0.003464257810264826,-0.010856325738132,-0.019788781237707078,0.21510826781980374,0.004045663546951419
0.5825388431549072,-0.00959254801273346,0.008074857294559479,0.00272977352142334,0.009477280080318451,0.0018953895196318626,-0.013031861744821072,-0.01983477883758862,0.21511683530899905,0.003914218848747719
0.5929138660430908,-0.008958831429481506,0.01073678769171238,0.0012830495834350586,0.01563810370862484,0.0010524108074605465,-0.013337699696421623,-0.019782090202729665,0.21510829845096452,0.0037617064363987874
0.6029188632965088,-0.005150288343429565,0.01157820038497448,-0.0014002323150634766,0.016644779592752457,-0.008136561140418053,-0.014470341615378857,-0.01967307863922547,0.21503601458866586,0.00359119311695324
0.6152529716491699,-0.003601580858230591,0.009582478553056717,-0.0010312795639038086,0.012128723785281181,-0.015533668920397758,-0.01731901988387108,-0.01959358646303451,0.21488732721434814,0.0034028166653688238
0.6226189136505127,-0.0021690726280212402,0.0087667815387249,0.002185225486755371,0.005382936913520098,-0.01800215244293213,-0.020238909870386124,-0.019600571030879088,0.2146861628606291,0.0032047558884652043
0.6328270435333252,0.000684201717376709,0.005764415487647057,0.0036942362785339355,-0.0004167788429185748,-0.016235632821917534,-0.02003064937889576,-0.019719049825002676,0.21446811319996184,0.003009302246192813
0.6429510116577148,0.0008375048637390137,0.0009561441838741302,0.0025745034217834473,0.0018857901450246572,-0.02018589898943901,-0.015434831380844116,-0.01988867896410928,0.21426506007389445,0.0028349232325145953
0.6530909538269043,0.0006279945373535156,0.0012364070862531662,0.0010852813720703125,0.0055323401466012,-0.021290890872478485,-0.012510414235293865,-0.019989910477096463,0.2140113868649771,0.0026956608980532024
0.6638948917388916,-0.000616416335105896,0.00718575157225132,-0.0012489557266235352,0.015407342463731766,-0.023451246321201324,-0.00871674157679081,-0.01997623334546419,0.21372324727509084,0.0025742537027172155
0.6730070114135742,0.0013066232204437256,0.008209967985749245,-0.0013336539268493652,0.02059023454785347,-0.0253020990639925,-0.007057060021907091,-0.019898042713372845,0.2134101298270334,0.0024581339007522713
0.6828699111938477,0.0026674866676330566,0.006128473207354546,0.00010114908218383789,0.017192840576171875,-0.024671195074915886,-0.008456816896796227,-0.01982803554678729,0.21312584556659775,0.0023440396058446162
0.6928088665008545,0.0012927353382110596,0.006467105820775032,0.004143178462982178,0.0075758169405162334,-0.026004506275057793,-0.008244031108915806,-0.019809833162186017,0.21284618749672513,0.0022388860667796086
0.7027750015258789,0.0013654083013534546,0.0039851050823926926,0.0049419403076171875,0.004749936982989311,-0.023137081414461136,-0.010014500468969345,-0.019850435943932567,0.21260026845050212,0.002125669398616847
0.7131807804107666,0.0033256709575653076,0.0010009389370679855,0.007832884788513184,0.007369072176516056,-0.018247295171022415,-0.005373090039938688,-0.01985914226294065,0.21242126012477033,0.002038747356115398
0.7227239608764648,0.0025098025798797607,0.002234088256955147,0.0088462233543396,0.0156062301248312,-0.020582355558872223,-0.0014827442355453968,-0.019755121628149703,0.21225640064903956,0.0019825884338957028
0.7328410148620605,0.0019087791442871094,0.006504332646727562,0.008021533489227295,0.023943405598402023,-0.022871563211083412,-0.0004816087312065065,-0.019574196875332153,0.21205874199517608,0.001934778647821764
0.742685079574585,0.005447223782539368,0.006913172081112862,0.00844961404800415,0.028920853510499,-0.01930292695760727,0.005404775962233543,-0.019363681698810684,0.21185654185592492,0.001905971792152034
0.7527878284454346,0.005050793290138245,0.007636750116944313,0.009944736957550049,0.0219065360724926,-0.012261131778359413,0.010102059692144394,-0.019158865482419008,0.2117305009415717,0.0019258537175508646
0.763110876083374,0.0012527406215667725,0.004486491903662682,0.008652031421661377,0.016122151166200638,-0.01007174700498581,0.005648455582559109,-0.019013198287930574,0.21165044521678206,0.0019628756246059535
0.7727148532867432,0.0038814544677734375,0.004138931632041931,0.010327517986297607,0.012243672274053097,-0.004843650385737419,0.0020180875435471535,-0.018933497507418205,0.21159898850372427,0.001967574713995901
0.782761812210083,0.0034307390451431274,0.0036714617162942886,0.011456847190856934,0.016243208199739456,-0.0005335905589163303,0.005308423191308975,-0.018836374302340943,0.2116069947307569,0.0019750844015830613
0.7929949760437012,0.0016416758298873901,0.004938701167702675,0.009960293769836426,0.018251163884997368,-0.003387611825019121,0.0023951376788318157,-0.018683000279302805,0.21162586186595228,0.0019746292918816923
0.8028790950775146,0.0016645044088363647,0.01026095636188984,0.008719563484191895,0.022557228803634644,0.0026796020101755857,0.002314444165676832,-0.018502925836502045,0.2116642278984275,0.001944221220712818
0.8133070468902588,0.003415435552597046,0.009876105934381485,0.008319079875946045,0.02734293043613434,-0.002274588216096163,0.0035193110816180706,-0.01830791034993774,0.2116985955023109,0.001918205152399348
0.8228328227996826,0.0005407631397247314,0.008594594895839691,0.007933497428894043,0.025868337601423264,-0.002253549173474312,-0.000461848103441298,-0.018109286151588726,0.21173518938393224,0.001882209218598634
0.8331069946289062,-0.0004779398441314697,0.010866912081837654,0.00967872142791748,0.022213581949472427,0.0036839684471488,-0.005461560562252998,-0.01795791242791034,0.21179331801117257,0.001806543556308532
0.8430678844451904,-0.001408591866493225,0.007219336926937103,0.01058417558670044,0.022280428558588028,0.0036384286358952522,-0.00450681708753109,-0.017790764916719246,0.21185498604484906,0.0017197417100598023
0.853043794631958,-0.0037006139755249023,0.005253709852695465,0.009163320064544678,0.027609679847955704,0.004551626276224852,-0.006255715154111385,-0.017604873859884965,0.21195120976747592,0.001614186936324007
0.8652408123016357,-0.004246369004249573,0.0075272079557180405,0.005746066570281982,0.03256422281265259,0.004023788031190634,-0.005825614556670189,-0.017360760403953214,0.21204031836010567,0.0014927716416765718
0.8730800151824951,-0.0030056238174438477,0.009584765881299973,0.0037550926208496094,0.037359364330768585,0.003331410698592663,-0.007576376665383577,-0.017088439682198597,0.21209685822019844,0.0013528712822973904
0.8833789825439453,-0.002410486340522766,0.010198967531323433,0.0067098140716552734,0.032422930002212524,0.0013502850197255611,-0.0031693773344159126,-0.016840411597292097,0.21214272704591092,0.0012240783677908086
0.893449068069458,-0.005256444215774536,0.007561240345239639,0.005896210670471191,0.02885432355105877,-0.0010409671813249588,-0.0062993373721838,-0.01663997728501573,0.21218124916373074,0.0011139607380238334
0.9039890766143799,-0.0033768415451049805,0.008569527417421341,0.0031108856201171875,0.027315815910696983,-0.006761170458048582,-0.006744084879755974,-0.016455640012660543,0.21216213499512632,0.000992398100891625
0.9143397808074951,-0.0019830167293548584,0.008810311555862427,0.004638016223907471,0.025293029844760895,-0.006090719718486071,-0.005990996956825256,-0.016321648337823094,0.212093825644621,0.0008750303257452687
0.9231588840484619,-0.0047288089990615845,0.006426418200135231,0.006216764450073242,0.022160885855555534,-0.014092186465859413,-0.005165949463844299,-0.016172563771665004,0.21199883966177382,0.000771099073825043
0.9333429336547852,-0.004811644554138184,0.00685923732817173,0.005048632621765137,0.024030441418290138,-0.014675553888082504,-0.007541062775999308,-0.016014380020526638,0.21183327841464103,0.0006525474552998237
0.9431838989257812,-0.0034868866205215454,0.008633783087134361,0.005296766757965088,0.021539853885769844,-0.011272566393017769,-0.004075757693499327,-0.015872507619977803,0.2116795172775634,0.0005411854190785632
0.9532759189605713,-0.005663707852363586,0.007012324407696724,0.004548072814941406,0.02549448050558567,-0.01272620726376772,-0.0018375306390225887,-0.015739191588853715,0.21154888475168399,0.00046577140389797303
0.964616060256958,-0.00654090940952301,0.005693208426237106,0.004231810569763184,0.038458481431007385,-0.01757502555847168,-0.0011674793204292655,-0.015517141174887355,0.21139967999207154,0.0003780696106626751
0.9732730388641357,-0.004030689597129822,0.006661657243967056,0.007654130458831787,0.05237339809536934,-0.019006120041012764,-0.0001939341309480369,-0.015143741668218474,0.2111875716789583,0.00027427966802543585
0.9833049774169922,-0.0045706480741500854,0.009313136339187622,0.010623693466186523,0.062219638377428055,-0.022319624200463295,0.0005645342171192169,-0.014658955325397505,0.210957974355947,0.00015783429577955117
0.9934039115905762,-0.004768341779708862,0.014225826598703861,0.008742570877075195,0.057267673313617706,-0.02469014935195446,-0.002948654815554619,-0.014140744193954,0.21072160848577248,2.4020763392591522e-05
1.0032389163970947,-0.002923920750617981,0.011096011847257614,0.008052706718444824,0.0281625185161829,-0.03479311615228653,-0.009776733815670013,-0.013791520461108464,0.21039478994690386,-0.0001270767001979855
1.0135090351104736,-0.0037379413843154907,0.005933689884841442,0.012428522109985352,-0.021045375615358353,-0.03511704504489899,-0.021704604849219322,-0.01385741120691527,0.21004152341658566,-0.00028448281113648
1.023277997970581,-0.005030497908592224,-0.0044239237904548645,0.01829838752746582,-0.054392147809267044,-0.04176190122961998,-0.02589242532849312,-0.01437315783970497,0.20966406917538907,-0.0004341589953756129
1.0333430767059326,-0.006677687168121338,-0.009900450706481934,0.024016737937927246,-0.06355421990156174,-0.06217929348349571,-0.03817572444677353,-0.015073761402604956,0.2091194269288696,-0.0006149967710515306
1.0433340072631836,-0.0032794028520584106,-0.009043220430612564,0.022704482078552246,-0.09649219363927841,-0.10015276819467545,-0.06647953391075134,-0.015986662916281806,0.20831580959556287,-0.0009614970178662727
1.0534539222717285,-0.00021007657051086426,-0.012630514800548553,0.020763933658599854,-0.17568708956241608,-0.16059236228466034,-0.10651121288537979,-0.017498970711133398,0.2070243220157562,-0.0015148203080590538
1.064701795578003,0.001237720251083374,-0.025251349434256554,0.032445549964904785,-0.3183997869491577,-0.2542645335197449,-0.1685226559638977,-0.020202073318075713,0.20494758007233582,-0.0023501759479321992
1.073603868484497,0.009553134441375732,-0.04919634386897087,0.05906182527542114,-0.5687713027000427,-0.3251630961894989,-0.24764911830425262,-0.024876409972656627,0.2020712860279091,-0.003490380151952336
1.0836780071258545,0.01553809642791748,-0.07242538034915924,0.08106160163879395,-0.9269092082977295,-0.4323771595954895,-0.36049631237983704,-0.03275839152334224,0.1982041481702248,-0.005021453358135398
1.0936799049377441,0.00909353792667389,-0.08810447156429291,0.0996866226196289,-1.4481052160263062,-0.507422924041748,-0.46737220883369446,-0.04507469605363798,0.193463038565929,-0.006783227558742164
1.1047499179840088,0.015351086854934692,-0.1478603035211563,0.10615301132202148,-2.068873167037964,-0.6044679880142212,-0.6383370161056519,-0.06336902378075653,0.18777004947909362,-0.008850326786232956
1.1153919696807861,0.014242440462112427,-0.20181739330291748,0.11795258522033691,-2.7362942695617676,-0.7187191247940063,-0.8174642324447632,-0.08834585722063037,0.18098864427895747,-0.011630982725957025
1.123358964920044,0.01639580726623535,-0.22153937816619873,0.130285382270813,-3.4825050830841064,-0.8880466818809509,-1.0706787109375,-0.12051251685804396,0.17256399461345936,-0.015377809029576216
1.1335089206695557,0.04148803651332855,-0.22104808688163757,0.12861889600753784,-4.381182670593262,-1.0353626012802124,-1.4105068445205688,-0.16133757058230866,0.1620762723301126,-0.021186388630642882
1.1433818340301514,0.05181014537811279,-0.24189715087413788,0.1534709930419922,-5.412208080291748,-1.2019768953323364,-1.6598490476608276,-0.21208082493435707,0.1495173687638582,-0.028927544278070202
1.1536979675292969,0.03627993166446686,-0.3000814914703369,0.1790754199028015,-6.612103462219238,-1.3826526403427124,-1.913703203201294,-0.27406535371074914,0.1343130157203523,-0.038374475418718614
1.1640498638153076,0.01789933443069458,-0.30713555216789246,0.22227907180786133,-7.9479289054870605,-1.5399397611618042,-2.1447973251342773,-0.3488515673037138,0.1160441942764395,-0.050134537344268426
1.173504114151001,-0.013272516429424286,-0.2954425513744354,0.2817237973213196,-9.205409049987793,-1.657875895500183,-2.241811990737915,-0.4365749773570038,0.09468466827775236,-0.06406162192860916
1.1834030151367188,-0.0406813845038414,-0.33559751510620117,0.3156936764717102,-10.450053215026855,-1.7604036331176758,-2.2707161903381348,-0.5365754077490819,0.06990233827707434,-0.08039431202277533
1.1934409141540527,-0.049377910792827606,-0.32250499725341797,0.3097500205039978,-11.601971626281738,-1.7956300973892212,-2.1574769020080566,-0.6481075175777247,0.04120127792550048,-0.09982811642401826
1.203437089920044,-0.06363100558519363,-0.22464102506637573,0.28636670112609863,-12.631680488586426,-1.8322455883026123,-1.8621734380722046,-0.7700670762622913,0.008271365261567116,-0.12247583101117357
1.2142679691314697,-0.052383922040462494,-0.13411206007003784,0.22101515531539917,-13.410690307617188,-1.9272698163986206,-1.5566699504852295,-0.9004433223206554,-0.031049002134713226,-0.15013755301256204
1.2238600254058838,-0.03388661891222,-0.03144645690917969,0.14146047830581665,-13.560253143310547,-2.1206510066986084,-1.3081766366958618,-1.0349680916388762,-0.08324703193472804,-0.18889356458962966
1.2348320484161377,-0.019513003528118134,0.08524572849273682,0.04645344614982605,-13.084720611572266,-2.2718088626861572,-1.2035164833068848,-1.1663402463499435,-0.16190240980371168,-0.2522386160738497
1.2435879707336426,0.013713747262954712,0.19265854358673096,-0.07859352231025696,-12.346893310546875,-2.485231637954712,-1.1118507385253906,-1.288004871999642,-0.29905932168273014,-0.37211281041963407
1.2538478374481201,0.002293713390827179,0.31471627950668335,-0.20061315596103668,-11.310124397277832,-2.5402109622955322,-1.0843539237976074,-1.3915291401131602,-0.5821806307070984,-0.6366874377127687
1.264091968536377,-0.020850837230682373,0.4232357144355774,-0.3081541657447815,-10.013128280639648,-2.6070914268493652,-1.0878664255142212,-1.4520939027275095,-1.221542598602616,-1.2564287909705072
1.2738358974456787,-0.04648439586162567,0.3790244460105896,-0.40787434577941895,-8.213626861572266,-2.7722835540771484,-1.0588266849517822,-1.4374557076148435,-1.9851135375534483,-1.9986562600665165
1.283560037612915,-0.04323095083236694,0.2818661332130432,-0.4470299482345581,-6.1470232009887695,-3.1591920852661133,-1.1379680633544922,-1.3872879527624526,-2.35056237757071,-2.338478983510368
1.2938868999481201,-0.0017341077327728271,0.2775457501411438,-0.4642437696456909,-4.5536274909973145,-3.410580635070801,-1.1695075035095215,-1.3394328399692006,-2.5070703584748064,-2.464477419525288
1.3036448955535889,-0.008655354380607605,0.27135735750198364,-0.41988715529441833,-3.663145065307617,-3.403838634490967,-1.0625501871109009,-1.2994632937992732,-2.593268296165093,-2.51814980913019
1.3144149780273438,-0.03425094485282898,0.23632937669754028,-0.4288075864315033,-3.8517541885375977,-3.2615902423858643,-0.9677067399024963,-1.2622900825775176,-2.6581146636198976,-2.5509015168831413
1.3236219882965088,-0.041400253772735596,0.0967145562171936,-0.393731951713562,-4.869552135467529,-3.1084237098693848,-0.7491297125816345,-1.219729118303907,-2.7220907335354507,-2.5849117481338246
1.3340518474578857,-0.05681048333644867,-0.08204418420791626,-0.2578555941581726,-6.414855003356934,-3.013066291809082,-0.4814564883708954,-1.165082122007842,-2.7913182059696093,-2.6264929519047495
1.3442580699920654,-0.03767146170139313,-0.15771079063415527,-0.11131387948989868,-8.004470825195312,-3.0586912631988525,-0.17866438627243042,-1.09533134388817,-2.8625743600277596,-2.671653221941192
1.3541009426116943,-0.011318333446979523,-0.14036017656326294,0.008822619915008545,-9.1945161819458,-3.151135206222534,0.04528507962822914,-1.011225292825525,-2.9294073807569343,-2.7128605934004875
1.3643968105316162,0.0072808340191841125,-0.06290918588638306,0.05185139179229736,-9.597991943359375,-3.3034377098083496,0.11238369345664978,-0.9183962981396346,-2.987943525603066,-2.744664521392979
1.3741259574890137,0.0022617653012275696,0.06039398908615112,0.018714606761932373,-9.18355941772461,-3.330913782119751,-0.023383408784866333,-0.8245436852928683,-3.036521462862053,-2.7645078352314125
1.3838059902191162,-0.01771712675690651,0.20288068056106567,-0.061747610569000244,-7.926423072814941,-3.1788880825042725,-0.208818256855011,-0.7386553432941607,-3.075445180483255,-2.7732926994323255
1.3939340114593506,-0.05468010902404785,0.28190070390701294,-0.2015821933746338,-5.854496479034424,-2.9784116744995117,-0.5494237542152405,-0.6691520143246649,-3.106227907886479,-2.773076596834597
1.4038259983062744,-0.07005154341459274,0.2797379493713379,-0.3404077887535095,-3.6276450157165527,-2.627504348754883,-0.8939100503921509,-0.6218268869354828,-3.129763776032464,-2.7653864136184425
1.414189100265503,-0.09294102340936661,0.26206302642822266,-0.4132474660873413,-2.196502208709717,-2.176969051361084,-1.0547044277191162,-0.5932863966637162,3.13609003078405,-2.753436478404794
1.4238018989562988,-0.060739193111658096,0.1201285719871521,-0.3655221462249756,-1.9016575813293457,-1.7164852619171143,-0.9678270220756531,-0.573609671070929,3.1235595341289955,-2.7408332687523687
1.4340670108795166,0.00377696193754673,-0.01583927869796753,-0.12585711479187012,-2.2671046257019043,-1.338265061378479,-0.6965581774711609,-0.5531032347688714,3.113946424959963,-2.730370921986468
1.4439079761505127,0.11009956896305084,-0.059076011180877686,0.21854829788208008,-2.605898141860962,-1.0613164901733398,-0.4727565348148346,-0.5286029300958291,3.105951938935045,-2.7227088722049886
1.4547231197357178,0.20897547900676727,-0.07468146085739136,0.47626692056655884,-2.516706943511963,-0.7866297960281372,-0.3586776852607727,-0.5028309020177968,3.0995666978597365,-2.7168351776495325
1.4643690586090088,0.22550788521766663,-0.0657920241355896,0.5268887281417847,-2.119457244873047,-0.5044851303100586,-0.33212944865226746,-0.47961451559539614,3.0954283195750887,-2.711793588234907
1.4739210605621338,0.18875454366207123,-0.04703649878501892,0.44180452823638916,-1.5901931524276733,-0.24099764227867126,-0.37517592310905457,-0.46127768627147786,3.0939522684646112,-2.7068464509728942
1.4839138984680176,0.16828058660030365,-0.08638402819633484,0.34757620096206665,-1.3211102485656738,-0.01001155935227871,-0.41190916299819946,-0.44716107402375327,3.0949949707491933,-2.7016768512456193
1.4938290119171143,0.14502371847629547,-0.14252987504005432,0.2966463565826416,-1.3550283908843994,0.19457487761974335,-0.31942272186279297,-0.4340628767734965,3.0979898903892447,-2.6968810830379657
1.5038831233978271,0.13047966361045837,-0.15312060713768005,0.29760050773620605,-1.4023253917694092,0.2941318154335022,-0.2260986566543579,-0.4203665186171097,3.101972118780214,-2.6932450208729195
1.5140278339385986,0.12621209025382996,-0.15286767482757568,0.31963592767715454,-1.4203323125839233,0.33886411786079407,-0.10973826795816422,-0.40624410133179434,3.1061616995274033,-2.6908421576168284
1.523871898651123,0.13227492570877075,-0.13338524103164673,0.3304745554924011,-1.3986482620239258,0.4130006730556488,0.0038237106055021286,-0.39217047978937786,3.1103256833115154,-2.6897368812098827
1.5340309143066406,0.10179848223924637,-0.14796826243400574,0.2536492347717285,-1.22909677028656,0.47601789236068726,0.11144183576107025,-0.37889292923140017,3.114711432682618,-2.6899905242917117
1.544043779373169,0.050675246864557266,-0.14729934930801392,0.12679660320281982,-1.0114104747772217,0.5011749267578125,0.18940295279026031,-0.36768647749444033,3.1191406010411384,-2.6912991492136022
1.5542938709259033,0.005025684833526611,-0.08929023146629333,0.04149651527404785,-0.8878356218338013,0.5249835252761841,0.2842472195625305,-0.3581922053165862,3.1234634958505945,-2.693611065364821
1.56467604637146,-0.02525269240140915,-0.08598750829696655,-0.008637547492980957,-0.7903857827186584,0.5159026980400085,0.3670941889286041,-0.3497584332081839,3.127526996883935,-2.6969797343160034
1.5741398334503174,-0.05702415108680725,-0.07910898327827454,-0.04898643493652344,-0.7618012428283691,0.4693046510219574,0.4032733738422394,-0.3419442151399888,3.1311110213005873,-2.7010173680860667
1.5840539932250977,-0.07962442934513092,-0.028022706508636475,-0.0951465368270874,-0.7363195419311523,0.37592172622680664,0.3808727264404297,-0.3344229503632832,3.1340120654431427,-2.705134090798728
1.594026803970337,-0.10193056613206863,-0.006666243076324463,-0.1260899305343628,-0.721201479434967,0.2608908414840698,0.32857003808021545,-0.3270884532212863,3.1359992978401787,-2.708883036788946
1.6048119068145752,-0.10508514195680618,0.02380874752998352,-0.1275491714477539,-0.6918885707855225,0.1585937887430191,0.2584410309791565,-0.32001993364975423,3.1371098540494917,-2.711953590750546
1.616055965423584,-0.09226717799901962,0.08211487531661987,-0.12660443782806396,-0.6691806316375732,0.08259573578834534,0.17512978613376617,-0.3132093250706132,3.137569558584555,-2.714211608332961
1.6240990161895752,-0.09244540333747864,0.11440491676330566,-0.12146437168121338,-0.6193094849586487,0.05549834296107292,0.09923422336578369,-0.3067017381614143,3.1378231452254375,-2.7156110210522044
1.6341187953948975,-0.08996305614709854,0.1329188346862793,-0.10641419887542725,-0.5385755896568298,0.055791955441236496,0.037106405943632126,-0.30090771064485705,3.1381604317890934,-2.7162892541999493
1.6441779136657715,-0.09538715332746506,0.16774889826774597,-0.12142288684844971,-0.41330182552337646,0.05589688569307327,-0.012667807750403881,-0.29610832594543324,3.1387003487318825,-2.7164098398209275
1.6541829109191895,-0.10554585605859756,0.17433416843414307,-0.14881765842437744,-0.29458823800086975,0.014073137193918228,-0.05653209611773491,-0.2926232973342434,3.1391693676784267,-2.716022592868189
1.6665318012237549,-0.09461124986410141,0.16283175349235535,-0.14165592193603516,-0.23551559448242188,-0.04307510331273079,-0.08744367212057114,-0.29003973563064567,3.13930835492213,-2.715282020869018
1.6742808818817139,-0.07059768587350845,0.1619758903980255,-0.12589049339294434,-0.23138868808746338,-0.07247555255889893,-0.09981011599302292,-0.2876375729767915,3.13901963098554,-2.7142818378486484
1.684230089187622,-0.0540684312582016,0.13082361221313477,-0.11865460872650146,-0.1382794976234436,-0.12695610523223877,-0.11920724809169769,-0.28575396241975964,3.138357255066007,-2.7131485953385597
1.6941719055175781,-0.041138626635074615,0.10782721638679504,-0.11843729019165039,-0.08849608898162842,-0.17796590924263,-0.13817603886127472,-0.2847218515315735,3.1372034506079234,-2.711788496644409
1.7042601108551025,-0.02447136864066124,0.10803964734077454,-0.11721473932266235,-0.10725060105323792,-0.2078993022441864,-0.12191903591156006,-0.2837214706182266,3.1356519345262632,-2.7104171437053237
1.7142739295959473,-0.004225595388561487,0.07719972729682922,-0.09171402454376221,-0.0924001932144165,-0.22797219455242157,-0.09845781326293945,-0.2827064147196669,3.1337918193416123,-2.7092527960375485
1.7241640090942383,0.025581931695342064,0.056246399879455566,-0.03449583053588867,-0.051320407539606094,-0.22692158818244934,-0.07280465215444565,-0.28197879382245267,3.1317514680816916,-2.708366461043649
1.7344310283660889,0.056320399045944214,0.057889729738235474,0.021503806114196777,-0.025818457826972008,-0.17326222360134125,-0.04923386126756668,-0.2816340715777889,3.129869640859142,-2.7077136327121982
1.7440779209136963,0.07259314507246017,0.042946428060531616,0.06147122383117676,0.003856878960505128,-0.08428547531366348,-0.02052578330039978,-0.28154397981708507,3.1286539288267696,-2.7073421921840857
1.7543838024139404,0.07995400577783585,0.024432897567749023,0.10200273990631104,0.04758894816040993,0.01300734095275402,0.005806327797472477,-0.2818187846845397,3.1283256564290927,-2.7072710637182076
1.7644739151000977,0.0834256261587143,0.02358737587928772,0.11837387084960938,0.08499916642904282,0.08439470827579498,0.011853567324578762,-0.2824925496217849,3.1288079585481703,-2.707388847808008
1.7743618488311768,0.07852980494499207,0.01998978853225708,0.11283993721008301,0.1267455667257309,0.12316637486219406,0.007263182662427425,-0.2835377544151181,3.1298395654255464,-2.707514992197311
1.7840778827667236,0.06710708141326904,0.0034023821353912354,0.09774672985076904,0.17768491804599762,0.1037556603550911,-0.00014972558710724115,-0.2850968386457986,3.130985485594912,-2.7075582760053147
1.7940881252288818,0.05156058818101883,-0.0028000175952911377,0.0626143217086792,0.13036054372787476,0.07151064276695251,-0.007468624971807003,-0.286726758338146,3.1318736246511008,-2.7075252822774045
1.804292917251587,0.03896370530128479,0.00587800145149231,0.03176248073577881,0.040387243032455444,0.04035058990120888,0.0010241959244012833,-0.2875585111258025,3.1324512695117477,-2.7075012249978583
1.814565896987915,0.0221991129219532,-0.0102805495262146,0.008694767951965332,0.025760579854249954,-0.002193006221204996,0.01015995629131794,-0.2878444067456648,3.1325987518969876,-2.7075727932421128
1.8242228031158447,0.013865659013390541,-0.013562768697738647,0.0039945244789123535,0.08292160928249359,-0.034968532621860504,0.005303416401147842,-0.28837116182242567,3.132324514289205,-2.707683407991542
1.8345270156860352,0.013741985894739628,0.006909877061843872,-0.007131040096282959,0.13407498598098755,-0.04119877144694328,-0.001356563763692975,-0.2894743260987726,3.13185806557653,-2.707743117352358
1.8443078994750977,0.0007795998826622963,-0.0006544291973114014,-0.026206254959106445,0.13684813678264618,-0.038572363555431366,-0.007869590073823929,-0.29083972382455475,3.1314000842760463,-2.7077179839396948
1.8562958240509033,-0.004135182127356529,0.0039643943309783936,-0.02263021469116211,0.08198601752519608,-0.03423895686864853,-0.026779046282172203,-0.29195960958528505,3.1309808622811275,-2.707581636586229
1.8662309646606445,-0.002970147877931595,0.002128809690475464,-0.001387178897857666,0.030675161629915237,-0.01783095672726631,-0.03212294727563858,-0.2924901241400856,3.130729789346998,-2.7072792485935704
1.874419927597046,-0.0027273930609226227,-0.0059258341789245605,0.01911073923110962,0.022310588508844376,-0.010939003899693489,-0.046170324087142944,-0.29266335139485483,3.1306162148984744,-2.7069214049267845
1.8844408988952637,-0.00784146785736084,-0.006775021553039551,0.029047012329101562,0.04122808575630188,0.005900695454329252,-0.06592351943254471,-0.29299254826732807,3.130676394178767,-2.70635701946584
1.8945519924163818,0.0016873488202691078,-0.0017645061016082764,0.04094123840332031,0.07715864479541779,0.03937365487217903,-0.07058122754096985,-0.29356043277400873,3.131064780457776,-2.7056620063952534
1.904325008392334,-0.0019076187163591385,-0.018328428268432617,0.04223775863647461,0.11392012238502502,0.06603509187698364,-0.05837809294462204,-0.2944777341039584,3.1317698614814757,-2.705012996466679
1.9147329330444336,-0.010855849832296371,-0.014506250619888306,0.026555955410003662,0.13949234783649445,0.07903331518173218,-0.04442403465509415,-0.2957776085939479,3.1326205232904094,-2.7044955651818756
1.9243957996368408,-0.013420279137790203,-0.009579002857208252,0.02354353666305542,0.16354122757911682,0.07852865010499954,-0.020037200301885605,-0.2972947552902245,3.1335090889587307,-2.704187618541947
1.9345438480377197,-0.017406035214662552,-0.01767265796661377,0.026049435138702393,0.13338570296764374,0.07961668074131012,0.0025806003250181675,-0.29883399106184194,3.134332181939622,-2.7040958773822084
1.9445350170135498,-0.020515359938144684,-0.01496666669845581,0.019307971000671387,0.09790732711553574,0.07374920696020126,0.02412131242454052,-0.2999463611585487,3.13505207324599,-2.7042589958615455
1.954591989517212,-0.023994898423552513,-0.014817982912063599,0.016082823276519775,0.10424438118934631,0.06652289628982544,0.026222066953778267,-0.3007651528688233,3.135656954561724,-2.7045328349728024
1.9646759033203125,-0.0248910803347826,-0.029646724462509155,0.017008662223815918,0.13983887434005737,0.06778550148010254,0.016456786543130875,-0.30173706028843916,3.1362986856978994,-2.704745857272957
1.9744739532470703,-0.024281874299049377,-0.020844250917434692,0.011019229888916016,0.15276752412319183,0.08579917252063751,0.026440393179655075,-0.3030016568734725,3.136934887169302,-2.7049901759427617
1.9845788478851318,-0.02958047389984131,-0.018248707056045532,-0.00405728816986084,0.16485081613063812,0.08925621956586838,0.030611436814069748,-0.30418317603713185,3.137712845234322,-2.705310076519992
1.9947068691253662,-0.03121303953230381,-0.01802930235862732,-0.011446833610534668,0.17693151533603668,0.07199756056070328,0.030850855633616447,-0.30560091021983593,3.138511248951049,-2.7056240710303205
2.0045340061187744,-0.023358775302767754,-0.016962528228759766,-0.005800902843475342,0.1688040792942047,0.05239536240696907,0.02647501416504383,-0.30707460423198324,3.139145915760948,-2.7059050640126703
2.0154120922088623,-0.019203083589673042,-0.011916518211364746,-0.004843771457672119,0.16863316297531128,0.03822707757353783,0.02037392556667328,-0.3084244142330641,3.1396789054506455,-2.7060997836191714
2.0245609283447266,-0.014273895882070065,-0.014535605907440186,0.0018495917320251465,0.15857920050621033,0.03975360095500946,0.020844772458076477,-0.3097642038704938,3.1401753783312816,-2.7062602532613282
2.0348780155181885,-0.008874399587512016,-0.01070818305015564,0.006107330322265625,0.1531987190246582,0.04044424369931221,0.018521057441830635,-0.31101688057754406,3.140749585091575,-2.706405890804144
2.0445730686187744,-0.005735150538384914,-0.0065667033195495605,0.008707761764526367,0.1467490792274475,0.046623311936855316,0.009481756016612053,-0.31208425054264033,3.141370327126498,-2.7064783966066304
2.0546329021453857,-0.0015825848095119,-0.013083279132843018,0.021361947059631348,0.15148140490055084,0.07907091081142426,0.008955995552241802,-0.31324001793966605,-3.1409947772590905,-2.7064983907317903
2.064634084701538,0.006337868049740791,-0.012647449970245361,0.03345990180969238,0.1722460836172104,0.11399880051612854,0.013522251509130001,-0.3145624803836551,-3.139757767868187,-2.7065372512876102
2.0747830867767334,0.006189093925058842,-0.01617753505706787,0.023175358772277832,0.1952715516090393,0.1361563503742218,0.007249868009239435,-0.3161731357960256,-3.1382275987900297,-2.7065463652763264
2.0845978260040283,0.005516713485121727,-0.012106060981750488,0.01690220832824707,0.22094468772411346,0.14654800295829773,0.011069105938076973,-0.3180066831440313,-3.1366362469364257,-2.7065687938378247
2.0953309535980225,0.006985722575336695,-0.023771673440933228,0.01975548267364502,0.27045294642448425,0.14593134820461273,0.015546945855021477,-0.32026469597355667,-3.13505266413728,-2.706645624814208
2.10475492477417,0.0069148605689406395,-0.026383519172668457,0.015610218048095703,0.26154839992523193,0.14227083325386047,0.024979861453175545,-0.32271198086541936,-3.1335935237479093,-2.7068080352649133
2.1156580448150635,0.00569754745811224,-0.017389506101608276,0.00872659683227539,0.21406468749046326,0.1482887864112854,0.04977991059422493,-0.3248779601751252,-3.132263789546184,-2.7071629500605856
2.1246399879455566,0.002199131064116955,-0.017690271139144897,0.011349856853485107,0.23163676261901855,0.1487436443567276,0.060933228582143784,-0.3268382214806616,-3.1309891085968546,-2.7077643718944198
2.1351521015167236,-0.0009519588202238083,-0.025881141424179077,0.012592732906341553,0.3041243255138397,0.14429141581058502,0.05173562839627266,-0.3291882260014458,-3.1297794254905758,-2.7083530241130838
2.1447088718414307,-0.00151791051030159,-0.011097341775894165,-0.005399048328399658,0.41724953055381775,0.12993964552879333,0.041009481996297836,-0.33243315388165917,-3.1287022160259363,-2.708866497787946
2.1549019813537598,-0.006426523439586163,-0.00499194860458374,-0.018326878547668457,0.46975547075271606,0.12714186310768127,0.027952855452895164,-0.33656666104318395,-3.1276924886232997,-2.709211698401974
2.1652557849884033,0.0013493485748767853,0.010118961334228516,-0.015258729457855225,0.46470052003860474,0.1372288465499878,0.02912837453186512,-0.34097830116571765,-3.1265762477979524,-2.7094707498825747
2.1752898693084717,0.004009508527815342,0.012106627225875854,-0.009387493133544922,0.5100847482681274,0.15347804129123688,0.03175712749361992,-0.34580302516509176,-3.1251985290517785,-2.7097295352556445
2.1847329139709473,0.0035251546651124954,0.002250581979751587,-0.0042498111724853516,0.6484895348548889,0.18145161867141724,0.01919526420533657,-0.35156560639196666,-3.1235994490652628,-2.7099113110698743
2.1947591304779053,0.014156123623251915,0.026445478200912476,0.0019065141677856445,0.8741145730018616,0.23285026848316193,0.008718866854906082,-0.35915603401066476,-3.121531986026305,-2.709892613983192
2.2048189640045166,0.01545933447778225,0.0359036922454834,-0.01757049560546875,1.0415384769439697,0.28996551036834717,0.013751442544162273,-0.3688905213291591,-3.1188817729065104,-2.709766407205447
2.214905023574829,0.010894274339079857,0.039636075496673584,-0.037317633628845215,1.0157907009124756,0.29951149225234985,0.019141945987939835,-0.3793062096258003,-3.1158504084347842,-2.709703571273623
2.224743127822876,0.014223821461200714,0.05169647932052612,-0.021791160106658936,0.8302350640296936,0.2829495370388031,0.01916378363966942,-0.38866388145841474,-3.1128958956609787,-2.7096373679154913
2.2348239421844482,0.014073796570301056,-0.003965467214584351,0.03415787220001221,0.6052441000938416,0.25927790999412537,0.026116766035556793,-0.39576218726381274,-3.110178130364857,-2.7096304124618853
2.244821786880493,0.027655094861984253,-0.07865175604820251,0.0971572995185852,0.6108583211898804,0.24725188314914703,0.02771439589560032,-0.4017334969256235,-3.1077092875297327,-2.7097241546538964
2.255640983581543,0.03888322040438652,-0.04953962564468384,0.10207629203796387,0.7657886743545532,0.28639450669288635,0.021968785673379898,-0.40854252860144313,-3.1050671787966513,-2.7097369313100432
2.2655417919158936,0.02985873445868492,0.019945859909057617,0.041667819023132324,1.0827802419662476,0.3561445474624634,0.003127453848719597,-0.4176923757745667,-3.101786717076223,-2.709515203584532
2.274714946746826,0.011627979576587677,0.013499796390533447,-0.00559544563293457,1.5365407466888428,0.4510836601257324,-0.019986175000667572,-0.4307427790998295,-3.09746317543876,-2.708803158034575
2.284817934036255,0.00774996355175972,0.014667242765426636,-0.030147194862365723,2.026527166366577,0.5757677555084229,-0.013401241973042488,-0.4485578759948071,-3.0918556923649456,-2.7076707270015583
2.294771909713745,0.005669549107551575,0.048030346632003784,-0.049935877323150635,2.476487159729004,0.7255631685256958,0.03688637539744377,-0.4711115295156361,-3.084785849510194,-2.706417283557048
2.304940938949585,0.002166748046875,0.060518503189086914,-0.05272567272186279,2.7779884338378906,0.813046932220459,0.13014094531536102,-0.4975539902064193,-3.076622545218072,-2.7055163667094826
2.315617799758911,0.0050005242228507996,0.08207279443740845,-0.03321671485900879,2.995297431945801,0.8503677845001221,0.24402795732021332,-0.526566353248588,-3.0682153810330504,-2.7053842650637225
2.3248589038848877,0.018103405833244324,0.08214277029037476,0.026003599166870117,3.1096725463867188,0.8650060892105103,0.32186707854270935,-0.5573345534763147,-3.0599024780849726,-2.705935622605885
2.335582971572876,0.03468836098909378,0.02739924192428589,0.09224939346313477,3.175107955932617,0.9073394536972046,0.3910463750362396,-0.5890029962732339,-3.051600222068618,-2.706967829066335
2.344834089279175,0.03498421609401703,0.002336859703063965,0.11889791488647461,3.3403661251068115,0.9679652452468872,0.42871996760368347,-0.6217658860474263,-3.042922790201777,-2.7081839236567102
2.355346918106079,0.025498300790786743,-0.0063523054122924805,0.10662442445755005,3.572194814682007,1.0548540353775024,0.46280866861343384,-0.6566449908528454,-3.033458242763581,-2.709295505620123
2.3656489849090576,0.01576879620552063,-0.01734262704849243,0.07434999942779541,3.87105655670166,1.1569101810455322,0.5110659599304199,-0.6941513886485271,-3.0229039292205035,-2.7100791125408454
2.374987840652466,0.009078726172447205,-0.008224666118621826,0.04828768968582153,4.315780162811279,1.250614881515503,0.5559365749359131,-0.7354198617697897,-3.0110116855889246,-2.710376192400084
2.3851358890533447,0.0004162639379501343,0.00012546777725219727,0.038059890270233154,4.8590545654296875,1.325546383857727,0.5871277451515198,-0.7816465659523772,-2.997542409453473,-2.709540809181778
2.3949949741363525,0.011730648577213287,0.02661663293838501,0.047642529010772705,5.618488311767578,1.381591558456421,0.6272115111351013,-0.8342965753414961,-2.9819490705093004,-2.7067847092745616
2.405057907104492,0.015951722860336304,0.055086374282836914,0.06949269771575928,6.438660621643066,1.3649673461914062,0.6290096640586853,-0.8949046044338499,-2.9635411700750964,-2.700713368864828
2.4157679080963135,0.020207479596138,0.07446181774139404,0.09370601177215576,7.152964115142822,1.3169327974319458,0.6179617047309875,-0.9630002210829178,-2.941180454829952,-2.6895712774628264
2.424980878829956,0.022259294986724854,0.10695749521255493,0.15665525197982788,7.830343723297119,1.3099225759506226,0.5436123609542847,-1.0375910866401035,-2.9119794484130006,-2.670529798714207
2.435030937194824,0.017824247479438782,0.11890053749084473,0.2304787039756775,8.431755065917969,1.3198024034500122,0.4570932686328888,-1.1177205181352958,-2.8702064724889587,-2.638067644815176
2.445038080215454,0.009673133492469788,0.07778376340866089,0.27836140990257263,8.8353271484375,1.3051992654800415,0.3538094758987427,-1.2018252485481056,-2.8066300495609298,-2.583091020351846
2.455037832260132,0.0012875199317932129,0.05964463949203491,0.29639932513237,8.908035278320312,1.394101619720459,0.22602365911006927,-1.2854566666238105,-2.7017156198645464,-2.4866621809936893
2.465451955795288,-0.019971348345279694,0.08616554737091064,0.3249932527542114,8.596919059753418,1.5095165967941284,0.16173867881298065,-1.3624726560813631,-2.516258575461073,-2.3105398877436647
2.475120782852173,-0.05007893592119217,0.0870288610458374,0.3433276414871216,7.970913410186768,1.6759483814239502,0.16265496611595154,-1.4225817975007575,-2.175449776411359,-1.9806731658904273
2.4854891300201416,-0.05622570961713791,0.07385313510894775,0.3609877824783325,7.158443927764893,1.8683949708938599,0.2280648648738861,-1.4499395221851012,-1.6260435992014437,-1.4444248159573407
2.495518922805786,-0.06820238381624222,0.04046231508255005,0.3545469641685486,6.578007698059082,2.1094093322753906,0.39419758319854736,-1.437342263573654,-1.0709387738630693,-0.9051764456933323
2.5051510334014893,-0.09149966388940811,0.003291904926300049,0.32133007049560547,6.040977954864502,2.190286874771118,0.545375645160675,-1.4007048277853344,-0.7068385640845078,-0.5587760393038919
2.515434980392456,-0.08538617938756943,0.015793263912200928,0.2795119285583496,5.6338114738464355,2.1804301738739014,0.4935321807861328,-1.3554279247892909,-0.4935444525570934,-0.36387181978728195
2.525071859359741,-0.08793460577726364,0.06559401750564575,0.3076283931732178,5.4786481857299805,2.0150399208068848,0.4143393337726593,-1.3066674244892953,-0.36130622965126874,-0.24953858387333813
2.535207986831665,-0.1208440288901329,-0.01647317409515381,0.35244303941726685,5.39622163772583,1.7604957818984985,0.3261360824108124,-1.25615073645041,-0.2734036905468464,-0.17759181059137216
2.545232057571411,-0.09234906733036041,-0.0950690507888794,0.3778254985809326,5.589657783508301,1.6346547603607178,0.24608546495437622,-1.2035675752476844,-0.2116891771316656,-0.1300992964460942
2.55509090423584,-0.06261704117059708,-0.03939884901046753,0.3738318085670471,5.804036617279053,1.3348193168640137,0.21242986619472504,-1.1478812408908852,-0.1655795106964874,-0.09633235791095032
2.5655081272125244,-0.05078825354576111,0.06593817472457886,0.3150070309638977,5.833105564117432,1.1566396951675415,0.14578533172607422,-1.0903199879635805,-0.1317582789968955,-0.07247293135602918
2.5757579803466797,-0.019079066812992096,0.15638649463653564,0.31437623500823975,5.6427507400512695,1.2302422523498535,0.16746921837329865,-1.033362052434998,-0.10509999693764746,-0.05548195644560195
2.5866711139678955,-0.026633363217115402,0.11654025316238403,0.2743264436721802,5.328451633453369,1.29678213596344,0.24593472480773926,-0.9787669062412773,-0.08098474398246852,-0.041985386303619324
2.595216989517212,-0.058986879885196686,0.07128888368606567,0.20123696327209473,4.917225360870361,1.3663407564163208,0.25903812050819397,-0.9277330881841925,-0.05899877817877604,-0.031356680616718896
2.605396032333374,-0.06867434084415436,0.054078102111816406,0.1848374605178833,4.493607997894287,1.4941976070404053,0.287992000579834,-0.8808336504789496,-0.03837403090500332,-0.023294642990888313
2.6154448986053467,-0.07963023334741592,0.01149517297744751,0.18101221323013306,4.272419452667236,1.639173150062561,0.4072944223880768,-0.837140422360846,-0.01707710980056887,-0.01614885985169161
2.625255823135376,-0.09279417991638184,0.0017927289009094238,0.15402889251708984,4.062411308288574,1.4976450204849243,0.4302237033843994,-0.795430314807645,0.003561253222446147,-0.00941951581920778
2.635732889175415,-0.08006566762924194,0.056079089641571045,0.15065395832061768,3.9597666263580322,1.4479748010635376,0.3337266445159912,-0.7553294321853626,0.021425314552541944,-0.004828798290583235
2.645303964614868,-0.06573979556560516,0.05859661102294922,0.22714239358901978,3.940141439437866,1.3127388954162598,0.3389866352081299,-0.7157533920898402,0.03730297855392735,-0.0018839752477870968
2.6555709838867188,-0.06552688777446747,-0.005454897880554199,0.21701186895370483,4.067028999328613,1.1457841396331787,0.32335686683654785,-0.675629931653995,0.051008622876444046,0.00016360712724687235
2.6664979457855225,-0.04794405400753021,0.04991960525512695,0.2201271653175354,4.168545246124268,0.9127714037895203,0.2711746096611023,-0.6342418236770772,0.06168014307099178,0.0009821083729669735
2.6754519939422607,-0.019308269023895264,0.1267920732498169,0.22141683101654053,4.144283294677734,0.7967513799667358,0.2447233498096466,-0.5924421021592965,0.07010675431166176,0.0007365712872289047
2.686124086380005,-0.007738165557384491,0.14539861679077148,0.20562434196472168,3.9092860221862793,0.7200751900672913,0.23726889491081238,-0.551886241924866,0.0772748755334169,7.723080536951963e-05
2.6954329013824463,-0.014494828879833221,0.11837992072105408,0.1658758521080017,3.4107842445373535,0.765325129032135,0.20096032321453094,-0.5150541663632068,0.08417134309879762,-0.0008153479637204995
2.7054378986358643,-0.023555368185043335,0.05730581283569336,0.15406233072280884,2.862044095993042,0.946964681148529,0.19687104225158691,-0.4836891874391411,0.09220075238945978,-0.0017523663396200543
2.715941905975342,-0.04285181313753128,-0.02115178108215332,0.1267186403274536,2.4110329151153564,1.035335659980774,0.25384223461151123,-0.4572197201254314,0.1021828215507405,-0.002071246603637721
2.725433111190796,-0.059447698295116425,-0.07159668207168579,0.09509104490280151,2.0529086589813232,1.0037111043930054,0.21194511651992798,-0.43485880415484496,0.11233844524419902,-0.002089047481414014
2.7359588146209717,-0.05433037877082825,-0.049768298864364624,0.09793967008590698,1.8845847845077515,1.0177650451660156,0.1880687028169632,-0.41516941362554566,0.12231202008673078,-0.0024810360572978525
2.745400905609131,-0.03509681671857834,-0.04436877369880676,0.10840409994125366,1.9432915449142456,0.9843306541442871,0.22681716084480286,-0.39602456441727635,0.13228481522541896,-0.002887031924239833
2.755479097366333,-0.023576155304908752,-0.026565343141555786,0.07908326387405396,2.1611087322235107,0.8309726119041443,0.2361081838607788,-0.3754255684337873,0.14119163484908792,-0.0034067425543090283
2.7656948566436768,-0.011946141719818115,0.04665789008140564,0.06945008039474487,2.400010108947754,0.6476570963859558,0.23081248998641968,-0.3524551493375824,0.14816463530577692,-0.004477277591288806
2.7754249572753906,0.01198326051235199,0.0936201810836792,0.07327932119369507,2.6368634700775146,0.6056064367294312,0.2868726849555969,-0.3271630597255004,0.15388896756625942,-0.005832830392855419
2.7854819297790527,0.02792242169380188,0.10452011227607727,0.05841386318206787,2.8398821353912354,0.5226960778236389,0.37360039353370667,-0.29953615581981163,0.15928682885591774,-0.006865689887991014
2.795480966567993,0.031807586550712585,0.1238287091255188,0.02364736795425415,2.963538646697998,0.4362984597682953,0.41841354966163635,-0.27016230255283763,0.163868146962636,-0.007667878304306144
2.8054630756378174,0.02032773196697235,0.13962021470069885,0.03762000799179077,2.9736242294311523,0.4070769250392914,0.429203063249588,-0.24004350502104044,0.16783557167249635,-0.008406485522646445
2.8160629272460938,0.01617620885372162,0.1035042256116867,0.0547260046005249,2.861403226852417,0.43067583441734314,0.41114118695259094,-0.2104855390512728,0.1718534646256778,-0.00921378736272377
2.825551986694336,0.00238761305809021,0.047492071986198425,0.059685587882995605,2.682166576385498,0.4771610498428345,0.3868286609649658,-0.1824149946264139,0.1762212632796755,-0.010127469155695254
2.8357770442962646,-0.023020029067993164,-0.008121013641357422,0.07565408945083618,2.4612929821014404,0.5326772332191467,0.3719486892223358,-0.15641737204903544,0.18111495589702759,-0.010979964520088115
2.8455770015716553,-0.03423774242401123,-0.04876650869846344,0.08844220638275146,2.2779390811920166,0.542753279209137,0.36614298820495605,-0.13245118086485616,0.1864453983960331,-0.011676708195054314
2.855457067489624,-0.0323273241519928,-0.06119395047426224,0.09970104694366455,2.1532816886901855,0.5147353410720825,0.3466986119747162,-0.11001498894844798,0.19166331127021585,-0.012332157963315693
2.865696907043457,-0.021633580327033997,-0.047216035425662994,0.11197972297668457,2.034285545349121,0.4739232063293457,0.33977997303009033,-0.08877548094699471,0.19657909159594814,-0.013002896093481429
2.8755528926849365,-0.00989791750907898,-0.028042852878570557,0.11917191743850708,1.9063702821731567,0.4596605598926544,0.3396490216255188,-0.06873111293635135,0.20122404769517438,-0.013600189640495197
2.8858039379119873,-0.00040553510189056396,-0.027453135699033737,0.10734373331069946,1.694759726524353,0.4050910472869873,0.31783825159072876,-0.05034733218003419,0.20549177018246853,-0.014003327068426366
2.895634889602661,0.00523020327091217,-0.040952689945697784,0.08318758010864258,1.4018192291259766,0.42156749963760376,0.2559053897857666,-0.03455088572054347,0.20957488924520706,-0.014411181573163994
2.905817985534668,0.010532364249229431,-0.06015120446681976,0.0748637318611145,1.082895278930664,0.46325770020484924,0.23190177977085114,-0.02188391867296643,0.2140341675849847,-0.014650975209268058
2.9159109592437744,0.011876463890075684,-0.09093441069126129,0.04464077949523926,0.798306941986084,0.4968123435974121,0.1942916065454483,-0.012275674407571402,0.21880946276564656,-0.014558207513119285
2.9258410930633545,0.016744345426559448,-0.09014595299959183,0.013276398181915283,0.6242781281471252,0.5202391147613525,0.1907661110162735,-0.004986685695868969,0.22398785537347363,-0.014250702530553215
2.9362480640411377,0.02441944181919098,-0.07707113027572632,-0.009118616580963135,0.5276583433151245,0.4335934817790985,0.1771317422389984,0.0010233398990324159,0.22877665892305596,-0.013712025005462954
2.94582200050354,0.0390821248292923,-0.043514519929885864,-0.03167092800140381,0.45083168148994446,0.3516256511211395,0.13752707839012146,0.006152866828409882,0.2327006169801127,-0.013311173301942411
2.9556710720062256,0.054507821798324585,-0.002148304134607315,-0.026693999767303467,0.35657769441604614,0.28815746307373047,0.11334727704524994,0.01039459627827177,0.2358946388777604,-0.01302715051670286
2.9657750129699707,0.0571243017911911,0.005649097263813019,-0.03354579210281372,0.2311449497938156,0.22544480860233307,0.08387593924999237,0.013507772757758952,0.23847088897215082,-0.01275241170274092
2.9757587909698486,0.0514213889837265,-0.004732857458293438,-0.034026920795440674,0.07662948220968246,0.17616599798202515,0.028043776750564575,0.015149913369648898,0.24046763933771095,-0.012567309014575978
2.985611915588379,0.039165183901786804,-0.0213281512260437,-0.024987459182739258,-0.09127456694841385,0.1380702704191208,-0.023643651977181435,0.01507987709271966,0.2420424585125737,-0.012542757911050648
2.9956510066986084,0.027049005031585693,-0.04262271150946617,-0.012958347797393799,-0.23589476943016052,0.12147819995880127,-0.05865101143717766,0.013362171285784057,0.24332624795020302,-0.012545677865632267
3.0058839321136475,0.01870875060558319,-0.048009779304265976,-0.010288715362548828,-0.2949245572090149,0.11766055971384048,-0.07248453795909882,0.01055363740644897,0.24453797199364857,-0.012544103050271663
3.0159008502960205,0.01581975817680359,-0.03765931725502014,-0.017998576164245605,-0.2696440815925598,0.08289916068315506,-0.056275419890880585,0.007598312985221891,0.24554316630349513,-0.01246911383835305
3.02573299407959,0.014441698789596558,-0.013889169320464134,-0.03245437145233154,-0.17117555439472198,0.05721031129360199,-0.03450834006071091,0.005306400440600056,0.246252346044397,-0.01237758000656055
3.0358669757843018,0.018358737230300903,0.019026702269911766,-0.034777939319610596,-0.03185001760721207,0.022196399047970772,0.016753729432821274,0.004271454712319674,0.24666479275856143,-0.012224892562788341
3.0458669662475586,0.01800455152988434,0.042552970349788666,-0.03926271200180054,0.0796690508723259,-0.022354023531079292,0.049556951969861984,0.004634884443299276,0.2466528155693102,-0.011928023653861279
3.055806875228882,0.013688534498214722,0.05899927765130997,-0.037814438343048096,0.12369252741336823,-0.02047467604279518,0.05234038084745407,0.005776644165691833,0.2463845334099606,-0.011689887539902959
3.0658581256866455,0.007223144173622131,0.05182480067014694,-0.023362338542938232,0.16183272004127502,0.006560138426721096,0.08458353579044342,0.007330222827945205,0.2463983400225034,-0.011386877856540457
3.075819969177246,-0.0034566372632980347,0.015238874591886997,-0.018860816955566406,0.16888563334941864,-0.014858955517411232,0.07483402639627457,0.009150734076233258,0.24633777209038732,-0.01098318028822662
3.085871934890747,-0.014585509896278381,0.001677188090980053,-0.01371908187866211,0.16609065234661102,-0.018289906904101372,0.052317261695861816,0.010939479485835617,0.24614313010804725,-0.010789163063761762
3.095978021621704,-0.011570513248443604,0.009448609314858913,0.005581974983215332,0.1256932020187378,-0.024392051622271538,0.048529718071222305,0.012515940799475836,0.2459496575281317,-0.010657381748526793
3.1060688495635986,-0.0053948163986206055,-0.002007424831390381,0.003569960594177246,0.03606398403644562,-0.027807023376226425,0.013475858606398106,0.013434863310372682,0.24570516706207776,-0.010538196900210493
3.115961790084839,-0.009470418095588684,-0.01172949280589819,0.007110714912414551,-0.07776036858558655,-0.0009997771121561527,-0.02600198984146118,0.013081659521025349,0.24559541171196117,-0.010561434297672995
3.125910997390747,-0.012480735778808594,-0.0380953773856163,0.019605815410614014,-0.1535795032978058,0.02347094565629959,-0.04115058109164238,0.011633265659859953,0.24573699024018367,-0.01060420853188048
3.136286973953247,-0.016430184245109558,-0.05295812338590622,0.022978246212005615,-0.12467915564775467,0.03294305503368378,-0.02585412934422493,0.009923495545498732,0.246123027516332,-0.010598991378178458
3.145986795425415,-0.01960839331150055,-0.03096204251050949,0.0170137882232666,-0.045652780681848526,0.003996357321739197,-0.020654307678341866,0.008817723414213977,0.24628229303779448,-0.010604054146567054
3.155863046646118,-0.009464338421821594,0.00629044882953167,0.006361544132232666,0.08142166584730148,0.011402653530240059,0.018763139843940735,0.008899808015806634,0.246348545243536,-0.010688226820364887
3.1659138202667236,0.0017399191856384277,0.034106310456991196,-0.0010913610458374023,0.20762646198272705,-0.02542274072766304,0.06770111620426178,0.010455367030468803,0.24619055911455795,-0.010597710881953132
3.1758949756622314,0.0041864365339279175,0.04797230288386345,-0.020041286945343018,0.272757887840271,-0.037735819816589355,0.08103018254041672,0.012999511468857427,0.24581514781245664,-0.010465249598616043
3.1860578060150146,0.006707742810249329,0.053308259695768356,-0.017655372619628906,0.24898438155651093,-0.030824650079011917,0.07717206329107285,0.015787540681315115,0.24544392617528343,-0.010344558027635252
3.196013927459717,0.007096439599990845,0.026124704629182816,-0.013881027698516846,0.15516304969787598,-0.008471275679767132,0.0630025565624237,0.017992729104399544,0.24520981970205835,-0.010143700961599488
3.2062017917633057,0.0013189464807510376,-0.011918807402253151,-0.004890501499176025,0.0196414515376091,-0.006094138137996197,0.02692951075732708,0.019103462451565315,0.2451148075107699,-0.009907906327240054
3.2165229320526123,-0.0021715909242630005,-0.04006868228316307,0.004945933818817139,-0.10836884379386902,0.00033757323399186134,-0.017342722043395042,0.018846607833468084,0.24503110081179003,-0.00975928083448125
3.2259349822998047,0.002221018075942993,-0.05026768893003464,0.016430914402008057,-0.17555665969848633,1.3200566172599792e-05,-0.04018891602754593,0.017451693024598598,0.24496383163711932,-0.009692029152928971
3.236109972000122,0.008859306573867798,-0.04781189188361168,0.017158031463623047,-0.17532485723495483,-0.016562534496188164,-0.048998381942510605,0.015527952355066132,0.24486077766080727,-0.009690236761968014
3.2460100650787354,0.011788740754127502,-0.028498932719230652,0.013564109802246094,-0.12488618493080139,-0.04688475281000137,-0.04488752782344818,0.01378359723101589,0.24455579281389841,-0.009779401845053888
3.256016969680786,0.016111701726913452,3.8780272006988525e-06,0.00920182466506958,-0.05756174027919769,-0.04928692430257797,-0.03224017843604088,0.012592700433253532,0.24404374933528009,-0.009942618666500409
3.2660601139068604,0.019136488437652588,0.01951615698635578,0.0032477378845214844,0.04083380475640297,-0.03207571431994438,0.009085157886147499,0.01228378787293325,0.2436931773379714,-0.010053813574801427
3.2760260105133057,0.014065861701965332,0.027029044926166534,-0.0020209550857543945,0.11970924586057663,-0.04853866994380951,0.030175315216183662,0.01306761382492504,0.2432916859909784,-0.010029176907213225
3.2862517833709717,0.005254462361335754,0.03794901445508003,-0.007023751735687256,0.1622881293296814,-0.04819805175065994,0.03119450993835926,0.014603574331180563,0.2428168587776851,-0.010075037425506202
3.296394109725952,0.0038237720727920532,0.038904257118701935,0.004475772380828857,0.14892537891864777,-0.030521316453814507,0.025774603709578514,0.016383004748859297,0.24241118060954064,-0.010169309475571552
3.308264970779419,-0.0001465827226638794,0.015801744535565376,0.011445760726928711,0.08634829521179199,-0.006357391364872456,0.006758301053196192,0.017801573919106112,0.24226314151426978,-0.01028779236717834
3.318633794784546,-0.012829706072807312,-0.002399628981947899,0.021279454231262207,0.00875649694353342,0.027635373175144196,-0.020270919427275658,0.018429650613894594,0.24244204760904553,-0.010462341274059274
3.326220989227295,-0.019365668296813965,-0.01648806594312191,0.024170756340026855,-0.04927990958094597,0.04298822954297066,-0.042700860649347305,0.018226676728100723,0.2428709763045955,-0.010721712515875928
3.3363120555877686,-0.01672467589378357,-0.02422480285167694,0.023890554904937744,-0.05129237473011017,0.04981520026922226,-0.05160178244113922,0.017569911863257705,0.2434485805956342,-0.011068362572095664
3.346282958984375,-0.015587970614433289,-0.018373634666204453,0.022935688495635986,-0.02482747845351696,0.031497180461883545,-0.05647696554660797,0.016920738790189474,0.24397269361764035,-0.011494766673621589
3.3562169075012207,-0.011611312627792358,-0.006603546440601349,0.021499335765838623,0.007229006849229336,0.02070547454059124,-0.05125749111175537,0.016529517914929112,0.2443231224630994,-0.012002646381610759
3.36628794670105,-0.005775481462478638,0.01008344255387783,0.019604980945587158,0.017474453896284103,0.018339255824685097,-0.040871698409318924,0.016324999595317677,0.2445352822071703,-0.012482335796664135
3.376466989517212,-0.002098172903060913,0.00846850499510765,0.011300623416900635,0.00130530446767807,0.021865367889404297,-0.03649532422423363,0.01608332306737111,0.24475458198993888,-0.012882647328101954
3.3862950801849365,-0.0006210803985595703,-0.0007190518081188202,0.006387054920196533,-0.011466150172054768,0.033279143273830414,-0.029668575152754784,0.01582212266508778,0.24502406094198884,-0.013205928440648163
3.398163080215454,0.002804115414619446,-0.008448900654911995,0.0033086538314819336,-0.013849047012627125,0.03393694758415222,-0.017719238996505737,0.015691134461513472,0.24526778645863345,-0.013402987337739774
3.4064481258392334,0.003313392400741577,-0.008644696325063705,0.0012122392654418945,-0.026936884969472885,0.01882830075919628,-0.0140976058319211,0.01567844330751017,0.24535618895437813,-0.013497760501062836
3.416468858718872,0.004369094967842102,-0.0009294040501117706,0.001004636287689209,-0.045141275972127914,0.019555654376745224,-0.009510204195976257,0.015581224017460702,0.24540010128681902,-0.013527709368825394
3.4264280796051025,0.01242762804031372,-0.0013461699709296227,0.002119898796081543,-0.06197511404752731,0.007413770072162151,0.0013184751151129603,0.01528649259211101,0.24541273723357138,-0.0134325632257954
3.4365108013153076,0.011901900172233582,-0.00403214618563652,0.0004374980926513672,-0.08024691045284271,-0.00664909603074193,-0.002020329935476184,0.014690903837612844,0.24533897050877343,-0.013253850859408528
3.4463789463043213,0.010752275586128235,-3.937724977731705e-05,0.0033881068229675293,-0.1045469269156456,-0.020067967474460602,-0.007971429266035557,0.013693949686268126,0.24518350104751443,-0.013074630256296757
3.4564430713653564,0.014361664652824402,-0.0006164936348795891,0.006110489368438721,-0.11471041291952133,-0.0258981604129076,-0.006027428433299065,0.012536899336072695,0.24496664569161683,-0.0128837147777103
3.467603921890259,0.012091532349586487,-0.00014215707778930664,0.00845181941986084,-0.11724627763032913,-0.03583121672272682,-0.005623160861432552,0.011439501535749144,0.24467671672033672,-0.012659533994642027
3.4764699935913086,0.010010838508605957,0.003499089740216732,0.0094069242477417,-0.09944125264883041,-0.03362913802266121,-0.002133887028321624,0.010503055979559446,0.24436526725825145,-0.012434398881072511
3.4863898754119873,0.008878827095031738,0.012804465368390083,0.00933682918548584,-0.07446825504302979,-0.02978353388607502,0.013637619093060493,0.009829146716397556,0.24411485827204674,-0.012173622708538312
3.496699094772339,0.007553026080131531,0.01718376949429512,0.0040313005447387695,-0.041255488991737366,-0.03463834151625633,0.018889427185058594,0.009386653162661534,0.24386044524257997,-0.011871985577609694
3.5063939094543457,0.005506038665771484,0.0232774056494236,0.00299835205078125,-0.02208605408668518,-0.035015977919101715,0.01615142822265625,0.00920891985383072,0.24365800710147512,-0.011644063630032184
3.516429901123047,0.002591148018836975,0.02179775759577751,0.008846402168273926,-0.015550791285932064,-0.02028399333357811,0.014933459460735321,0.009163596943344805,0.243516860334517,-0.011455089462882161
3.5264089107513428,-0.001866564154624939,0.015181603841483593,0.011036276817321777,-0.020113851875066757,-0.013924631290137768,0.012559784576296806,0.009078201813705482,0.2434874391752638,-0.011272533870657535
3.5365641117095947,-0.005513057112693787,0.0118500841781497,0.005102276802062988,-0.023799914866685867,-0.00903120543807745,-0.0026520318351686,0.008920503332253462,0.2435496041250157,-0.011175298625137376
3.5481009483337402,-0.005485594272613525,0.010324053466320038,0.006869852542877197,-0.02231254056096077,0.004169551655650139,-0.005716265179216862,0.008706720241858047,0.24369378172936998,-0.011176631500305954
3.556389093399048,-0.0051514506340026855,0.004760448820888996,0.007496953010559082,-0.011117793619632721,-0.00894265528768301,-0.007841254584491253,0.008514201837403023,0.2438207549756535,-0.011194918568990263
3.5663788318634033,-0.007566049695014954,0.0072214435786008835,0.0031035542488098145,-0.00433978158980608,-0.013161634095013142,-0.02241194061934948,0.008274382812166714,0.24382410938776375,-0.01131583774122549
3.576457977294922,-0.0030559897422790527,0.00720722321420908,0.008276760578155518,-0.004019320011138916,-0.015893638134002686,-0.02735743299126625,0.008016011845612325,0.2437674146361796,-0.011562599626693044
3.5870888233184814,-0.0010360032320022583,0.0018828213214874268,0.009242594242095947,-0.015549741685390472,-0.011877059936523438,-0.032130882143974304,0.007620187566822276,0.2436977561013287,-0.011832948366086454
3.598017930984497,-0.005193784832954407,-0.0018314863555133343,0.007741689682006836,-0.03143350034952164,-0.004119980614632368,-0.039212651550769806,0.007094952936818004,0.24367295778142312,-0.012114054453627916
3.6064698696136475,-0.005099207162857056,-0.006680195219814777,0.002879023551940918,-0.04094791039824486,0.0008998112753033638,-0.04043237864971161,0.006503433280993371,0.24366883744821682,-0.012420501570454445
3.6165199279785156,-0.002940341830253601,-0.010904550552368164,0.0016524195671081543,-0.035299211740493774,0.001848872983828187,-0.03541376069188118,0.005925916776191386,0.24364464137528596,-0.012689554338599621
3.626642942428589,-0.003858417272567749,-0.010749103501439095,0.0019213557243347168,-0.022473428398370743,-0.0006257360801100731,-0.031111691147089005,0.005486264397012351,0.24361518396057524,-0.012948380853100152
3.6365280151367188,-0.003571063280105591,-0.008360544219613075,0.002738058567047119,0.0021609782706946135,-0.0010048812255263329,-0.021330006420612335,0.005296086480707068,0.24358613971142795,-0.013182744327823017
3.649631977081299,0.00020010769367218018,-0.004373506177216768,0.001254260540008545,0.024067874997854233,-0.007433219347149134,-0.012722136452794075,0.005346357700828482,0.2434738179824216,-0.01338513567318205
3.6566059589385986,0.001499086618423462,-0.0004748888313770294,-0.0005129575729370117,0.04173143953084946,-0.01112174242734909,-0.00589379109442234,0.005598125492698277,0.2433934896305365,-0.013554278548590298
3.6665008068084717,0.0002820342779159546,0.0006209895946085453,0.000664055347442627,0.0416928231716156,-0.02115626633167267,-0.010099988430738449,0.005992107739311585,0.24324880575132465,-0.013732837123376019
3.6766529083251953,0.00021637976169586182,-0.0023384983651340008,0.0005266666412353516,0.027744585648179054,-0.0259026400744915,-0.014859535731375217,0.0063437840296143395,0.24298682708346656,-0.013945216350094065
3.686631917953491,0.0012586265802383423,-0.0026764697395265102,0.003123939037322998,-0.0011658925795927644,-0.01999787986278534,-0.01906200312077999,0.006509354310087851,0.24271505862472265,-0.014131677036961929
3.6979899406433105,-0.0010659992694854736,-0.006278716027736664,0.005014955997467041,-0.02953438274562359,-0.015986893326044083,-0.022815145552158356,0.006401369206048179,0.24253171118641315,-0.014295914262504185
3.7065539360046387,-0.002588033676147461,-0.012356873601675034,0.0017975568771362305,-0.03205613046884537,-0.01923062466084957,-0.023774679750204086,0.006136806107399208,0.24233872122571515,-0.014446886437018785
3.716629981994629,-0.0007462054491043091,-0.008219242095947266,0.00024056434631347656,-0.01153898797929287,-0.027514608576893806,-0.019427815452218056,0.005940937502456412,0.2420915409694609,-0.014605246716946551
3.726516008377075,0.0027008503675460815,0.00291259353980422,-0.0013247132301330566,0.010799606330692768,-0.03200070559978485,-0.010185581631958485,0.005933856847600305,0.2418101187489183,-0.014750325900599968
3.736633062362671,0.0042443424463272095,0.01187128759920597,0.0003485679626464844,0.02137714996933937,-0.03619864583015442,-0.002755895024165511,0.006088232164016478,0.24150931840287024,-0.014863809465353464
3.748150110244751,0.006716281175613403,0.010537599213421345,0.0022802352905273438,0.012671275995671749,-0.03916487097740173,-0.0057748546823859215,0.006249908533018297,0.24114811698822497,-0.014944218542507551
3.7565758228302,0.0038127601146698,0.0041730948723852634,0.0069468021392822266,-0.0028267232701182365,-0.023635979741811752,-0.009017786011099815,0.006294095523162274,0.24083839826750222,-0.015037386891893647
3.7667620182037354,0.003525286912918091,-0.0017367610707879066,0.012448012828826904,-0.013748879544436932,-0.021326754242181778,-0.006881930399686098,0.006213095092463794,0.24067863875741952,-0.015086509992967876
3.776944875717163,0.0010674446821212769,-0.007666782941669226,0.010459721088409424,-0.008820166811347008,-0.02777453325688839,-0.014694579876959324,0.006127187710587976,0.24044404422493318,-0.015166348264433865
3.7870728969573975,0.00382058322429657,-0.0009177913889288902,0.010432958602905273,0.006143918260931969,-0.0252116397023201,-0.011407227255403996,0.006192832567919267,0.24017032506155378,-0.015287813666025198
3.8009049892425537,0.010240182280540466,0.004948590416461229,0.011485874652862549,0.0232122503221035,-0.029830802232027054,-0.006797455251216888,0.006398206828653159,0.23990805287928807,-0.015398559630854096
3.8084418773651123,0.009261339902877808,0.010670825839042664,0.008907437324523926,0.03228803724050522,-0.03306041657924652,-0.005939118564128876,0.0066272810783040755,0.2396437167517643,-0.015527393048819348
3.8178908824920654,0.008220553398132324,0.01310680154711008,0.008354783058166504,0.02795790508389473,-0.026406511664390564,-0.010201134718954563,0.0067897033987681255,0.23939594712584938,-0.0156726343154075
3.8270509243011475,0.010027319192886353,0.009498258121311665,0.006794869899749756,0.01639685593545437,-0.014540530741214752,-0.013221957720816135,0.006873789030871759,0.2392797206514159,-0.015840317643894503
