timestamp,accel_x,accel_y,accel_z,rotation_x,rotation_y,rotation_z, pitch,roll,yaw
0.045516014099121094,0.036387309432029724,-0.013910524547100067,0.017495930194854736,-0.08362186700105667,-0.09780315309762955,0.09982917457818985,-0.08812115855222509,0.2011385944219724,0.008897983907728935
0.05344104766845703,0.03754803538322449,-0.015151433646678925,0.019121646881103516,-0.08398356288671494,-0.10062557458877563,0.09671349078416824,-0.0883865344382547,0.20075147298350793,0.010068735634577653
0.054470062255859375,0.03716978430747986,-0.01595650613307953,0.019255101680755615,-0.08498544245958328,-0.09770142287015915,0.10185232758522034,-0.08871989351672493,0.20039466375676596,0.011255737259238428
0.06029701232910156,0.03924278914928436,-0.0180046483874321,0.019456982612609863,-0.0828898474574089,-0.10236048698425293,0.10376612842082977,-0.08909103623568862,0.20005971944850348,0.012485720950403614
0.07048416137695312,0.04239584505558014,-0.01565423607826233,0.016844749450683594,-0.08174868673086166,-0.10758773982524872,0.10560983419418335,-0.08945814619197484,0.19968125664213304,0.013724878443007084
0.0800621509552002,0.04117885231971741,-0.016392484307289124,0.013325750827789307,-0.08726760745048523,-0.11018437147140503,0.10921932011842728,-0.08984701426107354,0.1992468718846595,0.014998246088014519
0.09057021141052246,0.0414077490568161,-0.019228607416152954,0.01568049192428589,-0.09996262937784195,-0.11516501009464264,0.11340154707431793,-0.09033525714516775,0.1987712314268647,0.016326132051111747
0.10010528564453125,0.037064164876937866,-0.01905713975429535,0.016216576099395752,-0.11761608719825745,-0.11158581078052521,0.11576361209154129,-0.09099046043766688,0.1983090741598421,0.017723690608488968
0.11010026931762695,0.03288465738296509,-0.02374553680419922,0.015904486179351807,-0.12602820992469788,-0.11385589092969894,0.11905501037836075,-0.0917605605182951,0.19783731361425222,0.019174791912158255
0.12007617950439453,0.029250815510749817,-0.02647358924150467,0.013693392276763916,-0.12857820093631744,-0.1228068545460701,0.12153489887714386,-0.09255412315193798,0.19730734306004905,0.0206572101793662
0.13015127182006836,0.027774572372436523,-0.02189134806394577,0.012083947658538818,-0.12730440497398376,-0.1216513141989708,0.1230102926492691,-0.09334638585257957,0.1967399113555419,0.02217402704890749
0.1406421661376953,0.029067978262901306,-0.017119377851486206,0.012677252292633057,-0.11955925077199936,-0.12602835893630981,0.12200239300727844,-0.09405543469886724,0.19617865855043587,0.023679667808513962
0.15013813972473145,0.021557703614234924,-0.012879393994808197,0.013393580913543701,-0.11044272035360336,-0.12287037074565887,0.11726542562246323,-0.09471646121034061,0.19563156723521574,0.02514256311459867
0.16037511825561523,0.020516037940979004,-0.011012963950634003,0.013195395469665527,-0.10356663167476654,-0.11483366787433624,0.11265549063682556,-0.0952940405094361,0.19511537586603434,0.026536548188643407
0.17018818855285645,0.0197860449552536,-0.00566486269235611,0.011714935302734375,-0.09290440380573273,-0.11082480847835541,0.10424842685461044,-0.09576167667616571,0.194652995898814,0.027847975907230763
0.18045425415039062,0.017104029655456543,-9.272247552871704e-05,0.013228952884674072,-0.08873344212770462,-0.10229510813951492,0.09775244444608688,-0.09618820683340827,0.19418875381787395,0.029061969308455834
0.19022226333618164,0.016713351011276245,-0.0023715049028396606,0.0141487717628479,-0.08560742437839508,-0.09730327874422073,0.08858078718185425,-0.096546034026169,0.19375189492204323,0.030201140582357205
0.20033931732177734,0.016007378697395325,0.0006629526615142822,0.013125419616699219,-0.07908475399017334,-0.09279884397983551,0.08259745687246323,-0.09683936677060549,0.19329299475163142,0.03124583932900283
0.21039628982543945,0.016118347644805908,0.003728508949279785,0.013185322284698486,-0.0733906552195549,-0.09210509061813354,0.07319676131010056,-0.09714744474482116,0.19282595343124947,0.03219510892431942
0.22063827514648438,0.016781598329544067,0.0004298165440559387,0.01137775182723999,-0.0668153241276741,-0.09124831110239029,0.06025918200612068,-0.09748753768384955,0.19237216196865764,0.03302970411849093
0.23051834106445312,0.019843176007270813,0.0038175657391548157,0.010974109172821045,-0.05686895549297333,-0.08983603864908218,0.04970454424619675,-0.09782453485155544,0.19183747339288235,0.03372416421699133
0.24062514305114746,0.02212396264076233,0.007133163511753082,0.01040804386138916,-0.050527047365903854,-0.08550853282213211,0.036525677889585495,-0.09812673321863696,0.1912892113553854,0.034284051025701714
0.2502622604370117,0.021584779024124146,0.0073025524616241455,0.013661384582519531,-0.0465908981859684,-0.07888764888048172,0.022554468363523483,-0.09847783398537406,0.19077018262866427,0.03470288430147123
0.26030731201171875,0.01875212788581848,0.008049376308918,0.015622496604919434,-0.039255768060684204,-0.06971114873886108,0.008616602048277855,-0.09886203241804399,0.1902878217129148,0.03496553371548781
0.27022600173950195,0.014499306678771973,0.007499687373638153,0.018113136291503906,-0.030598100274801254,-0.06502372026443481,-0.0012269743019714952,-0.09916906920384709,0.18986757816397384,0.03508992157051731
0.2802891731262207,0.014512807130813599,0.006217069923877716,0.01844501495361328,-0.023678692057728767,-0.054974593222141266,-0.012536460533738136,-0.0994459802971196,0.18949994742563217,0.03508446203017114
0.2902822494506836,0.016913652420043945,0.004818148910999298,0.017850100994110107,-0.015217029489576817,-0.04802614077925682,-0.019446831196546555,-0.09970177279078637,0.18920285058190225,0.03498546241374902
0.30036306381225586,0.01588401198387146,0.0029044151306152344,0.019542396068572998,-0.009989777579903603,-0.04097355529665947,-0.028613697737455368,-0.09986152211493768,0.18896356305880274,0.03478856063811893
0.31044721603393555,0.0170515775680542,0.0015344247221946716,0.021719932556152344,-0.010370342992246151,-0.03337768837809563,-0.03819148987531662,-0.10005757407036223,0.18880310802201572,0.03451097871328751
0.32047128677368164,0.019204825162887573,-0.0019132941961288452,0.02230215072631836,-0.009368428960442543,-0.020804375410079956,-0.044123098254203796,-0.10030216946775451,0.18874353158722892,0.03414153221102325
0.3304562568664551,0.017515987157821655,-0.006996616721153259,0.022471904754638672,-0.00722831254824996,-0.008803637698292732,-0.04963051527738571,-0.1005343674287264,0.1887742487099535,0.033713017315912926
0.3413982391357422,0.015325605869293213,-0.009942613542079926,0.023046910762786865,-0.0022947401739656925,-0.003819887526333332,-0.05268936604261398,-0.10075012487718266,0.18884944920177407,0.03323327121263206
0.35060620307922363,0.01740492880344391,-0.010321341454982758,0.022784292697906494,0.003973542246967554,0.003004196798428893,-0.05397780239582062,-0.10091608195833843,0.18894211536693525,0.03271979226602542
0.3606421947479248,0.01943802833557129,-0.011484801769256592,0.021358788013458252,0.00539889931678772,0.007443598005920649,-0.05195167288184166,-0.10102725482091676,0.18908102563734633,0.032205737745026074
0.3706822395324707,0.0181095153093338,-0.014510586857795715,0.01967036724090576,0.012524719350039959,0.011739542707800865,-0.05045577511191368,-0.10107782354332717,0.18927041811360248,0.03170252821083004
0.3807342052459717,0.01794658601284027,-0.019765332341194153,0.02168971300125122,0.010643629357218742,0.014543762430548668,-0.0499626100063324,-0.10108358083130417,0.18948412647628887,0.031193532320758343
0.39106130599975586,0.01774504780769348,-0.02284310758113861,0.02211552858352661,0.006379109341651201,0.017604533582925797,-0.04914874956011772,-0.10110973646437599,0.18972213046680514,0.030693265238183186
0.40052318572998047,0.01679457724094391,-0.022254712879657745,0.019502341747283936,0.00034511834383010864,0.02786409482359886,-0.04474451765418053,-0.10116247668995475,0.190040062786227,0.030227806954592866
0.4105710983276367,0.01727384328842163,-0.026270002126693726,0.016437411308288574,-0.0012296088971197605,0.03098931536078453,-0.037924692034721375,-0.1012107241812393,0.19040945209625798,0.029825648226082857
0.42056822776794434,0.017267823219299316,-0.0260457843542099,0.011538803577423096,0.0006320406682789326,0.034224968403577805,-0.029681837186217308,-0.10123075619806275,0.1908065168356646,0.029503015677872356
0.43045520782470703,0.019541561603546143,-0.025774255394935608,0.009557783603668213,0.009096898138523102,0.029664304107427597,-0.01953066699206829,-0.10117255401496175,0.19122696950684936,0.02926746110781947
0.44096803665161133,0.018892675638198853,-0.02496630698442459,0.00916212797164917,0.0072978828102350235,0.026988226920366287,-0.01449510920792818,-0.1010506067207803,0.19160771035221996,0.029098384878517354
0.4506411552429199,0.019839659333229065,-0.02529049664735794,0.008462369441986084,-0.0023883001413196325,0.02230425924062729,-0.010686788707971573,-0.10096236347217258,0.19196435589496283,0.02898314371597955
0.46067214012145996,0.022515639662742615,-0.027456574141979218,0.009718179702758789,-0.010053143836557865,0.019502878189086914,-0.00934135913848877,-0.10091568437066485,0.19228573481611355,0.028912184919040577
0.4706392288208008,0.020916327834129333,-0.028426960110664368,0.009490489959716797,-0.017360592260956764,0.019287163391709328,-0.007163959555327892,-0.1009248252783685,0.19259547688112763,0.02887255335259023
0.48061418533325195,0.02096395194530487,-0.028158754110336304,0.00831669569015503,-0.011341315694153309,0.01598803885281086,-0.007451314479112625,-0.10093130321298192,0.19290623912307017,0.028840837095795165
0.4908771514892578,0.020828917622566223,-0.02219153195619583,0.0040340423583984375,-0.008412636816501617,0.010417771525681019,-0.008957598358392715,-0.100838240404664,0.19316771763199148,0.028793936343391266
0.5010972023010254,0.021206840872764587,-0.016445092856884003,0.0012893080711364746,0.00134971272200346,0.011181565932929516,-0.00615355558693409,-0.10064501839594218,0.19341757862198977,0.028738151554806423
0.5108342170715332,0.02235199511051178,-0.014270968735218048,0.001464545726776123,0.007132234051823616,0.007275241427123547,-0.0022546881809830666,-0.10034622214932915,0.19369218995819334,0.02870637627461013
0.520848274230957,0.02138678729534149,-0.011954449117183685,0.0011599063873291016,0.0029671834781765938,0.004526770673692226,-0.00019137741765007377,-0.10004233820701769,0.19392462343049366,0.028693613191451094
0.5308811664581299,0.022101208567619324,-0.013520680367946625,0.001278698444366455,-0.005650805309414864,0.0018167381640523672,0.0012944001937285066,-0.09980685660601166,0.1941415742975002,0.028716971580592554
0.5415241718292236,0.021249502897262573,-0.015460096299648285,0.0031737685203552246,-0.015517834573984146,0.0013407864607870579,0.0029225500766187906,-0.09963973333249793,0.19436986972847137,0.028782004693637266
0.5512080192565918,0.02044677734375,-0.014460422098636627,0.003144562244415283,-0.01770082674920559,-0.001333293505012989,0.0032008506823331118,-0.09952449595808466,0.19458027749657492,0.028869188451335123
0.5608000755310059,0.018756121397018433,-0.014600850641727448,0.005943953990936279,-0.01953258365392685,-0.005027097649872303,0.004075911827385426,-0.09943559486228828,0.19474730655295186,0.028953924300082333
0.5707931518554688,0.01688358187675476,-0.01505529135465622,0.00579756498336792,-0.017594067379832268,-0.004427087493240833,0.006290862802416086,-0.09938625648707487,0.19489825813221642,0.029049151667984052
0.5808331966400146,0.015914365649223328,-0.013541162014007568,0.006808340549468994,-0.020816892385482788,-0.00813278742134571,0.008900068700313568,-0.09939806610288329,0.19503164220005123,0.029181450504063077
0.5916800498962402,0.014972984790802002,-0.012619875371456146,0.0063277482986450195,-0.035841379314661026,-0.00540331332013011,0.008144263178110123,-0.0995149539778614,0.1951698451199199,0.029341417515499433
0.600823163986206,0.015672653913497925,-0.015089347958564758,0.007415294647216797,-0.05015562102198601,-0.008330171927809715,0.012340233661234379,-0.09980385146385154,0.19531851593535732,0.029546676464221114
0.6109011173248291,0.014573276042938232,-0.018472805619239807,0.008273780345916748,-0.06527785211801529,-0.016491428017616272,0.013357561081647873,-0.10021389209383183,0.19540561881148694,0.029814853156145637
0.6209440231323242,0.016602888703346252,-0.016789674758911133,0.010721921920776367,-0.07876764237880707,-0.023146269842982292,0.016805555671453476,-0.1007459685287154,0.1954160181743798,0.030118850041545284
0.631054162979126,0.020553261041641235,-0.01895596832036972,0.00876009464263916,-0.08778057992458344,-0.03404472395777702,0.01953396387398243,-0.10138967311740996,0.1953681201555876,0.03047229707178151
0.6416082382202148,0.021609053015708923,-0.013029247522354126,0.007000088691711426,-0.10393806546926498,-0.04491632431745529,0.012944291345775127,-0.1021195715977164,0.19517658758319528,0.030839747206110855
0.6509952545166016,0.01754249632358551,-0.01072661578655243,0.00786590576171875,-0.12498875707387924,-0.051321227103471756,0.007643003016710281,-0.10304137648073498,0.19487488790536472,0.031186052180189636
0.661344051361084,0.014255672693252563,-0.014563299715518951,0.008027374744415283,-0.13412900269031525,-0.051760781556367874,0.007067334372550249,-0.10415269629161984,0.194560007296039,0.031525452650199355
0.6708850860595703,0.009314432740211487,-0.017937451601028442,0.007029473781585693,-0.14234113693237305,-0.04967019706964493,0.002086690627038479,-0.10532073550643518,0.19420620378660053,0.031861721835356446
0.6810572147369385,0.007390320301055908,-0.010206498205661774,0.004876196384429932,-0.1166074350476265,-0.056260280311107635,0.0036482082214206457,-0.10640014264582899,0.19387061025809457,0.03213333428204297
0.6913561820983887,0.011304289102554321,-0.004334703087806702,0.003919541835784912,-0.0909193754196167,-0.07072151452302933,0.02145436964929104,-0.10717029681433833,0.19342536647232908,0.03249861617157056
0.7010221481323242,0.004323005676269531,-0.003460131585597992,0.005400657653808594,-0.060745663940906525,-0.07476720958948135,0.00956905446946621,-0.10765656395476836,0.19291215935470327,0.03282150905266826
0.7110180854797363,0.0076158493757247925,0.008717112243175507,0.0005500912666320801,-0.05101047828793526,-0.07320287078619003,0.01414862647652626,-0.10794743867632933,0.19242102639955175,0.033058743434622104
0.720952033996582,0.015083998441696167,0.005281724035739899,2.5391578674316406e-05,-0.05001162737607956,-0.06846092641353607,0.012086753733456135,-0.1082412373386383,0.19196701396680818,0.03331998007058505
0.7311820983886719,0.0067864954471588135,0.004516378045082092,0.003234684467315674,-0.046259235590696335,-0.06283500045537949,-0.003680224996060133,-0.10856597410225119,0.19151708593674938,0.03347082148032563
0.7417120933532715,0.0046249330043792725,0.004314251244068146,0.00577467679977417,-0.04271591827273369,-0.058470215648412704,-0.018487559631466866,-0.10884604970599843,0.19107992616056682,0.0334605834093521
0.7513151168823242,0.006741940975189209,0.003356657922267914,0.0077675580978393555,-0.03581460192799568,-0.047648195177316666,-0.03421086445450783,-0.10908791126483734,0.19065135440004588,0.03329775692119518
0.761085033416748,0.004515036940574646,0.007291801273822784,0.009295105934143066,-0.02543393149971962,-0.04400712251663208,-0.047574449330568314,-0.10935051064918822,0.1902495462452266,0.03296829027088026
0.7710070610046387,0.005017757415771484,0.0075640007853507996,0.00896233320236206,-0.0238027460873127,-0.03980492055416107,-0.05632399767637253,-0.10962930066348775,0.18991237821049253,0.03251870727631149
0.7810912132263184,0.00947524607181549,0.004418209195137024,0.010545969009399414,-0.020047888159751892,-0.03839273378252983,-0.061995409429073334,-0.10990810964437711,0.1895255342814547,0.03197968033840441
0.7913851737976074,0.009518131613731384,0.0031622648239135742,0.011639773845672607,-0.027173707261681557,-0.04301624745130539,-0.06487429141998291,-0.11032735631106805,0.18914657306272528,0.03140496221676339
0.8010342121124268,0.012035056948661804,-0.0016794055700302124,0.011862874031066895,-0.04712411388754845,-0.045357611030340195,-0.07255340367555618,-0.11083865820047671,0.18879872062095365,0.03081135370621277
0.8112101554870605,0.014580056071281433,-0.010986410081386566,0.009132862091064453,-0.07828310132026672,-0.0507798045873642,-0.07964460551738739,-0.11162083661926958,0.188334122563426,0.030186226495127304
0.8210272789001465,0.013659492135047913,-0.020076654851436615,0.012371659278869629,-0.11461209505796432,-0.0549897737801075,-0.08307565748691559,-0.11273774256925986,0.18781614583646095,0.029568849718127215
0.8311161994934082,0.013679072260856628,-0.0240086168050766,0.017502248287200928,-0.1537903994321823,-0.0688115805387497,-0.09270431846380234,-0.11422259866453176,0.18723420934453086,0.02896401291260839
0.8415651321411133,0.012604489922523499,-0.03202944993972778,0.017281711101531982,-0.20958876609802246,-0.09773688018321991,-0.12375528365373611,-0.1162295187629656,0.18645622362498127,0.02826887287529796
0.8513312339782715,0.013125449419021606,-0.03700439631938934,0.022935032844543457,-0.32741793990135193,-0.1380864381790161,-0.16068027913570404,-0.11904190229510099,0.18531268172154128,0.02738820919742743
0.8616790771484375,0.012177899479866028,-0.0485944002866745,0.03372049331665039,-0.6180359125137329,-0.133881613612175,-0.2722141146659851,-0.12396962339589769,0.18386276530877643,0.026063771795292772
0.8715610504150391,0.014024317264556885,-0.0695645809173584,0.04640322923660278,-1.015806794166565,-0.09243910014629364,-0.3267098367214203,-0.13249764650067833,0.1826425686639725,0.024581691596855616
0.8813872337341309,0.002464771270751953,-0.14081890881061554,0.05359518527984619,-1.3332672119140625,-0.10025783628225327,-0.378808856010437,-0.14464916894820623,0.1816633435358761,0.023308465532845275
0.8916561603546143,-0.001797899603843689,-0.17639262974262238,0.048596978187561035,-1.5355483293533325,-0.1520714908838272,-0.4429374933242798,-0.1596133862925191,0.18023683837836865,0.02182828283379197
0.9012923240661621,0.00774914026260376,-0.15550851821899414,0.049886882305145264,-1.606862187385559,-0.208979070186615,-0.4188171327114105,-0.1759151096023263,0.1781468621855616,0.020302127937214354
0.9113903045654297,0.028726249933242798,-0.10363726317882538,0.0396268367767334,-1.587684988975525,-0.29482927918434143,-0.36825621128082275,-0.1924387301089408,0.17551570215459908,0.01925332946230298
0.9212441444396973,0.05458809435367584,-0.025592699646949768,0.01818370819091797,-1.5773966312408447,-0.3934096395969391,-0.38408994674682617,-0.20862120310785195,0.17184201488449388,0.01829531705524982
0.9313821792602539,0.05792735517024994,-0.011064037680625916,0.0114937424659729,-1.6564080715179443,-0.447876900434494,-0.4192031919956207,-0.2252440609418552,0.1673355044704729,0.017006018060605237
0.9435291290283203,0.049468785524368286,-0.08829760551452637,0.0071770548820495605,-1.6822487115859985,-0.5100166201591492,-0.3975253105163574,-0.2424605998508909,0.1622665625815709,0.015658192547767125
0.9515480995178223,0.038995832204818726,-0.09077775478363037,-0.0026123523712158203,-1.6533563137054443,-0.5868328213691711,-0.3670574128627777,-0.25956071122074836,0.15648326857562836,0.01449558364093499
0.9615902900695801,0.052885666489601135,-0.043696582317352295,-0.019181013107299805,-1.7078434228897095,-0.6839304566383362,-0.37198853492736816,-0.27665870128244696,0.14979011204243217,0.013415399870589248
0.9713811874389648,0.06205771863460541,-0.02040177583694458,-0.025227248668670654,-1.840672254562378,-0.6997842788696289,-0.38039639592170715,-0.29477864745162313,0.14248597435738194,0.012184809769606337
0.9813802242279053,0.05379897356033325,-0.05091866850852966,-0.018304646015167236,-2.094911575317383,-0.8073728680610657,-0.41473597288131714,-0.3146288281180492,0.13470365162258957,0.01101484515524414
0.9915192127227783,0.040344901382923126,-0.09475651383399963,-0.02612626552581787,-2.5354464054107666,-0.7476254105567932,-0.5418023467063904,-0.33826141283954025,0.12617833369560258,0.009068543380813046
1.0014963150024414,0.031691864132881165,-0.11352163553237915,-0.0009325742721557617,-2.896368980407715,-0.6883032321929932,-0.5204571485519409,-0.3659430420843625,0.11830569215179168,0.006965832860619022
1.011303186416626,0.01155862957239151,-0.17912334203720093,-0.012200891971588135,-3.1722028255462646,-0.6713356971740723,-0.5392332077026367,-0.39687268742348814,0.11081978313492424,0.005082195455862312
1.0213651657104492,0.0035919100046157837,-0.15600472688674927,-0.020482003688812256,-3.147432327270508,-0.656397819519043,-0.553408145904541,-0.42910838163961973,0.10329061085513815,0.0028255908152588125
1.0312321186065674,0.017456568777561188,-0.06330332159996033,-0.012233197689056396,-2.8420145511627197,-0.6746593713760376,-0.5296159982681274,-0.4596604412032899,0.0954388478204598,0.0001575152500251802
1.0413713455200195,0.03445734828710556,0.0009425878524780273,-0.059371232986450195,-2.245974540710449,-0.645937442779541,-0.4805085062980652,-0.48566918703971595,0.08746492557046869,-0.00287425179584634
1.0511741638183594,0.03676459938287735,0.07661452889442444,-0.087444007396698,-1.3980274200439453,-0.629722535610199,-0.4639569818973541,-0.5043581241173272,0.07934294558416288,-0.00647198287351437
1.061596155166626,0.005808643996715546,0.1665201187133789,-0.09400999546051025,-0.42301762104034424,-0.5292260050773621,-0.46429118514060974,-0.5138812115773985,0.0712044540429494,-0.010973368912894618
1.07118821144104,-0.031779684126377106,0.21785181760787964,-0.09363794326782227,0.846710205078125,-0.24555934965610504,-0.4522033631801605,-0.5122861545738828,0.06470760220315572,-0.016394156561321472
1.0812392234802246,-0.07473036646842957,0.2353208065032959,-0.1067667007446289,2.495582103729248,-0.025616662576794624,-0.4297994077205658,-0.49615064668022196,0.06032280237946378,-0.022645995917440327
1.091292142868042,-0.11145806312561035,0.32333552837371826,-0.14768433570861816,4.311784267425537,0.08453567326068878,-0.3954252004623413,-0.4623734478596741,0.05725638792461942,-0.02944897570846233
1.1012420654296875,-0.10524886101484299,0.4761866629123688,-0.1730273962020874,6.186657428741455,0.45130524039268494,-0.35020712018013,-0.41028896246856705,0.05664857973506528,-0.03693308482450152
1.111288070678711,-0.10266080498695374,0.554052472114563,-0.15546321868896484,8.049798011779785,0.5323377847671509,-0.30113252997398376,-0.3390646924426093,0.058912550081401234,-0.044708264572031524
1.1213293075561523,-0.12293878942728043,0.635854184627533,-0.1768730878829956,9.346565246582031,0.7460705637931824,-0.43821144104003906,-0.2519342444520881,0.062449382664176475,-0.05410000799568139
1.1313872337341309,-0.1088019534945488,0.7456133365631104,-0.0428084135055542,10.254168510437012,1.1078343391418457,-0.48182737827301025,-0.1542591610127217,0.0694906074662171,-0.06546645558863166
1.1425542831420898,-0.11420556157827377,0.7017184495925903,0.06430238485336304,10.936073303222656,1.173236608505249,-0.4778611660003662,-0.04862105706221945,0.07982325850916848,-0.07824611189353371
1.1512470245361328,-0.09811895340681076,0.7276167869567871,0.09731906652450562,11.121386528015137,1.188547134399414,-0.4636420011520386,0.06138035842988123,0.0916752235770782,-0.09245374365735096
1.1617012023925781,-0.019015155732631683,0.8239575624465942,0.25037819147109985,10.639698028564453,1.3748317956924438,-0.45260319113731384,0.1696802921863198,0.10621693600703022,-0.10785388473266196
1.17173433303833,0.034913524985313416,0.7891002297401428,0.3303496837615967,9.659782409667969,1.6540201902389526,-0.6825197339057922,0.2702369135735232,0.12512366824864982,-0.12548283703972504
1.1813640594482422,0.010421127080917358,0.5967852473258972,0.30499714612960815,8.247846603393555,1.9475504159927368,-1.0793179273605347,0.35799984287978653,0.1499402527267925,-0.14745120098131032
1.191711187362671,-0.030712366104125977,0.3563343286514282,0.26055067777633667,6.907917022705078,2.3093297481536865,-1.490065336227417,0.43056550807898436,0.18185616524222664,-0.17478146119157828
1.2014212608337402,-0.045725151896476746,0.24247363209724426,0.2565617561340332,5.905168056488037,2.5801782608032227,-1.834022879600525,0.48973742469279896,0.22084766250920457,-0.20723974409693355
1.2120962142944336,-0.041582509875297546,0.1735755205154419,0.2683780789375305,5.300612926483154,2.651287794113159,-1.988442301750183,0.5393601446453553,0.2653385517244325,-0.24417626514795873
1.221459150314331,-0.010311216115951538,0.13909518718719482,0.30177241563796997,4.923050880432129,2.561696767807007,-2.0175654888153076,0.5826738406549872,0.3126736377479996,-0.28408018116716444
1.2319622039794922,0.06279796361923218,0.1438952088356018,0.3598695993423462,4.688870429992676,2.5415847301483154,-2.100931406021118,0.6211365380692251,0.3625073195272199,-0.32695866373229676
1.2421622276306152,0.15652981400489807,0.16977983713150024,0.41311949491500854,4.591120719909668,2.533233404159546,-2.197902202606201,0.6559013661320453,0.41578080513434923,-0.37363172997555866
1.2517943382263184,0.16364222764968872,0.15174484252929688,0.41182923316955566,4.545228004455566,2.455562114715576,-2.2631704807281494,0.6876014934943941,0.47231421934296397,-0.42447765335889615
1.2625093460083008,0.1501818597316742,0.12763768434524536,0.42878419160842896,4.486114025115967,2.344827651977539,-2.3135781288146973,0.7161791243789265,0.5318434979656711,-0.4793659571354302
1.2716381549835205,0.17790040373802185,0.11121690273284912,0.4482595920562744,4.358429908752441,2.199829578399658,-2.3093411922454834,0.7412938591934406,0.5931438325748902,-0.5373074592475565
1.2816863059997559,0.1682606041431427,0.06944864988327026,0.459286093711853,4.24627685546875,2.0291848182678223,-2.339038133621216,0.7626606791730375,0.6555148595810022,-0.5975895830435293
1.2918610572814941,0.17999836802482605,0.0066683292388916016,0.46083611249923706,4.096033096313477,1.9108561277389526,-2.4363176822662354,0.7798261881938451,0.7190105790639281,-0.6603100142255448
1.3016600608825684,0.13646599650382996,-0.07304084300994873,0.4378235340118408,3.7842254638671875,1.8471415042877197,-2.5436439514160156,0.7916812477873801,0.7830387862108729,-0.7243737369948337
1.3118882179260254,0.07703524827957153,-0.22605204582214355,0.4202004671096802,3.3939621448516846,1.8232828378677368,-2.476750373840332,0.7979828739447398,0.8456476357530011,-0.7864042209543229
1.3218371868133545,0.023888230323791504,-0.3277556300163269,0.3442046344280243,2.9448118209838867,1.8396785259246826,-2.2781410217285156,0.8000559952425572,0.9048527168572568,-0.8434112990255961
1.3318421840667725,-0.004705965518951416,-0.3640214204788208,0.22945797443389893,2.4440886974334717,1.9743850231170654,-2.0513482093811035,0.7988147085139881,0.9596191536446839,-0.8931496010062737
1.3422651290893555,-0.048943936824798584,-0.44325029850006104,0.14142727851867676,1.999461054801941,2.0950238704681396,-1.783996820449829,0.7950519436533167,1.00972382460395,-0.9347701156063807
1.3517303466796875,-0.11124593019485474,-0.5707679390907288,0.03334549069404602,1.657518982887268,2.2686028480529785,-1.389716625213623,0.7907469869226201,1.0559157096161431,-0.9689016630982761
1.3618483543395996,-0.13928735256195068,-0.6063318848609924,-0.054901301860809326,1.278278112411499,2.3758492469787598,-0.9330397844314575,0.7875040863892583,1.097906617318895,-0.9950785422133023
1.372002124786377,-0.20210814476013184,-0.6174865365028381,-0.07252493500709534,1.125414252281189,2.334129810333252,-0.4501759111881256,0.7865739664990534,1.1352620519339642,-1.014473364072489
1.3819513320922852,-0.23201727867126465,-0.5949346423149109,-0.029896259307861328,1.201219916343689,2.240508794784546,-0.004588576033711433,0.7892556752983595,1.1697741355321738,-1.0307151494085713
1.3920221328735352,-0.21035856008529663,-0.47161149978637695,-0.02184489369392395,1.3690603971481323,2.107490301132202,0.3705938160419464,0.7958218507404039,1.2029623456059495,-1.0466866141876296
1.4019191265106201,-0.2040926218032837,-0.31117820739746094,0.0013145208358764648,1.4510639905929565,1.9733585119247437,0.624253511428833,0.8054242828238998,1.235240750633887,-1.063260531601781
1.411905288696289,-0.18925386667251587,-0.21606892347335815,0.037601619958877563,1.5011346340179443,1.9125553369522095,0.7750936150550842,0.8167698634224856,1.2671342223383952,-1.0804682650791024
1.4218592643737793,-0.16619586944580078,-0.15568464994430542,0.036293551325798035,1.5244312286376953,1.9592010974884033,0.8230036497116089,0.8288021215018423,1.2996734069256717,-1.0985058075677334
1.432063102722168,-0.12534105777740479,-0.04911458492279053,-0.01455533504486084,1.4328457117080688,1.9790189266204834,0.7844660878181458,0.8404183404192642,1.3330286396951516,-1.1168616279791963
1.442446231842041,-0.07217264175415039,0.04644811153411865,-0.05821561813354492,1.2295457124710083,1.977213978767395,0.6137791275978088,0.8502569905961983,1.365830806479795,-1.134209966153241
1.451925277709961,-0.0014911293983459473,0.10599178075790405,-0.054956138134002686,0.9433751702308655,1.8724740743637085,0.38735395669937134,0.8572518426543236,1.3963853269409223,-1.149031625983616
1.4618782997131348,0.058039307594299316,0.07790964841842651,-0.052555739879608154,0.7268305420875549,1.678497552871704,0.11717940866947174,0.8610979978468724,1.4232075967133742,-1.160975834453559
1.4718451499938965,0.1393047571182251,0.10056227445602417,-0.05688655376434326,0.6036755442619324,1.4511204957962036,-0.1306152194738388,0.8618842645505916,1.446535572786599,-1.171002311033091
1.4822630882263184,0.2273227572441101,0.14191877841949463,-0.09073996543884277,0.5834516882896423,1.1994788646697998,-0.3014456033706665,0.8603466424571939,1.466838152873988,-1.1803151023335476
1.4920320510864258,0.2831684350967407,0.15997731685638428,-0.15349799394607544,0.5764830112457275,0.953423261642456,-0.37200552225112915,0.8574849041926688,1.4847501091037856,-1.189707412518239
1.5017991065979004,0.3201812505722046,0.18525826930999756,-0.2097465991973877,0.5430894494056702,0.7552964687347412,-0.3896704912185669,0.8540826132806322,1.5000529423538878,-1.198684397274624
1.512071132659912,0.30520713329315186,0.15110266208648682,-0.23826080560684204,0.4664311707019806,0.5533137917518616,-0.35836556553840637,0.8506650195795674,1.5126805285100426,-1.206769333776739
1.5219042301177979,0.2661527395248413,0.08895909786224365,-0.2507022023200989,0.3523249924182892,0.3737570345401764,-0.3299589455127716,0.847439998558481,1.5222282069995539,-1.2133202381617283
1.5319011211395264,0.21620392799377441,0.032229602336883545,-0.23950737714767456,0.18450616300106049,0.20593637228012085,-0.28992098569869995,0.8444522400786486,1.5283103832424718,-1.2176005022726648
1.5420522689819336,0.15958303213119507,-0.05320316553115845,-0.22211426496505737,0.0373615100979805,0.10033328086137772,-0.22363315522670746,0.8418845878226009,1.5311870622246757,-1.2194141281248236
1.5519042015075684,0.1077161431312561,-0.12381041049957275,-0.21695095300674438,-0.10055720806121826,0.010148526169359684,-0.13911400735378265,0.84002342708869,1.5313750276198066,-1.2189722323444832
1.5619251728057861,0.06345230340957642,-0.13148343563079834,-0.21558934450149536,-0.14700599014759064,-0.09942851960659027,-0.024788865819573402,0.8391584479423481,1.529510480744027,-1.217042322815404
1.5717391967773438,0.035679519176483154,-0.1145087480545044,-0.1892772912979126,-0.07802265882492065,-0.2037551999092102,0.08487637341022491,0.8393973088624763,1.5267009299030063,-1.2152710335392638
1.581860065460205,0.0196000337600708,-0.052070438861846924,-0.15920394659042358,0.0018210087437182665,-0.2926850914955139,0.16341613233089447,0.8406536701020867,1.5237102962448614,-1.214670076414481
1.5918512344360352,0.014689028263092041,0.01631343364715576,-0.13444310426712036,0.02601822465658188,-0.29996323585510254,0.19602946937084198,0.8424766945038378,1.520797278316176,-1.2147860475373502
1.6028432846069336,-0.004197061061859131,0.03234750032424927,-0.11014962196350098,-0.025627892464399338,-0.2727353274822235,0.19942186772823334,0.8444919177369179,1.5177828436962497,-1.2146474780311312
1.6123881340026855,-0.030015170574188232,0.019340872764587402,-0.09857004880905151,-0.10424813628196716,-0.25234246253967285,0.1726810783147812,0.8463455421401612,1.5143309105567841,-1.2135003758198954
1.6219611167907715,-0.02934497594833374,0.028610169887542725,-0.07029664516448975,-0.153359055519104,-0.254280686378479,0.09071920067071915,0.8476006736180878,1.5102335476770783,-1.2114085758283721
1.6321210861206055,-0.026682615280151367,0.046366095542907715,-0.03383415564894676,-0.1951238065958023,-0.24172762036323547,-0.006371934898197651,0.8478924752345306,1.5057623390904677,-1.208766182692327
1.6421082019805908,-0.032362520694732666,0.05428767204284668,-0.0031759701669216156,-0.23328281939029694,-0.21326196193695068,-0.06550252437591553,0.8473425341857886,1.5010618067578279,-1.2055466927063871
1.6519651412963867,-0.03523123264312744,0.05288344621658325,0.01050008088350296,-0.24126484990119934,-0.20568819344043732,-0.07920342683792114,0.8464664465101133,1.4962994690570155,-1.201980181570237
1.6620612144470215,-0.02463853359222412,0.07788145542144775,0.018837034702301025,-0.20018020272254944,-0.18753783404827118,-0.0917443037033081,0.8454370786991878,1.49192538770851,-1.1987472862932211
1.6719932556152344,-0.01863640546798706,0.10407215356826782,0.02747112512588501,-0.1712537556886673,-0.2023513913154602,-0.09731697291135788,0.8443665744527075,1.4880369007739018,-1.1961385092397432
1.68215012550354,-0.022837340831756592,0.09944391250610352,0.03675258159637451,-0.18644489347934723,-0.18906231224536896,-0.11702749878168106,0.8431655663775326,1.4841593814548573,-1.1936109201065683
1.692063331604004,-0.014892637729644775,0.07683008909225464,0.05288100242614746,-0.26961249113082886,-0.18154846131801605,-0.15255993604660034,0.8416293672477079,1.4798943561754412,-1.1904156649231339
1.702010154724121,-0.019337773323059082,0.030027270317077637,0.05945926904678345,-0.37032151222229004,-0.15407462418079376,-0.18132856488227844,0.8396556929648835,1.4748364382118377,-1.1858657945822315
1.7120380401611328,-0.01961803436279297,-0.026095926761627197,0.05917531996965408,-0.4353521764278412,-0.12977008521556854,-0.15814921259880066,0.8375079798364009,1.4691008344841134,-1.180048471441681
1.7221240997314453,-0.011094629764556885,-0.057091474533081055,0.04225623607635498,-0.3967731297016144,-0.13740511238574982,-0.10674525052309036,0.8357470789473521,1.4632555858864733,-1.1739869828440237
1.732583999633789,0.004588007926940918,-0.019223392009735107,0.02835649996995926,-0.32582518458366394,-0.1452859491109848,-0.06709957122802734,0.8344901371804618,1.4579860746337268,-1.1687745154115412
1.7426261901855469,0.01623433828353882,0.03837043046951294,0.023800499737262726,-0.2628009021282196,-0.16978754103183746,-0.021535761654376984,0.8337058596918823,1.45322954365506,-1.1644806409874704
1.7525711059570312,0.016148626804351807,0.020639777183532715,0.021549522876739502,-0.2343013733625412,-0.23816101253032684,-0.0006001192959956825,0.8333428498498515,1.4485115669220319,-1.1608511741334138
1.7625741958618164,0.031666576862335205,0.009311378002166748,0.029901020228862762,-0.25042104721069336,-0.2943774461746216,-0.021839043125510216,0.8329477181514385,1.4432309454498404,-1.1573317375163568
1.7725012302398682,0.04318290948867798,-0.005010128021240234,0.04129999876022339,-0.3128055930137634,-0.32323306798934937,-0.039934154599905014,0.8322317245831047,1.4371128989902036,-1.1532748451455292
1.7821969985961914,0.02875441312789917,-0.06554758548736572,0.04251326620578766,-0.34279948472976685,-0.3673700988292694,-0.01782059855759144,0.8314980632935288,1.4300537950701107,-1.1484172385549063
1.7923052310943604,0.025667548179626465,-0.08709883689880371,0.04250173270702362,-0.3108018636703491,-0.4006585478782654,0.006484208628535271,0.8309687301663884,1.4226512623409322,-1.1435862927793417
1.8022902011871338,0.03585141897201538,-0.03402578830718994,0.04111970216035843,-0.26851242780685425,-0.4311157763004303,0.04229685291647911,0.8307693652546448,1.4153257636451249,-1.1393018785410365
1.8122961521148682,0.03654658794403076,-0.00851452350616455,0.03503964841365814,-0.26479971408843994,-0.47026318311691284,0.06288895010948181,0.8308805483126809,1.4078677132261272,-1.1353017150660583
1.8223352432250977,0.03146684169769287,-0.010338425636291504,0.040355145931243896,-0.3195120394229889,-0.5084482431411743,0.06672214716672897,0.8310268557595436,1.3996842967363865,-1.130887852824615
1.8327162265777588,0.02861964702606201,-0.043370723724365234,0.048025548458099365,-0.38744181394577026,-0.5615655183792114,0.08833076804876328,0.8311671820197915,1.3903987153675421,-1.1255164916106595
1.8424711227416992,0.023512601852416992,-0.07893931865692139,0.054359376430511475,-0.456360787153244,-0.6338713765144348,0.10284072905778885,0.8313477484120834,1.3796469429395346,-1.1190817465662029
1.8523340225219727,0.020494043827056885,-0.07045912742614746,0.07213200628757477,-0.480679452419281,-0.6816455721855164,0.08870121091604233,0.8313874718108598,1.3677059867085304,-1.1118760582495857
1.8622682094573975,0.008021235466003418,-0.0706055760383606,0.08700132369995117,-0.40493595600128174,-0.5979832410812378,0.03172122687101364,0.8310343777091392,1.35620568447859,-1.1051690665570029
1.872328281402588,-0.00374603271484375,-0.07459777593612671,0.05826455354690552,-0.29283764958381653,-0.35630562901496887,0.06629731506109238,0.830680636312581,1.347604562646453,-1.1000484151462167
1.8825571537017822,-0.008035421371459961,-0.03522759675979614,-0.04241055250167847,-0.31485381722450256,-0.13651765882968903,0.1336551010608673,0.8310237970215857,1.3417786702833296,-1.0954670344586774
1.8925490379333496,-0.01959359645843506,0.021060168743133545,-0.09531109035015106,-0.4333213269710541,0.016462570056319237,0.15154461562633514,0.8315643339835728,1.3369374813746908,-1.0895988421333236
1.9025282859802246,-0.01831531524658203,-0.0543704628944397,-0.05103643238544464,-0.5338781476020813,-0.023510590195655823,0.1600143313407898,0.8319399273048108,1.331325072041587,-1.0819639404415522
1.9125862121582031,-0.011451900005340576,-0.13096559047698975,0.0026112645864486694,-0.5539720058441162,-0.12009518593549728,0.15215720236301422,0.8321498186850739,1.3243608488482164,-1.0735002271516978
1.9241862297058105,0.029570162296295166,-0.08626919984817505,0.05284082889556885,-0.592389702796936,-0.24025212228298187,0.1357164978981018,0.8321321673715665,1.3161116127543262,-1.0647826411834782
1.9325602054595947,0.039279282093048096,-0.07192444801330566,0.0611797571182251,-0.7519069314002991,-0.32568901777267456,0.12659171223640442,0.8316812621697071,1.30584571535752,-1.0547756951224598
1.9429702758789062,0.039179086685180664,-0.11147528886795044,0.05326610803604126,-1.0305732488632202,-0.39515161514282227,0.15274016559123993,0.8306170990440342,1.2925082464454825,-1.0415668590971288
1.9524881839752197,0.04042786359786987,-0.19515150785446167,0.04096771776676178,-1.3397486209869385,-0.4933580756187439,0.21789999306201935,0.8290165256015429,1.2750170176380542,-1.0238793020824022
1.9625961780548096,0.04392588138580322,-0.2594413757324219,0.03272819519042969,-1.6046414375305176,-0.6294947862625122,0.27381375432014465,0.8269117692140919,1.2532615799242355,-1.0019533894268835
1.9740931987762451,0.048333168029785156,-0.2556647062301636,0.04670912027359009,-1.8412936925888062,-0.8147655725479126,0.3252638876438141,0.8241556843111975,1.2273043467581628,-0.9764338600618874
1.982518196105957,0.044279396533966064,-0.25103992223739624,0.0640704333782196,-2.0579400062561035,-1.0331217050552368,0.3664461076259613,0.8205700759765082,1.1970498009062072,-0.9477668242546062
1.9925460815429688,0.04892313480377197,-0.23229598999023438,0.08298370242118835,-2.320902109146118,-1.223311424255371,0.35350659489631653,0.8155792724295345,1.1626083220197432,-0.9161423315478358
2.002573013305664,0.05028104782104492,-0.2002304196357727,0.09850889444351196,-2.6585569381713867,-1.3763070106506348,0.3401375412940979,0.8084260278423882,1.1241640569916471,-0.8811177775834184
2.0126700401306152,0.04034358263015747,-0.23888427019119263,0.09973108768463135,-3.0714237689971924,-1.5125170946121216,0.30528926849365234,0.7984207120102962,1.0816243165789563,-0.8421695040009377
2.024829149246216,0.04341810941696167,-0.2681626081466675,0.10025808215141296,-3.5374794006347656,-1.5917950868606567,0.2698955833911896,0.7846809179935852,1.0353436309615938,-0.7991138158999245
2.032684326171875,0.050847530364990234,-0.2981370687484741,0.10852020978927612,-3.9735910892486572,-1.6402443647384644,0.33007344603538513,0.7671849111189758,0.9863113489574189,-0.7522169096981548
2.0428521633148193,0.059887588024139404,-0.31488585472106934,0.11927258968353271,-4.302816867828369,-1.6914923191070557,0.4099378287792206,0.7464973205580742,0.9354352364559679,-0.7024417907615707
2.0527610778808594,0.08062660694122314,-0.23815828561782837,0.1335517168045044,-4.487247467041016,-1.71232008934021,0.4474593698978424,0.722756092130349,0.8844319445115844,-0.6518890160848306
2.0646862983703613,0.0935019850730896,-0.14745932817459106,0.13636934757232666,-4.340378284454346,-1.7708982229232788,0.6280994415283203,0.6977608863342755,0.8352373344534518,-0.6029906813392537
2.074221134185791,0.107391357421875,-0.05800461769104004,0.11909115314483643,-3.9635508060455322,-2.0081491470336914,0.8632280230522156,0.6745767289735698,0.7874461351181906,-0.5572191340876924
2.083031177520752,0.16378790140151978,0.14758384227752686,0.13915985822677612,-3.6535909175872803,-2.273855447769165,0.8885717391967773,0.6532924165209844,0.7403951264788591,-0.5156961103239809
2.0928292274475098,0.21026188135147095,0.2836260199546814,0.19359469413757324,-3.576556921005249,-2.4732420444488525,0.8595944046974182,0.6318807344066775,0.6938750938947273,-0.47783934292792296
2.102668285369873,0.18893340229988098,0.20123648643493652,0.24560952186584473,-3.701584577560425,-2.526594638824463,0.8425434231758118,0.608675054369331,0.6478176093898388,-0.4418744560288721
2.1126980781555176,0.1524832546710968,0.10112959146499634,0.2991068959236145,-3.929532527923584,-2.5078506469726562,0.886681318283081,0.5828179887898758,0.6027331062578207,-0.4064733977049265
2.124105215072632,0.11884674429893494,0.04137682914733887,0.3182333707809448,-4.216675758361816,-2.4722445011138916,0.9279152154922485,0.5537243607048131,0.5586093749552765,-0.3708611239435389
2.132826328277588,0.09079840779304504,0.021890640258789062,0.33553606271743774,-4.4941086769104,-2.4122085571289062,0.8632001280784607,0.5210216570758426,0.5162071948942003,-0.33588063769189563
2.1429243087768555,0.07230895757675171,0.028926759958267212,0.37091612815856934,-4.715564727783203,-2.324007987976074,0.7916048169136047,0.4843328618013926,0.4764011505654506,-0.3024661072418076
2.153090000152588,0.059239327907562256,0.03236392140388489,0.38599616289138794,-4.918578624725342,-2.257126569747925,0.6632865071296692,0.4442819328784038,0.43951917077288566,-0.27132424489607343
2.163142204284668,0.04266771674156189,0.04628506302833557,0.3915477991104126,-5.0636515617370605,-2.174347162246704,0.5539310574531555,0.40113377289500735,0.4055612760401275,-0.24278053930182605
2.1751203536987305,0.037920743227005005,0.02608877420425415,0.3859241008758545,-5.123021602630615,-2.0796501636505127,0.5488761067390442,0.3559615057398701,0.3745547912900693,-0.21644609895780534
2.182882308959961,0.03953114151954651,0.02112060785293579,0.36350011825561523,-5.049461364746094,-2.011777639389038,0.5834926962852478,0.31023773935626464,0.34602711455776686,-0.19182266541850382
2.192934036254883,0.04487508535385132,0.08710655570030212,0.3339845538139343,-4.885642051696777,-1.97948157787323,0.5936662554740906,0.2651127726476183,0.3195814140461167,-0.16900224005480788
2.2028331756591797,0.053869783878326416,0.13937519490718842,0.2967187166213989,-4.6096343994140625,-1.9363266229629517,0.6007922887802124,0.22153566748029385,0.2949887135514288,-0.1483254540546026
2.212907314300537,0.054521411657333374,0.12313015758991241,0.258752703666687,-4.35097074508667,-1.8890140056610107,0.5973565578460693,0.18035017085320862,0.2721230424239811,-0.1296181353031637
2.2247390747070312,0.06207321584224701,0.11484503746032715,0.2204582691192627,-4.390777587890625,-1.8813694715499878,0.386601984500885,0.1394204626260655,0.25053158269355486,-0.11332188700046002
2.232917308807373,0.05929015576839447,0.10285549610853195,0.2292000651359558,-4.557195663452148,-1.7554904222488403,0.3197513222694397,0.0967809606202836,0.2306540190578734,-0.09924594924787948
2.2430191040039062,0.05061246454715729,-0.06441830098628998,0.22793912887573242,-4.686990737915039,-1.6367177963256836,0.26417088508605957,0.052304812808055046,0.21272090065851812,-0.08620614139839235
2.2529752254486084,0.0628739446401596,-0.11122432351112366,0.17986470460891724,-4.795114994049072,-1.5360487699508667,0.25904589891433716,0.006314219683196056,0.1964942404282292,-0.07400647208902729
2.2633681297302246,0.06537972390651703,-0.054429780691862106,0.17079997062683105,-4.846846580505371,-1.41654372215271,0.2737659811973572,-0.04066224911535705,0.18189532849901374,-0.06232519064116934
2.2743020057678223,0.05328294634819031,-0.07187174260616302,0.155961275100708,-4.746344089508057,-1.2736473083496094,0.3129352331161499,-0.08753212378209797,0.16917567963503752,-0.05100562568998438
2.282992124557495,0.033317580819129944,-0.07273843884468079,0.12298685312271118,-4.529688358306885,-1.180833101272583,0.32313814759254456,-0.13289793171838066,0.158089787318053,-0.040212739647023925
2.2929811477661133,0.030477523803710938,-0.04277116060256958,0.09552186727523804,-4.210826873779297,-1.1215656995773315,0.34052833914756775,-0.1757081319621892,0.14814816878385254,-0.030140140105079167
2.302915096282959,0.01871858537197113,-0.02194279432296753,0.09679698944091797,-3.8068289756774902,-1.1025121212005615,0.3696988523006439,-0.2149391344907545,0.13885798123129997,-0.020695765266521234
2.3131041526794434,0.013900652527809143,-0.004381284117698669,0.09717422723770142,-3.407789468765259,-1.0987690687179565,0.39331522583961487,-0.25020884461772697,0.12988637883609774,-0.011827205198786805
2.324336051940918,0.014166899025440216,0.02309367060661316,0.08491343259811401,-3.06669545173645,-1.073824405670166,0.3919658064842224,-0.28176734080455196,0.12119167765469681,-0.0035529677351723668
2.332958221435547,0.025867417454719543,0.027797847986221313,0.06486886739730835,-2.932365894317627,-0.9841166138648987,0.3503435254096985,-0.311072323531516,0.11292895116344398,0.003936457873923512
2.343569278717041,0.03152018040418625,-0.0020200908184051514,0.03893840312957764,-2.8796916007995605,-0.8895795345306396,0.3473486304283142,-0.3395949844030936,0.10592618723024251,0.0109391751446095
2.35305118560791,0.011637017130851746,-0.05283811688423157,0.004366040229797363,-2.854830265045166,-0.7598041892051697,0.34587883949279785,-0.36774186866788194,0.10011668204357911,0.01781975551037099
2.363293170928955,0.014888353645801544,-0.07104584574699402,-0.027764439582824707,-2.9082391262054443,-0.6463890075683594,0.3165605366230011,-0.3960957566568978,0.09548234770272214,0.024389520795416727
2.3742733001708984,0.011050797998905182,-0.06698405742645264,-0.0379183292388916,-2.9733667373657227,-0.5152667164802551,0.30714091658592224,-0.4251508846498368,0.0922346754144627,0.03078232927777811
2.3830721378326416,-0.017519578337669373,-0.08994847536087036,-0.03864789009094238,-2.9507267475128174,-0.433178573846817,0.28977054357528687,-0.45447781507904556,0.09018407894831189,0.03707077978697375
2.3931922912597656,-0.016453050076961517,-0.09061872959136963,-0.04185980558395386,-2.8362038135528564,-0.37601515650749207,0.2704405188560486,-0.48314422003932384,0.08886145536055659,0.04310315694747831
2.403097152709961,-0.02358853816986084,-0.06568247079849243,-0.02974635362625122,-2.6281516551971436,-0.33245885372161865,0.2612020969390869,-0.5102164369590846,0.08808302691302365,0.048875172425196296
2.4133782386779785,-0.017433494329452515,-0.028046607971191406,-0.02284294366836548,-2.35699462890625,-0.30968937277793884,0.234749436378479,-0.5348956616487975,0.08757794008658872,0.05428616540229889
2.4249610900878906,-0.014211714267730713,0.004385530948638916,-0.02461528778076172,-2.038884162902832,-0.277813196182251,0.18885917961597443,-0.5566315125230675,0.08708234548311662,0.05899938706746535
2.4332222938537598,-0.015902124345302582,0.012355983257293701,-0.025147736072540283,-1.7017573118209839,-0.25152191519737244,0.15535715222358704,-0.5751541634519112,0.08656009951003027,0.06295659199387943
2.4434142112731934,-0.015678994357585907,0.018433749675750732,-0.032965779304504395,-1.351448893547058,-0.24879559874534607,0.11954189091920853,-0.5902615518976154,0.08583150138886524,0.06617402915040116
2.4532461166381836,-0.01436101645231247,0.0467907190322876,-0.03827321529388428,-1.03716242313385,-0.23789846897125244,0.1080990880727768,-0.602055594989844,0.08484347608469653,0.0687504268088848
2.4634180068969727,-0.0102744922041893,0.05517774820327759,-0.04543215036392212,-0.7541571259498596,-0.21994197368621826,0.126922145485878,-0.6108830856402417,0.08387377690364246,0.07108567187253186
2.4748401641845703,-0.007450468838214874,0.07090961933135986,-0.05548888444900513,-0.49869364500045776,-0.204925999045372,0.14594244956970215,-0.6169874316155142,0.08307088226433405,0.07340323403077403
2.4832851886749268,-0.005394503474235535,0.08781206607818604,-0.06167846918106079,-0.3056005835533142,-0.17603763937950134,0.1468421220779419,-0.6208518653182116,0.08243936496374883,0.07563597220243914
2.4932351112365723,-0.012300021946430206,0.07748186588287354,-0.05936133861541748,-0.14187929034233093,-0.1116274893283844,0.1412859708070755,-0.6229357389308462,0.08217754299832279,0.07764417142901617
2.50315523147583,-0.023172453045845032,0.05489790439605713,-0.05456489324569702,-0.01829531230032444,-0.0636378601193428,0.1258351057767868,-0.6235946237377898,0.08230209696757124,0.07937103005126145
2.5132851600646973,-0.032795250415802,0.044686198234558105,-0.05826514959335327,0.051238223910331726,-0.018796617165207863,0.10512716323137283,-0.6232982996812425,0.0827114345714657,0.08078184748189546
2.524717330932617,-0.033535368740558624,0.04079633951187134,-0.05216646194458008,0.06501935422420502,0.02434241957962513,0.08022021502256393,-0.6226018400861144,0.08335801096368615,0.08185390070968905
2.5332722663879395,-0.0332636684179306,0.024134576320648193,-0.046545326709747314,0.04648188501596451,0.0568244643509388,0.06423219293355942,-0.6219622554630263,0.08424653907479691,0.08266602803447567
2.5437231063842773,-0.03192681819200516,0.0168076753616333,-0.04347914457321167,0.006625301204621792,0.07588323950767517,0.05598534271121025,-0.6216276259790305,0.08530733821807099,0.08336170932946697
2.5533690452575684,-0.025055386126041412,0.014882802963256836,-0.04197806119918823,-0.039536599069833755,0.08009982109069824,0.05808524414896965,-0.6217618568303451,0.08651526960227669,0.08407236413012388
2.5634713172912598,-0.015805229544639587,0.015364885330200195,-0.039303719997406006,-0.07331297546625137,0.08691929280757904,0.06752913445234299,-0.6222763403171021,0.08784383421772513,0.08490708279848906
2.574904203414917,-0.012537762522697449,0.025086402893066406,-0.03791999816894531,-0.08974308520555496,0.089772067964077,0.07580437511205673,-0.6230257752323488,0.08928450978539172,0.0858681696684793
2.5835721492767334,-0.008317209780216217,0.028719663619995117,-0.04188507795333862,-0.08570750802755356,0.09759479761123657,0.07864292711019516,-0.623850626761721,0.09083645702152582,0.0869141366113614
2.593414306640625,-0.002583220601081848,0.025969862937927246,-0.040667593479156494,-0.0618186891078949,0.1058623194694519,0.07942589372396469,-0.6245127237068296,0.09247063692415579,0.08796155663565686
2.603499174118042,-0.004425801336765289,0.02578359842300415,-0.03574478626251221,-0.037369802594184875,0.10444365441799164,0.07494539767503738,-0.6249116549816043,0.094117792511234,0.08897263101408191
2.6136350631713867,-0.007578469812870026,0.027631700038909912,-0.032905638217926025,-0.012416250072419643,0.1028880923986435,0.06399394571781158,-0.6250976196493098,0.09567312527831057,0.08985884690354115
2.625300168991089,-0.007593974471092224,0.024068355560302734,-0.02243649959564209,0.002819810761138797,0.09822769463062286,0.05457040295004845,-0.6250699464185119,0.09703262182043708,0.09054119378137479
2.6337361335754395,-0.007652416825294495,0.015150904655456543,-0.01317363977432251,0.00889341626316309,0.08740753680467606,0.05217622220516205,-0.6249272508123372,0.09826710615799679,0.09115211708661426
2.643500328063965,-0.007794097065925598,0.019710063934326172,-0.010211527347564697,-0.002742334268987179,0.0793081521987915,0.05191587284207344,-0.6248182525175984,0.09941796535322427,0.09175879916644668
2.6534011363983154,-0.009963825345039368,0.02417910099029541,-0.00636744499206543,-0.014367830939590931,0.07481380552053452,0.041584938764572144,-0.6248580868939303,0.1004644803952279,0.09231126801109993
2.663555145263672,-0.011507757008075714,0.015859484672546387,-0.0012966394424438477,-0.02836034446954727,0.07041177153587341,0.028927413746714592,-0.6250318683713924,0.10140728686291495,0.09273904338936283
2.674434185028076,-0.014868505299091339,0.010387003421783447,-0.00021088123321533203,-0.048180654644966125,0.06986822187900543,0.01206800527870655,-0.6253827327916274,0.10223237696408081,0.09301849419153817
2.6835641860961914,-0.019970357418060303,0.011865437030792236,0.0022501349449157715,-0.0652950257062912,0.08063352853059769,-0.007465109694749117,-0.6259495463395192,0.10298146136306625,0.09308283302244841
2.6935291290283203,-0.024908676743507385,0.01008749008178711,0.004210233688354492,-0.07660041004419327,0.09466651827096939,-0.01895665004849434,-0.6266937990567548,0.10373102751684056,0.0929564475674115
2.7038092613220215,-0.028110533952713013,0.010701894760131836,-0.001268148422241211,-0.0787159651517868,0.10724835097789764,-0.030592959374189377,-0.6275179855938298,0.10454824807474056,0.09270517842758946
2.71358323097229,-0.02616117149591446,0.01963520050048828,-0.011143505573272705,-0.07143540680408478,0.11633080244064331,-0.0465673990547657,-0.6283201775000588,0.1053536991176882,0.092278989298178
2.7249112129211426,-0.020140595734119415,0.020515918731689453,-0.01589500904083252,-0.04404877871274948,0.11184146255254745,-0.05192626267671585,-0.6290046516909082,0.10609775534336276,0.0916952662844511
2.733680248260498,-0.01289454847574234,0.024976909160614014,-0.016079246997833252,-0.0008826653938740492,0.1131805032491684,-0.05804860219359398,-0.6293565116482033,0.10673479964179158,0.09098785837502009
2.7436251640319824,-0.004847697913646698,0.03656351566314697,-0.020471513271331787,0.03833550959825516,0.11395308375358582,-0.06575802713632584,-0.6292935496663404,0.10731156243061281,0.09014858245777348
2.753549098968506,0.0024230554699897766,0.036741554737091064,-0.029307126998901367,0.06856371462345123,0.11021560430526733,-0.07395444065332413,-0.6288657354649568,0.1077430583080212,0.0891271271891797
2.763601303100586,0.00817824900150299,0.030238449573516846,-0.035628676414489746,0.10486901551485062,0.10813102126121521,-0.08315470069646835,-0.6281524571182511,0.10802516447369741,0.0879403678117282
2.7747812271118164,0.01889834553003311,0.028358876705169678,-0.03623807430267334,0.14378073811531067,0.09534864127635956,-0.09036041796207428,-0.6270624184366536,0.10813747005552912,0.08659614563780803
2.78360915184021,0.026506885886192322,0.03276616334915161,-0.04188495874404907,0.18155471980571747,0.07835566997528076,-0.10345294326543808,-0.6255965732027627,0.10797255001251065,0.08507734370057482
2.7936220169067383,0.036396779119968414,0.02890545129776001,-0.041451334953308105,0.21456541121006012,0.05990396440029144,-0.11338094621896744,-0.6238097034973147,0.10756552696626755,0.0833762680600238
2.8036460876464844,0.04091791808605194,0.016731202602386475,-0.04050183296203613,0.24689552187919617,0.04068867862224579,-0.11393621563911438,-0.6216842217809617,0.10696102001336216,0.08160040826304686
2.813995122909546,0.04571419209241867,0.014733076095581055,-0.04369765520095825,0.26825809478759766,0.025074034929275513,-0.11249943822622299,-0.6193014544235022,0.10620677836948496,0.07982724143521508
2.8249030113220215,0.04976722598075867,0.011696457862854004,-0.04543954133987427,0.2686002850532532,0.015189934521913528,-0.10592468082904816,-0.6168301476381827,0.10540599948165973,0.07812036524806291
2.8337602615356445,0.048703551292419434,-0.0020781755447387695,-0.045067787170410156,0.26397332549095154,0.010210888460278511,-0.09254548698663712,-0.6143581516870206,0.10463366176013891,0.07657822128980678
2.843785285949707,0.049212612211704254,-0.007071793079376221,-0.04267466068267822,0.24415123462677002,0.010595404542982578,-0.08504080772399902,-0.6119562164664594,0.10396222072127209,0.07519514587569276
2.853614330291748,0.04948366433382034,-0.018122851848602295,-0.038857460021972656,0.20748271048069,0.009048640727996826,-0.07848995923995972,-0.6098185520773787,0.10338013347665405,0.07394698972298624
2.863793134689331,0.04383823275566101,-0.03479635715484619,-0.03289926052093506,0.15596075356006622,0.007390867453068495,-0.07566706836223602,-0.6081389066348364,0.10286577603552462,0.07281530223967725
2.8743131160736084,0.04485791176557541,-0.04727703332901001,-0.024503767490386963,0.10928751528263092,0.003991075791418552,-0.06450869143009186,-0.6069297577467327,0.10246482348869917,0.0718625697157963
2.883695125579834,0.043842434883117676,-0.05313140153884888,-0.017849504947662354,0.07454865425825119,-0.00323279295116663,-0.053317710757255554,-0.6060879364070337,0.1021351119228874,0.0711112793346462
2.8937361240386963,0.039701417088508606,-0.05546116828918457,-0.012121319770812988,0.04833915829658508,-0.014737915247678757,-0.041413381695747375,-0.605525234526312,0.10185984816649117,0.07056405066604202
2.903958320617676,0.0359034538269043,-0.05807673931121826,-0.005927085876464844,0.039587195962667465,-0.02321409061551094,-0.025071853771805763,-0.6051061285569284,0.1016046082967919,0.07022003148534171
2.914252281188965,0.03132345527410507,-0.05567216873168945,-0.002309441566467285,0.040478289127349854,-0.030775602906942368,-0.005176175851374865,-0.6046500493835589,0.10138892159086033,0.07010016077267005
2.925124168395996,0.02423151582479477,-0.04987913370132446,0.0010097026824951172,0.0480988584458828,-0.03644866868853569,0.00819571502506733,-0.6041187669474593,0.10123563596417733,0.0701877153772861
2.9340732097625732,0.01769471913576126,-0.04685044288635254,0.006650328636169434,0.055131468921899796,-0.028592344373464584,0.01988246478140354,-0.6034608658196496,0.10117828874927422,0.0704157998457547
2.9440650939941406,0.00949668139219284,-0.044203877449035645,0.015751302242279053,0.05186065658926964,-0.02276122011244297,0.02890924923121929,-0.6026745240502606,0.10129584504350003,0.07078648781134293
2.9539432525634766,0.006001979112625122,-0.04059422016143799,0.018617689609527588,0.04529143497347832,-0.014317136257886887,0.028573425486683846,-0.6018494240761821,0.10159227705469319,0.07126408200305917
2.9638872146606445,0.0018409788608551025,-0.03736633062362671,0.025761425495147705,0.0386219322681427,-0.005501051899045706,0.02715337462723255,-0.6009880883803466,0.10206568662153039,0.07178033940913797
2.9748892784118652,-0.0008116960525512695,-0.03638005256652832,0.0340082049369812,0.032524362206459045,0.00273983390070498,0.029048746451735497,-0.6000330587784805,0.10273926474980485,0.07236462308406538
2.9839372634887695,-0.0050788819789886475,-0.027516067028045654,0.035673439502716064,0.029479701071977615,0.02167002484202385,0.03252299875020981,-0.5991845654163187,0.1034718546095054,0.07293612999892359
2.9938902854919434,-0.007450871169567108,-0.016025781631469727,0.035696446895599365,0.03463984280824661,0.03925008699297905,0.03281141817569733,-0.5985374266885567,0.10423285385706314,0.07343069314811232
3.0040950775146484,-0.010848335921764374,-0.011183619499206543,0.032675981521606445,0.050000421702861786,0.04976451396942139,0.023602208122611046,-0.597903422915141,0.10497948754030084,0.07379667394480467
3.0141730308532715,-0.012730665504932404,-0.003170013427734375,0.03409135341644287,0.06002695858478546,0.05815240368247032,0.018238602206110954,-0.5971986880404755,0.10569642609642615,0.07402118919217081
3.025607109069824,-0.010595448315143585,0.004548013210296631,0.0339127779006958,0.07084138691425323,0.07039521634578705,0.013831017538905144,-0.5964458867081625,0.10644094722256868,0.07415769002743156
3.0338621139526367,-0.00984732061624527,0.012287616729736328,0.03315025568008423,0.08198272436857224,0.07989711314439774,0.005209033843129873,-0.5956120822135255,0.10721422003932718,0.07418529045413166
3.0440142154693604,-0.005898907780647278,0.017655670642852783,0.030922353267669678,0.08082956075668335,0.08561611920595169,-0.006825950928032398,-0.5947495823964893,0.10798957978845336,0.07407183845992166
3.053934097290039,-0.004978783428668976,0.01810324192047119,0.02301156520843506,0.07169784605503082,0.08604168891906738,-0.019755331799387932,-0.5939884415417817,0.10870613179207178,0.07380577215139579
3.0642812252044678,-0.00207432359457016,0.017940998077392578,0.016968727111816406,0.05885220319032669,0.0788574144244194,-0.03108798712491989,-0.5933741402759372,0.10928398253278673,0.07338763298173694
3.075660228729248,0.0029626861214637756,0.016625523567199707,0.01553720235824585,0.04992209002375603,0.06551897525787354,-0.040921445935964584,-0.5929180306987444,0.10969253707482378,0.07286925984718595
3.0840721130371094,0.006074197590351105,0.019846856594085693,0.012957632541656494,0.04134892672300339,0.05198971927165985,-0.04706961661577225,-0.5925846851681315,0.1098914351901061,0.0722481648776822
3.094010353088379,0.006464935839176178,0.018407821655273438,0.011753439903259277,0.03324972093105316,0.03669784218072891,-0.05172455683350563,-0.5923880700386464,0.10990261674582333,0.07155279338902554
3.1039700508117676,0.005941085517406464,0.012736618518829346,0.008435666561126709,0.03315531462430954,0.021214403212070465,-0.05633432790637016,-0.5922900542456911,0.10973493356894998,0.07081962813286372
3.114351272583008,0.005834914743900299,0.010692059993743896,0.007094740867614746,0.031011736020445824,0.011853393167257309,-0.05516999587416649,-0.5922531047495134,0.10943539063949653,0.07007040689129293
3.125070095062256,0.005686424672603607,0.007762730121612549,0.006767630577087402,0.02819024957716465,0.007117582485079765,-0.04997379332780838,-0.5922894528947532,0.10911857682260571,0.06938070035508363
3.13399600982666,0.0031315013766288757,0.0032265186309814453,0.005715012550354004,0.02729249745607376,0.003455735743045807,-0.04408687725663185,-0.592368239543382,0.10879947764314643,0.06876487857992027
3.1441261768341064,0.0023961588740348816,-0.0012816190719604492,0.0040746331214904785,0.028101248666644096,0.0069976067170500755,-0.04146866872906685,-0.5924500337460367,0.10854999093906594,0.06822172226246258
3.1540093421936035,0.001417696475982666,-0.004756271839141846,0.0035812854766845703,0.029439222067594528,0.0049160802736878395,-0.040719788521528244,-0.5925367849353786,0.10841064139610468,0.06775682522250183
3.164208173751831,-0.002042226493358612,-0.009242355823516846,0.004436910152435303,0.027786696329712868,0.005093269050121307,-0.036828912794589996,-0.5926287507132452,0.1083387281331576,0.06735058306898697
3.1749942302703857,-0.0011684373021125793,-0.012075483798980713,0.0035263895988464355,0.028492966666817665,0.007429393939673901,-0.028435425832867622,-0.5926778956594084,0.10831892424745866,0.06700393792881573
3.1841721534729004,0.0026771873235702515,-0.013176381587982178,0.004700303077697754,0.027646414935588837,0.003687741933390498,-0.024914460256695747,-0.5926254813709718,0.10831458248615142,0.06673346611116183
3.1941471099853516,0.004380680620670319,-0.012252569198608398,0.005000770092010498,0.023887362331151962,-0.0037866858765482903,-0.02420472912490368,-0.5925602176490579,0.10826093822578291,0.06646769138101899
3.2042131423950195,0.008015729486942291,-0.015381157398223877,0.008990466594696045,0.02128918282687664,-0.011000923812389374,-0.025517400354146957,-0.5924872958658428,0.1081219044084426,0.06620472152577135
3.2142281532287598,0.009873621165752411,-0.01752150058746338,0.014313161373138428,0.02297043614089489,-0.013459553942084312,-0.021716004237532616,-0.5923635640163877,0.10789533297831394,0.0659284773043097
3.2250051498413086,0.010238595306873322,-0.011969983577728271,0.014553070068359375,0.022610411047935486,-0.006864767521619797,-0.01613529771566391,-0.5921828613220158,0.10769868645287203,0.06569751886360453
3.23410701751709,0.010933846235275269,-0.009498178958892822,0.008852243423461914,0.025659196078777313,0.0012485524639487267,-0.014826619066298008,-0.591943992529421,0.10757841981438385,0.0654941987665149
3.2444820404052734,0.009164400398731232,-0.01162034273147583,0.004037261009216309,0.034081608057022095,0.00854579173028469,-0.013833313249051571,-0.5916144785572814,0.10749833321124747,0.06527299281927523
3.2541470527648926,0.00623667985200882,-0.012815713882446289,0.0020519495010375977,0.039509400725364685,0.012482209131121635,-0.014651170000433922,-0.5911795369952266,0.1074829153529745,0.06505404730135862
3.2644600868225098,0.007006950676441193,-0.009251952171325684,0.0034334659576416016,0.04391614720225334,0.009789886884391308,-0.020056428387761116,-0.5906915735129803,0.10751263609377233,0.0648294743325992
3.274691104888916,0.01219748705625534,-0.00952678918838501,0.006885111331939697,0.04516943171620369,0.0007780161686241627,-0.023978732526302338,-0.5901958810993693,0.10747370550820427,0.0645593838644583
3.2845041751861572,0.013798713684082031,-0.013273239135742188,0.00775378942489624,0.04190201684832573,-0.0012632524594664574,-0.02415945567190647,-0.5897097506195981,0.10742127451826805,0.06428805013710205
3.2941880226135254,0.01608620584011078,-0.011329174041748047,0.010226607322692871,0.03612535446882248,0.0007783267647027969,-0.022811628878116608,-0.5892984961618836,0.10739322101780793,0.06405002651294985
3.3045542240142822,0.017703965306282043,-0.008830070495605469,0.007799923419952393,0.03167250007390976,0.007364457473158836,-0.022551383823156357,-0.5889904305973499,0.10742600286314238,0.06383591905377917
3.3151631355285645,0.015583425760269165,-0.009861111640930176,0.004840433597564697,0.026843920350074768,0.014556590467691422,-0.022678948938846588,-0.5887257306348187,0.1075171355437727,0.06360987847315233
3.3250131607055664,0.0128859281539917,-0.011988699436187744,0.004921019077301025,0.0273528341203928,0.018378181383013725,-0.02146092616021633,-0.5884217707907367,0.10763884138785541,0.06337302892810258
3.3343122005462646,0.01116333156824112,-0.010067284107208252,0.008212864398956299,0.033115651458501816,0.022399021312594414,-0.017917590215802193,-0.588074698889389,0.10777785697824789,0.06314916682453252
3.3445191383361816,0.010697878897190094,-0.007898211479187012,0.0068929195404052734,0.04585699364542961,0.025613324716687202,-0.013776268810033798,-0.5876684899856741,0.10797916942628383,0.06296478555886866
3.3542532920837402,0.007781572639942169,-0.009338080883026123,0.006238400936126709,0.057856131345033646,0.024953393265604973,-0.006428873166441917,-0.5871435010123991,0.10829382998424258,0.06286903269725537
3.364565134048462,0.006632372736930847,-0.009988963603973389,0.002650737762451172,0.06423500180244446,0.023951955139636993,-0.0038061393424868584,-0.5864775730388971,0.10865692039951151,0.06283942304249124
3.375141143798828,0.008134469389915466,-0.011049151420593262,0.0011813640594482422,0.06937383860349655,0.015382968820631504,-0.004638377111405134,-0.5857903690518972,0.10900427437963772,0.06283702566743868
3.3843860626220703,0.009752027690410614,-0.014984428882598877,0.0035818815231323242,0.06106918677687645,0.0013474440202116966,-0.0033801933750510216,-0.5851295424646699,0.10925080508217513,0.06283333027440113
3.3944592475891113,0.012631997466087341,-0.01484447717666626,0.004931032657623291,0.05016407370567322,-0.005416185595095158,-0.0028542187064886093,-0.5845407257331635,0.10937845689529228,0.06284047816841308
3.404588222503662,0.017939485609531403,-0.01145702600479126,0.005026876926422119,0.03109877184033394,-0.012908900156617165,-0.001689458847977221,-0.5840834253360139,0.10940355518891244,0.06285200033840488
3.414541244506836,0.016804412007331848,-0.009493410587310791,0.0033662915229797363,0.009466977789998055,-0.01739552803337574,0.00028607400599867105,-0.5838879545969842,0.10937811985116645,0.06289288957163301
3.4252312183380127,0.017561405897140503,-0.012041449546813965,0.005479872226715088,-0.0010274583473801613,-0.01997324451804161,0.002940925769507885,-0.5838511519740179,0.10934580997503676,0.06298912878528565
3.434666156768799,0.017352469265460968,-0.009103000164031982,0.008463382720947266,-0.008641968481242657,-0.021402563899755478,0.004371576011180878,-0.5838772014432312,0.10926845876245571,0.06309136068711518
3.446378231048584,0.015209570527076721,-0.007946670055389404,0.008994340896606445,-0.005166226997971535,-0.024511761963367462,0.0073595368303358555,-0.5838995098589242,0.10916772900796769,0.06322130421499224
3.4545772075653076,0.015023887157440186,-0.0056601762771606445,0.01046055555343628,0.0022661229595541954,-0.027538444846868515,0.010959064587950706,-0.5838290790129406,0.10907374012314529,0.06339144491383543
3.4655842781066895,0.01750969886779785,-0.002299666404724121,0.008083581924438477,0.00965879112482071,-0.02762579545378685,0.01104268804192543,-0.5836420350482928,0.10898829421192449,0.06358611862240413
3.4757931232452393,0.01799061894416809,0.0018701553344726562,0.007564663887023926,0.0015561243053525686,-0.028188254684209824,0.006385351996868849,-0.583454154150908,0.10894681640142666,0.0637785765557273
3.4847002029418945,0.01735495775938034,-0.0007108449935913086,0.007170319557189941,-0.010412371717393398,-0.02501096948981285,0.0005840817466378212,-0.58342034692466,0.10895648241878274,0.06396243439874537
3.4955711364746094,0.01780419796705246,-0.005620718002319336,0.008823215961456299,-0.025168415158987045,-0.023470064625144005,-0.003203465836122632,-0.5835258476125555,0.10893758791453094,0.06409085512305772
3.504855155944824,0.020453937351703644,-0.007952094078063965,0.009213447570800781,-0.037242770195007324,-0.018081113696098328,-0.007389635778963566,-0.583759744871422,0.10894246181783662,0.06419560108473597
3.514832019805908,0.01780150830745697,-0.011450707912445068,0.012015759944915771,-0.04468364268541336,-0.011737997643649578,-0.00979420356452465,-0.5841489881171619,0.10900427483089965,0.0642815681061436
3.5255072116851807,0.013225145637989044,-0.014948487281799316,0.012427866458892822,-0.04295756667852402,-0.0020555872470140457,-0.0034924722276628017,-0.5845739570663026,0.10912552126733446,0.06436789082192801
3.5344810485839844,0.00840567797422409,-0.016756892204284668,0.012670755386352539,-0.01823304407298565,0.0014035929925739765,-0.002728943945840001,-0.5848761930472084,0.10932877213454671,0.06448555561859505
3.5445961952209473,0.007628157734870911,-0.009838879108428955,0.016326904296875,0.006985627114772797,0.013704201206564903,0.0002918265527114272,-0.584924149544276,0.10960761472898826,0.06459834160093439
3.554502010345459,0.003269664943218231,-0.010875821113586426,0.01623326539993286,0.01637886092066765,0.02591133303940296,0.005261285230517387,-0.5848319033290076,0.11001768684809038,0.06472309465790552
3.564568042755127,-0.0006516501307487488,-0.011429905891418457,0.013610780239105225,0.02071998082101345,0.041215185075998306,0.0047708372585475445,-0.5846546242371695,0.11055677780160011,0.06485685845540472
3.57486629486084,-0.0017227604985237122,-0.011076748371124268,0.010158002376556396,0.023555181920528412,0.051678746938705444,0.0016940874047577381,-0.5844141807511317,0.11120542859488933,0.06495723933693001
3.5845980644226074,-0.004060782492160797,-0.015616774559020996,0.009129106998443604,0.022476552054286003,0.051661573350429535,0.0006776119116693735,-0.5841677949612387,0.11190922400129429,0.06504826819562667
3.59462833404541,-0.005628935992717743,-0.01449054479598999,0.005959272384643555,0.021231258288025856,0.04423721134662628,-0.0007956487243063748,-0.5839152654721,0.11253042005462492,0.06510852787432417
3.6047651767730713,0.0019647404551506042,-0.006429314613342285,0.005051791667938232,0.02139236405491829,0.03189678490161896,-0.0034877315629273653,-0.5836536968794372,0.11299563905533734,0.06511472229646151
3.614622116088867,0.005228310823440552,-0.007528245449066162,0.004555225372314453,0.019270889461040497,0.02072216384112835,-0.005025973543524742,-0.5833980380454831,0.11327307185781203,0.06506777797406041
3.626160144805908,0.005665451288223267,-0.008080899715423584,0.00019103288650512695,0.01488909125328064,0.013871358707547188,-0.006906218361109495,-0.5832558541765284,0.1134528589692346,0.06499119722690505
