timestamp,accel_x,accel_y,accel_z,rotation_x,rotation_y,rotation_z, pitch,roll,yaw
0.04555010795593262,0.008056417107582092,0.007740825414657593,0.0030795931816101074,0.01823396235704422,0.005237962119281292,-0.007882166653871536,0.045613706215053854,0.23206855306738958,-0.0053175454887993134
0.06014108657836914,0.00918644666671753,0.002834431827068329,0.008798003196716309,0.007755238562822342,0.005672989413142204,-0.009540623053908348,0.04571230108551738,0.23213149470680292,-0.005429369559645064
0.06127309799194336,0.00506824254989624,-0.00011141225695610046,0.007323503494262695,-0.006418371573090553,0.0003783591091632843,-0.008185073733329773,0.04569613467345049,0.23217670955146752,-0.00550685296568586
0.06480121612548828,0.0076155513525009155,-0.00014691054821014404,0.0035668015480041504,-0.008793678134679794,-0.0073537747375667095,-0.009717456996440887,0.04558422360080876,0.23214504416493623,-0.005578571846404314
0.07410621643066406,0.012539252638816833,0.0015186592936515808,0.004777371883392334,-0.004089204128831625,-0.007307169493287802,-0.0041274819523096085,0.045510220744473806,0.2320707823443931,-0.00562862443500913
0.08387231826782227,0.008787229657173157,0.004258349537849426,0.005676090717315674,0.01023823581635952,-0.005339004099369049,-0.004545704461634159,0.0455338605201283,0.2320065686366177,-0.0056755073492603106
0.0925602912902832,0.006411552429199219,0.006673038005828857,0.0027698278427124023,0.022625664249062538,-0.010560131631791592,-0.006783825345337391,0.04569041730416018,0.2319406539303248,-0.005772980692618076
0.10251998901367188,0.005797296762466431,0.008878692984580994,0.0018724799156188965,0.02310643158853054,-0.013176243752241135,-0.008014151826500893,0.04589738792793456,0.23182134603984905,-0.0058918005968486295
0.11256718635559082,0.006346404552459717,0.006447363644838333,0.006050527095794678,0.02201240509748459,-0.006490377243608236,-0.007499363273382187,0.046090772092542774,0.23172949236680604,-0.006013049591804161
0.12255525588989258,0.0022287070751190186,0.004080239683389664,0.007074892520904541,0.021441437304019928,-0.004473432432860136,-0.00690984632819891,0.046287332125119526,0.23168230680266616,-0.006126883705957859
0.1338043212890625,-1.125037670135498e-05,0.0028419792652130127,0.008715569972991943,0.015237872488796711,-0.009638100862503052,-0.011257989332079887,0.046437778602560605,0.23161800458404982,-0.006262645189996724
0.14261412620544434,0.002572581171989441,0.002373814582824707,0.010258853435516357,0.011651841923594475,-0.0117502985522151,-0.0068533336743712425,0.046549581707288866,0.23151984165322173,-0.006385985841086203
0.15276122093200684,0.006573587656021118,0.0009595081210136414,0.008182525634765625,0.009927978739142418,-0.005906524136662483,-0.005284465849399567,0.04664599648882054,0.23143913497907453,-0.00647516835532438
0.16289329528808594,0.005192488431930542,0.0009453296661376953,0.006699621677398682,0.009415319189429283,-0.009007508866488934,-0.004654095508158207,0.046723453052428025,0.2313695325489591,-0.006545404741505463
0.17282915115356445,0.005543932318687439,0.002558201551437378,0.007613062858581543,0.014233244583010674,-0.008720153011381626,-0.004068998619914055,0.04682581306384352,0.23129167789315114,-0.006612942393070348
0.18380022048950195,0.006023123860359192,0.003955800086259842,0.009684622287750244,0.02158002182841301,-0.009992478415369987,-0.0014862652169540524,0.04698763047134504,0.2312086715095392,-0.0066846607349503396
0.19288921356201172,0.0061754584312438965,0.004717320203781128,0.00915384292602539,0.024495651945471764,-0.002805406227707863,-0.00015441840514540672,0.04721534736805146,0.23114868986339732,-0.006741640988352854
0.2028512954711914,0.0035610049962997437,0.00844651460647583,0.008065283298492432,0.0344562903046608,0.002513681538403034,0.000308705260977149,0.047389437750556505,0.23120304198223446,-0.006805981863053853
0.21262812614440918,0.0028562992811203003,0.006726965308189392,0.008070707321166992,0.036669909954071045,0.0005397466011345387,-0.0018306119600310922,0.047669114263477565,0.2312561416027581,-0.006899053148618139
0.22267413139343262,0.0023593753576278687,0.00662636011838913,0.010417282581329346,0.03445497527718544,0.005000496748834848,-0.0037084603682160378,0.047950294130895244,0.23134667708371429,-0.0070230094681114795
0.23357629776000977,0.0028446614742279053,0.007824309170246124,0.013570964336395264,0.034060295671224594,0.006140329409390688,-0.006520225666463375,0.04823304282857189,0.23150991737629567,-0.007158380355113634
0.24278521537780762,0.00258694589138031,0.006297435611486435,0.011569380760192871,0.03392485901713371,0.007933923974633217,-0.012918257154524326,0.04849175535790462,0.2316680911701661,-0.007330823179153543
0.25270605087280273,0.0039019137620925903,0.007058922201395035,0.010767698287963867,0.03205212205648422,0.0007103662937879562,-0.012524109333753586,0.04870416363979799,0.23179330724522915,-0.007540036734707648
0.2626612186431885,0.00637662410736084,0.01082608848810196,0.009130477905273438,0.022149473428726196,-0.007278273347765207,-0.012621687725186348,0.048824620829940026,0.23185462690657135,-0.007742714280939953
0.27275919914245605,0.010201305150985718,0.009838283061981201,0.009463965892791748,0.012520814314484596,-0.008150191977620125,-0.014302941039204597,0.048843921517211675,0.23186027384513128,-0.00792242503187436
0.2844831943511963,0.007776394486427307,0.004960518330335617,0.008988499641418457,-0.0022680512629449368,-0.007003523875027895,-0.014075507409870625,0.048665656052802916,0.2318412467072827,-0.008074903010454042
0.29289913177490234,0.00394071638584137,0.0035190433263778687,0.01136767864227295,-0.010479375720024109,-0.004911078605800867,-0.012443521991372108,0.048429348600971804,0.23182870805389147,-0.00818792939799126
0.30288028717041016,0.004412665963172913,0.0016017481684684753,0.014219701290130615,-0.015896111726760864,-0.0038239755667746067,-0.011215751990675926,0.04814440025120029,0.2318265662830415,-0.008275990787330184
0.31284427642822266,0.0033729225397109985,0.0008520036935806274,0.014557063579559326,-0.020542263984680176,0.0038344762288033962,-0.008154448121786118,0.04780626297028584,0.2318877433092271,-0.008335730041732669
0.3230001926422119,0.0026175975799560547,-0.0001167096197605133,0.013518691062927246,-0.016558922827243805,0.010203114710748196,-0.008572829887270927,0.04750860466553639,0.23201783269573803,-0.008370167461587398
0.33447933197021484,0.002779364585876465,0.00139550119638443,0.01185387372970581,-0.013809475116431713,0.013307828456163406,-0.0032558294478803873,0.04725049373274526,0.2322095260198502,-0.008391171987293432
0.3432462215423584,0.002238646149635315,0.0045079514384269714,0.009572029113769531,-0.007230885326862335,0.014484990388154984,-0.003577645868062973,0.04697520016784798,0.23243309457414263,-0.008403497515668459
0.3531312942504883,0.002137899398803711,0.0052473098039627075,0.00855410099029541,0.006002362351864576,0.014348901808261871,-0.005111093632876873,0.04682938721719315,0.23270780645918288,-0.008449639799554653
0.36306333541870117,0.0019879937171936035,0.006925906985998154,0.005405068397521973,0.01326458528637886,0.011600565165281296,-0.008142943494021893,0.04686006038600825,0.23292517430216292,-0.008537176270564568
0.3730812072753906,0.003335028886795044,0.007697924971580505,0.007249116897583008,0.019267616793513298,0.012799786403775215,-0.009161336347460747,0.04697608691348508,0.23311048013284114,-0.008662851989132992
0.38448524475097656,0.004081472754478455,0.005838453769683838,0.006128251552581787,0.021440407261252403,0.00954012107104063,-0.012064606882631779,0.04716149097310108,0.23330224215043985,-0.008810263953095398
0.3929710388183594,0.0037802904844284058,0.0062105171382427216,0.0016107559204101562,0.012362489476799965,0.0002086707390844822,-0.01354585774242878,0.04730483473980246,0.2334096539653962,-0.008980617398298195
0.40315914154052734,0.0068270862102508545,0.003909628838300705,0.0014045238494873047,0.0036053836811333895,-0.004122605547308922,-0.013050084002315998,0.0473691332066783,0.23343116194667804,-0.009128230118681722
0.4135322570800781,0.007892727851867676,0.0008218660950660706,0.003451824188232422,-0.01020949799567461,-0.006835834123194218,-0.013443699106574059,0.04730253716312477,0.2334329720852053,-0.009254870022725046
0.42522430419921875,0.004996016621589661,-0.0014338381588459015,0.003443777561187744,-0.01396552100777626,-0.011360367760062218,-0.009166821837425232,0.047075987826137075,0.2333807877035335,-0.009339735646749177
0.43544626235961914,0.005934998393058777,-0.0037439092993736267,0.00506281852722168,-0.01516634039580822,-0.01395721547305584,-0.005190989002585411,0.046825583831322785,0.23329105702956462,-0.009372205665493516
0.4431290626525879,0.006283685564994812,-0.00105975940823555,0.007220447063446045,-0.011888038367033005,-0.011922160163521767,-0.0007192216580733657,0.04657977618166358,0.2331807656216793,-0.00937289080740542
0.45316505432128906,0.005239412188529968,-0.0012648366391658783,0.007562160491943359,-0.003545952495187521,-0.009103471413254738,0.0024376893416047096,0.04640503394856337,0.23312286774471133,-0.009343558844693109
0.4632110595703125,0.0040649473667144775,-0.0031239576637744904,0.00829017162322998,0.002569963224232197,-0.0056424266658723354,0.008376752026379108,0.0463311078455665,0.23309019659669428,-0.009288382239640442
0.47317028045654297,0.0030538439750671387,-0.0009172707796096802,0.01113194227218628,0.005109553690999746,-0.003659436944872141,0.011417282745242119,0.0463099904584676,0.23307841476047828,-0.009188727829235353
0.4844691753387451,0.0046427249908447266,-0.0006322264671325684,0.010743260383605957,-0.0003331485204398632,-0.0015478171408176422,0.015479136258363724,0.04632038536569166,0.23310789456677272,-0.009069767218556079
0.49309611320495605,0.004085764288902283,-0.002295728772878647,0.0113067626953125,-0.008798272348940372,0.0003901654854416847,0.014263669028878212,0.046320085461897094,0.23317855446791783,-0.008907839488915895
0.503209114074707,0.004962146282196045,-0.0031924881041049957,0.011848807334899902,-0.012253424152731895,-0.001084071584045887,0.013818494975566864,0.04627778796719078,0.23321838620640703,-0.008750819946411144
0.5132431983947754,0.005992010235786438,-0.0036896690726280212,0.013545513153076172,-0.011697089299559593,0.0008187568746507168,0.015282168984413147,0.04626886629095044,0.2332733264779184,-0.008576947953613826
0.523585319519043,0.004907160997390747,-0.0016437545418739319,0.011293351650238037,-0.009419538080692291,-0.002563945949077606,0.014982402324676514,0.04622428967266799,0.2333214772193658,-0.008403122136276638
0.5341391563415527,0.00663428008556366,0.002282269299030304,0.008242785930633545,-0.004232232458889484,-0.008034877479076385,0.01226118579506874,0.04621352892076021,0.2333183865420769,-0.008257589770454562
0.5433142185211182,0.008390992879867554,0.002746354788541794,0.009005188941955566,0.006168941967189312,-0.005089598707854748,0.009486916474997997,0.04631151044181089,0.2333017510370026,-0.008168851851539665
0.5533590316772461,0.005333453416824341,0.0032983236014842987,0.008694112300872803,0.0033872707281261683,-0.0020453399047255516,0.010122879408299923,0.046405811463305066,0.2333087467334152,-0.008083367770423885
0.5633711814880371,0.0024877339601516724,0.00409955158829689,0.008196413516998291,-0.008271432481706142,-5.964282900094986e-05,0.007434365339577198,0.046413587588045965,0.23334803678963767,-0.007993240624158838
0.5732951164245605,0.0023530572652816772,0.0009537562727928162,0.0076500773429870605,-0.010411548428237438,0.0012160115875303745,0.0052260723896324635,0.046380560913740064,0.23340773461549283,-0.007909025099108267
0.5843563079833984,0.0014924108982086182,0.00044182687997817993,0.009203970432281494,-0.01115831546485424,0.0045487359166145325,0.004156333860009909,0.04634159744050555,0.23349213817495684,-0.007843826238169318
0.5933611392974854,0.0014332830905914307,0.0029296167194843292,0.00931847095489502,-0.013249162584543228,0.0029247405473142862,0.003967515658587217,0.04629639574450526,0.23359960889368084,-0.007778380050887648
0.604100227355957,0.0022818297147750854,0.0027656517922878265,0.007583200931549072,-0.014032848179340363,-0.001352251973003149,0.0026087176520377398,0.046193347570611325,0.23366739753956842,-0.007717533161792693
0.6133041381835938,0.002139836549758911,0.0023777633905410767,0.006815791130065918,-0.012902868911623955,-0.0019125808030366898,0.0011295978911221027,0.04603418157191069,0.23371755295004837,-0.0076768891273056245
0.6236252784729004,0.0006247013807296753,0.0003093034029006958,0.008149862289428711,-0.010209447704255581,-0.0004764273762702942,0.0030291774310171604,0.04588816166743345,0.23378340500321176,-0.007637266863715962
0.6339640617370605,-0.0006602257490158081,0.001025669276714325,0.008478939533233643,-0.006087141111493111,0.0005494225770235062,0.0014643040485680103,0.04578045396693771,0.23383260746068676,-0.007601928466166821
0.6437602043151855,0.00020799040794372559,0.0014195889234542847,0.004538238048553467,0.0004319113213568926,-0.0001701638102531433,0.0015102168545126915,0.0457012562225998,0.23386472928537688,-0.007579904105467651
0.6543221473693848,0.000429004430770874,0.0013398155570030212,0.0019069910049438477,0.004389102105051279,0.00035075051710009575,0.0008044792339205742,0.04572833224355223,0.2338888203120639,-0.0075684710747718304
0.663762092590332,-0.002358049154281616,-0.0004676543176174164,0.005774140357971191,0.004872416146099567,0.00013667717576026917,0.001016626600176096,0.04578249181208101,0.23391537282179256,-0.007571116559761438
0.6753530502319336,-0.002715378999710083,0.0006155222654342651,0.006405532360076904,0.003015660447999835,0.0031806700862944126,-0.0006017765263095498,0.045797567194873,0.23395349989989012,-0.007582094575900315
0.6835591793060303,-0.0032859891653060913,-0.0006884410977363586,0.006115913391113281,-5.8593228459358215e-05,0.005403876770287752,-0.00414335448294878,0.04577531639181184,0.23402228671129494,-0.0076105133326680304
0.693392276763916,-0.0035263150930404663,-0.0019418634474277496,0.003124713897705078,0.001661808928474784,0.0017002187669277191,-0.004253076855093241,0.04574255604009376,0.2340965004951145,-0.007655515507643668
0.7036221027374268,-0.0023519694805145264,0.00037094950675964355,0.003908932209014893,0.007563822902739048,0.0005898140370845795,-0.00656390143558383,0.045781844327734564,0.23412893083862765,-0.007723851215406905
0.7133913040161133,-0.0021291524171829224,0.003476794809103012,0.004111230373382568,0.00872149970382452,0.00388760631904006,-0.008609475567936897,0.045836003490531664,0.23416719273746137,-0.007812922456175929
0.7236011028289795,-0.0024214237928390503,0.0019932501018047333,0.0004807114601135254,0.010089648887515068,0.0036464568693190813,-0.010535473935306072,0.04589365465153494,0.2342173443905381,-0.007935152200760241
0.7344951629638672,-0.002690225839614868,0.001136329025030136,0.0009298324584960938,0.009668336249887943,0.0025194070767611265,-0.010850525461137295,0.04595232294530826,0.23424336394315132,-0.008056173746693209
0.7437331676483154,-0.005484670400619507,0.0028125345706939697,0.0036353468894958496,0.006481648422777653,0.004508389160037041,-0.014177292585372925,0.046011164540259976,0.23427758090699594,-0.008197348413303681
0.7536473274230957,-0.0060325562953948975,0.00010784715414047241,0.0048035383224487305,0.0018320351373404264,0.001141887390986085,-0.01835605874657631,0.04600726018596607,0.23430745375609982,-0.00836485829721819
0.7636642456054688,-0.0042099058628082275,0.002221379429101944,0.007171332836151123,-0.0010690796189010143,0.00033814506605267525,-0.016658347100019455,0.04598454889948308,0.23430016783142998,-0.00853607208524832
0.7737081050872803,-0.003887966275215149,0.0019149966537952423,0.00779879093170166,-0.0006014285609126091,0.0018920996226370335,-0.016878589987754822,0.04595278618484794,0.23429826074804544,-0.008688583968692161
0.784797191619873,-0.00312022864818573,0.0009970329701900482,0.00453031063079834,0.013742074370384216,0.0021790552418679,-0.01311463862657547,0.045965626888104405,0.23430917127026787,-0.008847178350258155
0.7936441898345947,-0.003161907196044922,0.0031500346958637238,0.004094541072845459,0.024935074150562286,0.0003590509295463562,-0.011144964955747128,0.04608934784107354,0.23432202075204667,-0.009003133680757162
0.8036789894104004,-0.0017364174127578735,0.006535835564136505,0.0036646127700805664,0.01876676082611084,-0.0031433608382940292,-0.007841473445296288,0.04625571229626684,0.23430151190021462,-0.009152245630799563
0.8135700225830078,0.000606924295425415,0.006356451660394669,0.004508614540100098,0.007941275835037231,-0.0006924537010490894,-0.009288102388381958,0.046351085900276964,0.23426217947898972,-0.009263696968473609
0.8240423202514648,0.001290827989578247,0.0031538084149360657,0.006230711936950684,-0.007578411139547825,-0.0009489604271948338,-0.008054526522755623,0.046291690555949644,0.23421723854967397,-0.009348556203077014
0.8344211578369141,-0.0002272874116897583,0.0019253343343734741,0.011689066886901855,-0.009277507662773132,0.003250844543799758,-0.006025996059179306,0.04617698551603529,0.23419227079340532,-0.009391952385386168
0.8438291549682617,0.000457763671875,0.0027111098170280457,0.013514280319213867,-0.008095446974039078,-0.00341349421069026,-0.009713143110275269,0.04604709264597392,0.2341767820536592,-0.009440646768654769
0.8539161682128906,0.0016935616731643677,0.0073691606521606445,0.01143956184387207,-0.006230435334146023,-0.005526712629944086,-0.007713109254837036,0.04594429689494786,0.23412871845778674,-0.009503888043410786
0.8636503219604492,0.0025117099285125732,0.008386164903640747,0.013318121433258057,-0.007207565940916538,-0.0046854643151164055,-0.010175040923058987,0.0458625769018073,0.23407099697132833,-0.009571622572615665
0.873603105545044,0.002858400344848633,0.00794186070561409,0.012073934078216553,-0.020437084138393402,-0.004133657552301884,-0.010509002022445202,0.04567748990093471,0.2340105563431164,-0.00963750662639813
0.8844931125640869,0.0013125836849212646,0.010358519852161407,0.013332903385162354,-0.03574996069073677,0.00021022465080022812,-0.0070678782649338245,0.04531667570894352,0.23398005320515655,-0.009662345389373174
0.8936972618103027,-0.000584334135055542,0.007224779576063156,0.010729432106018066,-0.038674645125865936,0.008566425181925297,-0.006985053885728121,0.04485274595185582,0.23404284394688987,-0.009644028728106161
0.9037022590637207,-0.0008228719234466553,0.008456751704216003,0.00708848237991333,-0.04253937304019928,-0.0026074438355863094,-0.004672790877521038,0.04443635555167154,0.23409544747884373,-0.009625023423761602
0.9137630462646484,0.0038437098264694214,0.010430257767438889,0.008996188640594482,-0.05275392904877663,-0.008657347410917282,-7.963704410940409e-05,0.04398327405505684,0.234046250051935,-0.009547876998087599
0.9237222671508789,0.007606908679008484,0.010929450392723083,0.010805666446685791,-0.06604072451591492,-0.009891767054796219,-0.005455600563436747,0.0433985275470923,0.23398322092980564,-0.009431948226846358
0.9341142177581787,0.003157868981361389,0.0069467127323150635,0.012625277042388916,-0.09006349742412567,-0.008198795840144157,-0.008148322813212872,0.04255833246822675,0.2339207849232706,-0.009320537791161527
0.9438052177429199,0.00019626319408416748,-0.00029110535979270935,0.018137633800506592,-0.11526774615049362,-0.0014754231087863445,-0.017165465280413628,0.04148410548396717,0.23389575924591943,-0.009208208205201327
0.9537432193756104,0.0019572973251342773,-0.0027302801609039307,0.021911203861236572,-0.11838124692440033,0.00816628523170948,-0.022008957341313362,0.040249342978020373,0.23395577457976852,-0.009135356853547431
0.9636740684509277,0.002492740750312805,0.0012921355664730072,0.022191166877746582,-0.10972391813993454,0.010076437145471573,-0.013223721645772457,0.03903704970726946,0.2340685003997452,-0.00904637903576613
0.9740133285522461,-0.0018593072891235352,0.005716245621442795,0.020528793334960938,-0.09588799625635147,0.01189724076539278,-0.024560265243053436,0.037967202658604274,0.23417193915384182,-0.008989575785165977
0.9847841262817383,0.0014875829219818115,0.0031022578477859497,0.01569211483001709,-0.07554428279399872,0.014359865337610245,-0.02732420153915882,0.037046290632304385,0.2343153118279016,-0.00904983929367942
0.9939322471618652,0.004888415336608887,0.002924405038356781,0.007944822311401367,-0.08840015530586243,0.016228873282670975,-0.03186488896608353,0.03616594730763652,0.23449792308643924,-0.00913184599696246
1.0049810409545898,0.007198408246040344,0.006354659795761108,0.003482341766357422,-0.08963348716497421,0.006830443628132343,-0.030732139945030212,0.03520105904185265,0.23467198846024345,-0.009247859802818267
1.0138111114501953,0.01360301673412323,-0.00316634401679039,0.004509687423706055,-0.07573631405830383,-0.003270926885306835,-0.02782317064702511,0.03430072513808395,0.23471578475002022,-0.009342250245629439
1.0240662097930908,0.010278180241584778,-0.007869046181440353,0.004824340343475342,-0.1451229602098465,-0.011536357924342155,-0.035922374576330185,0.03324426970053934,0.23462715659152264,-0.009362322729466096
1.0355730056762695,0.010014772415161133,-0.008370429277420044,0.006401002407073975,-0.20582598447799683,-0.0026184963062405586,-0.03901803493499756,0.031582349885774255,0.23463408753262993,-0.009343930450054523
1.0439791679382324,0.012709081172943115,-0.037139892578125,0.0085182785987854,-0.25585615634918213,-0.03382572904229164,-0.047794852405786514,0.029285819475833547,0.23448280626073598,-0.00921063268464321
1.0538911819458008,0.0153513103723526,-0.03200754523277283,0.014295995235443115,-0.28067415952682495,-0.0362665168941021,-0.04694530367851257,0.026589350904830646,0.23416412582730145,-0.009058233388501332
1.0638532638549805,0.013265818357467651,-0.017593298107385635,0.01855754852294922,-0.2890186011791229,-0.058265335857868195,-0.0460355170071125,0.02377553600240409,0.2337184564376754,-0.008838141225009958
1.0739312171936035,0.016208484768867493,-0.020986860617995262,0.014175891876220703,-0.26745685935020447,-0.08029686659574509,-0.0434756875038147,0.02103741506231664,0.2330630200858374,-0.008619352753782656
1.0847892761230469,0.01562759280204773,-0.015141461044549942,0.009841978549957275,-0.22572092711925507,-0.09345661848783493,-0.04083351045846939,0.018688381527636924,0.23226881313012254,-0.008460021678989247
1.0939981937408447,0.010868489742279053,-0.011087307706475258,-0.0006298422813415527,-0.22820991277694702,-0.10127539187669754,-0.029960889369249344,0.016608178085898415,0.2313803442332961,-0.008290024048454706
1.1041522026062012,0.011890798807144165,-0.00012447219341993332,-0.0034884214401245117,-0.27340054512023926,-0.09652235358953476,-0.019173596054315567,0.01444818773141822,0.2304789033832088,-0.007956421973274374
1.1140191555023193,0.008459940552711487,-0.011664951220154762,-0.003199160099029541,-0.346188485622406,-0.07320558279752731,-0.034631650894880295,0.011666022338466375,0.22969999979438505,-0.007517952781329211
1.1241822242736816,4.571676254272461e-05,-0.03219715133309364,0.005851149559020996,-0.4032866954803467,-0.0740281492471695,-0.02899373695254326,0.008559194255670435,0.22908833051524843,-0.006964277826065656
1.1353061199188232,-0.00146561861038208,-0.03049613907933235,0.011579275131225586,-0.43948492407798767,-0.08927500993013382,-0.02737879380583763,0.004980586203131596,0.22842540015472884,-0.006284720823999847
1.1441640853881836,0.008462414145469666,-0.01250513456761837,0.015372037887573242,-0.4815245270729065,-0.09579925984144211,-0.023030493408441544,0.0008768448244413711,0.22762930312769603,-0.005492103964877218
1.154252052307129,0.012199237942695618,-0.011562488973140717,0.013602077960968018,-0.5425498485565186,-0.0958397388458252,-0.027194611728191376,-0.003780497399121861,0.22678677600149091,-0.004589822110895485
1.1641030311584473,0.006654828786849976,-0.01965952478349209,0.01146399974822998,-0.6136496067047119,-0.10051877796649933,-0.02990672178566456,-0.009482039599447205,0.22581462323955936,-0.003562733563868312
1.1746861934661865,0.005092903971672058,-0.023900466039776802,0.01219797134399414,-0.6352859139442444,-0.09239108115434647,-0.039702896028757095,-0.015691859487474816,0.2248518930861789,-0.0024981949399400334
1.1851320266723633,0.008915260434150696,-0.02017594501376152,0.013226032257080078,-0.629950761795044,-0.09247554838657379,-0.04266608506441116,-0.02199349460672418,0.22396319270348258,-0.0014876573411871257
1.1941981315612793,0.007136031985282898,-0.003906486555933952,0.0003008246421813965,-0.5877454876899719,-0.11334726959466934,-0.03567741811275482,-0.028034283439157787,0.22295825006064152,-0.0005121625482396808
1.2045283317565918,0.014673471450805664,0.01576012745499611,-0.009739816188812256,-0.6077598333358765,-0.14633731544017792,-0.05832488462328911,-0.03391370476967757,0.22166946870293955,0.0003651175080398894
1.2140460014343262,0.020101815462112427,0.02053380012512207,-0.017832934856414795,-0.7145485877990723,-0.138377383351326,-0.08635146170854568,-0.04049714836275979,0.22025731915885527,0.0010892653107303077
1.2241861820220947,0.011176645755767822,-0.005143590271472931,-0.012720882892608643,-0.8388106822967529,-0.1085100844502449,-0.09746717661619186,-0.04831422156769893,0.2190503169337762,0.0018871934641629935
1.2347371578216553,-0.0018337368965148926,-0.030359521508216858,-0.004486382007598877,-1.000565528869629,-0.11298073083162308,-0.13533785939216614,-0.05750605887914713,0.2180102639674371,0.0027648663524521807
1.2442331314086914,0.0003592967987060547,-0.01603437215089798,-0.011956751346588135,-1.1873952150344849,-0.1541980355978012,-0.15853969752788544,-0.06848655722297281,0.21675839505320113,0.0036504218318154226
1.2544171810150146,0.021245211362838745,-0.010244011878967285,-0.012728989124298096,-1.4572796821594238,-0.22116482257843018,-0.18868693709373474,-0.08176144656162257,0.21496005628112003,0.004827874247502193
1.2641010284423828,0.04013712704181671,-0.024768218398094177,-0.008504390716552734,-1.727082371711731,-0.26359182596206665,-0.24143372476100922,-0.09783066489100216,0.2126387030177789,0.006094623838564289
1.274036169052124,0.03628389537334442,-0.04174616187810898,-0.005841732025146484,-1.9199790954589844,-0.30637869238853455,-0.26761019229888916,-0.1162724741651653,0.20994848625920787,0.007451100715983021
1.284162998199463,0.031083106994628906,-0.04135769605636597,-0.007278263568878174,-2.013279914855957,-0.3770664930343628,-0.2855813205242157,-0.13618435495984904,0.20670688749559663,0.00882569500048496
1.2941770553588867,0.034026533365249634,-0.009878382086753845,-0.01028209924697876,-2.060539722442627,-0.45661669969558716,-0.29467976093292236,-0.15672893986283024,0.20272187215564513,0.010143855825705287
1.304051160812378,0.03964543342590332,0.021529093384742737,-0.014278531074523926,-2.1140506267547607,-0.5166044235229492,-0.30083179473876953,-0.1777854863467231,0.19803943393746823,0.01137512568519459
1.3140671253204346,0.03583633899688721,0.022830769419670105,-0.006548106670379639,-2.246863603591919,-0.5391209125518799,-0.31020453572273254,-0.19974729118184528,0.19295715196075508,0.012631596703159187
1.3244023323059082,0.016072794795036316,-0.013047724962234497,0.009976565837860107,-2.4579813480377197,-0.5377828478813171,-0.33990323543548584,-0.2234599045728588,0.18780687660862266,0.013933072333803384
1.334787130355835,-0.0013675540685653687,-0.05688446760177612,0.033579111099243164,-2.6809751987457275,-0.5147321224212646,-0.3660893142223358,-0.24940338500568116,0.18284579356632472,0.015215884488954879
1.3444311618804932,-0.013468056917190552,-0.09590458869934082,0.061253368854522705,-2.9100375175476074,-0.5122402906417847,-0.39614060521125793,-0.27761855127939805,0.17804912482836624,0.016549192918472077
1.3557991981506348,-0.018932804465293884,-0.10981875658035278,0.07637184858322144,-3.105476140975952,-0.5089758038520813,-0.4224717915058136,-0.30794591798048593,0.17334493293557718,0.0178198581976621
1.3641011714935303,-0.01787087321281433,-0.11741039156913757,0.09186398983001709,-3.346343755722046,-0.5291069746017456,-0.46006011962890625,-0.34047256991626706,0.16857311004086833,0.01904239493363627
1.3742332458496094,-0.01714131236076355,-0.1268652379512787,0.09886699914932251,-3.6113364696502686,-0.5196170210838318,-0.531582772731781,-0.3757085391808291,0.16353321033972174,0.01995325144648169
1.385331153869629,-0.020343288779258728,-0.15202593803405762,0.1078178882598877,-3.7875497341156006,-0.4677666127681732,-0.5488758683204651,-0.4131784928030547,0.1588992593344389,0.020611799624983013
1.3943171501159668,-0.019014552235603333,-0.1754830777645111,0.10014146566390991,-3.9173197746276855,-0.4856303036212921,-0.5985302329063416,-0.4521796263289924,0.15432227889236885,0.021010994174929576
1.4045741558074951,-0.011986032128334045,-0.15220403671264648,0.095741868019104,-3.9973535537719727,-0.48757848143577576,-0.6532424688339233,-0.49236906529963603,0.14933932224140023,0.020769724525093423
1.414182186126709,0.0007731020450592041,-0.13943660259246826,0.0897376537322998,-4.114264488220215,-0.5351651906967163,-0.6886646151542664,-0.5334074839716964,0.14382507257409888,0.019946336380634474
1.427943229675293,0.011787183582782745,-0.14197134971618652,0.06385624408721924,-4.3923468589782715,-0.5891983509063721,-0.7479463219642639,-0.5765185557416032,0.137456349437355,0.018553526621208124
1.4374332427978516,0.02265569567680359,-0.149463951587677,0.05212295055389404,-4.716073036193848,-0.550801694393158,-0.7318853139877319,-0.6227502184402748,0.1307649494934627,0.016966456222606816
1.4446921348571777,0.026170693337917328,-0.1701505184173584,0.020201504230499268,-4.959081649780273,-0.4898006021976471,-0.6361976861953735,-0.6717930916113155,0.1250517461030644,0.016187016811445146
1.4543280601501465,0.028062745928764343,-0.15796256065368652,-0.025911450386047363,-4.930695533752441,-0.43241187930107117,-0.5058484673500061,-0.7219663177654322,0.12079477655659912,0.01672386439943093
1.4648423194885254,0.038886986672878265,-0.09057247638702393,-0.05996263027191162,-4.645199775695801,-0.5074992179870605,-0.3708811104297638,-0.7701665792272213,0.11745407727480901,0.018578391627410505
1.474161148071289,0.04242619872093201,-0.009643852710723877,-0.09516912698745728,-4.295327663421631,-0.5964020490646362,-0.23876778781414032,-0.814928622889821,0.11413600867580441,0.021650878828590618
1.4867820739746094,0.06273137032985687,0.022501766681671143,-0.12498587369918823,-4.076054573059082,-0.516177773475647,-0.1667279601097107,-0.856647016314018,0.11128152761273465,0.02566005851769819
1.4942150115966797,0.06507407873868942,0.008952617645263672,-0.1702791452407837,-4.145284652709961,-0.2443782091140747,-0.06842348724603653,-0.8976509876315213,0.11150108363908783,0.0309637515708905
1.5042321681976318,0.011860363185405731,-0.03996628522872925,-0.13901960849761963,-4.0637593269348145,-0.08704500645399094,-0.022612588480114937,-0.9385552853466048,0.11561676209155562,0.03794741317003863
1.5142731666564941,-0.026088066399097443,-0.12722206115722656,-0.061764657497406006,-3.9139904975891113,-0.14638209342956543,-0.0380844883620739,-0.9783897449944262,0.12074681417443242,0.045673914746145794
1.5244503021240234,-0.025920964777469635,-0.06906098127365112,0.012314140796661377,-3.6948604583740234,-0.13151268661022186,-0.05043468624353409,-1.016169976680175,0.12584314537275035,0.05344233730679716
1.5376441478729248,-0.0037194862961769104,0.027245700359344482,0.008415639400482178,-3.6416335105895996,-0.2137332558631897,-0.07993851602077484,-1.0525808669563634,0.1310745193648789,0.06144733521043037
1.544889211654663,0.025271758437156677,-0.005514204502105713,-0.015014201402664185,-3.6977322101593018,-0.2811650037765503,-0.12651677429676056,-1.0891228922885428,0.13551793376194884,0.06935427632146794
1.554415225982666,0.04793689027428627,-0.06611889600753784,-0.0220678448677063,-3.6741878986358643,-0.33745062351226807,-0.14179933071136475,-1.1259974353195397,0.13998194277984685,0.07784828646369327
1.5643582344055176,0.04352989047765732,-0.06488949060440063,-0.060673922300338745,-3.5016231536865234,-0.35829517245292664,-0.17382794618606567,-1.1618756431067125,0.14426294490155595,0.08634668278748306
1.574289321899414,0.027314208447933197,-0.04774397611618042,-0.07119032740592957,-3.2066118717193604,-0.4317861497402191,-0.1821947991847992,-1.1954296016232842,0.1477898148478204,0.09445903947749708
1.584287166595459,0.02104627713561058,0.028863131999969482,-0.07397019863128662,-2.787015914916992,-0.46428218483924866,-0.13315683603286743,-1.2253501602483337,0.15093204356319956,0.10265280945635795
1.5947532653808594,0.03340901434421539,0.07805097103118896,-0.07093426585197449,-2.3931989669799805,-0.4976305365562439,-0.09473621845245361,-1.251172649957987,0.15433722695204444,0.11131371130373136
1.6047351360321045,0.030465304851531982,0.08037948608398438,-0.06567955017089844,-2.0493578910827637,-0.5291929244995117,-0.06280352920293808,-1.2731971001969065,0.15762003951262382,0.12019245567821835
1.6148121356964111,0.026340290904045105,0.08943748474121094,-0.06433692574501038,-1.7407673597335815,-0.5286744236946106,-0.03485711291432381,-1.2919519216442024,0.16083774881568566,0.129079514687405
1.6255130767822266,0.0214693620800972,0.09500879049301147,-0.05640292167663574,-1.5677191019058228,-0.5582045316696167,-0.04558704420924187,-1.308207280662312,0.16367357177825642,0.13761927595128035
1.635514259338379,0.01707400009036064,0.06695151329040527,-0.04234671592712402,-1.5729624032974243,-0.5550790429115295,-0.06514529138803482,-1.3237503246470694,0.16567697085491062,0.14552071999253674
1.6448440551757812,0.015521973371505737,0.020062565803527832,-0.029739022254943848,-1.654767394065857,-0.5080979466438293,-0.06438544392585754,-1.3398595295437983,0.16891357947742633,0.15431531793337055
1.6547181606292725,-0.0014132820069789886,0.009417712688446045,-0.011199027299880981,-1.6676338911056519,-0.4653228223323822,-0.09149082750082016,-1.3563464478840883,0.17320798757849162,0.1637365226767458
1.6643562316894531,-0.026266537606716156,-0.03031545877456665,0.009766831994056702,-1.6629493236541748,-0.4043104350566864,-0.10737700760364532,-1.3729665842239154,0.17798108920170821,0.1730485486287441
1.6755461692810059,-0.044464483857154846,-0.038051486015319824,0.029870882630348206,-1.5749585628509521,-0.4018227756023407,-0.08249669522047043,-1.3891466232144998,0.18433423138409713,0.18357408152863383
1.6843132972717285,-0.04022867977619171,-0.003262639045715332,0.03933507204055786,-1.4055278301239014,-0.39695674180984497,-0.07297515124082565,-1.4040317938765896,0.19186647744706575,0.19530919878779043
1.6944870948791504,-0.025342291221022606,0.008472025394439697,0.024526551365852356,-1.109586477279663,-0.35942402482032776,0.017705485224723816,-1.4164347733512876,0.20142092317411547,0.20879092750343614
1.705773115158081,-0.02096199430525303,0.04486459493637085,-0.0013189911842346191,-0.8370156288146973,-0.34767434000968933,0.03892848268151283,-1.4258484256795665,0.21329300561798567,0.224327249704667
1.7146642208099365,-0.027586832642555237,0.050813257694244385,0.0014983415603637695,-0.6944350600242615,-0.3653220236301422,0.05632292106747627,-1.4331233084998969,0.22457871608522986,0.23935889909393077
1.7247371673583984,-0.031983621418476105,0.008959352970123291,0.03030550479888916,-0.7065480351448059,-0.3190433979034424,0.08620694279670715,-1.439722227597532,0.2379630235651657,0.25634689772284436
1.7362890243530273,-0.030810140073299408,-0.022063076496124268,0.03154003620147705,-0.8383595943450928,-0.2823311984539032,0.08417947590351105,-1.4469347248756819,0.25638313423260267,0.27794584771416875
1.7447600364685059,-0.02683967351913452,-0.06161987781524658,0.012780800461769104,-1.0382435321807861,-0.27054527401924133,0.06290556490421295,-1.4558217200173345,0.28044801075102055,0.3049189656616234
1.7547430992126465,-0.02233685925602913,-0.07932251691818237,0.017787516117095947,-1.1695892810821533,-0.25373247265815735,0.06324378401041031,-1.466294403502813,0.31221654570931867,0.33953575318627705
1.7645621299743652,-0.02477731555700302,-0.06953972578048706,0.04840178042650223,-1.184132695198059,-0.2674013376235962,0.03892411291599274,-1.4772323823120455,0.3540550763069516,0.38415126510861114
1.7748491764068604,-0.022111814469099045,-0.04190492630004883,0.06574255973100662,-1.1550341844558716,-0.2743881344795227,-0.0009021277073770761,-1.4881435930365638,0.40184276597528606,0.4348800678257337
1.785323143005371,-0.028082232922315598,-0.029078423976898193,0.08580338954925537,-1.0842727422714233,-0.24454426765441895,0.02312922663986683,-1.498263442594297,0.4606904064340568,0.49651620281814957
1.794722080230713,-0.026333343237638474,0.02294933795928955,0.054417967796325684,-1.0017917156219482,-0.24948148429393768,0.017399435862898827,-1.5073146707708471,0.5341874974760068,0.5726458915870039
1.8046512603759766,-0.01631571352481842,0.04259288311004639,0.019314169883728027,-1.0316671133041382,-0.24507266283035278,-0.003970302641391754,-1.5157218412268454,0.625857421037711,0.666976970010717
1.8148040771484375,-0.010177038609981537,0.007449030876159668,0.02197265625,-1.1526631116867065,-0.21344125270843506,-0.018241915851831436,-1.5241841363314457,0.7592204271593883,0.8028105055094727
1.8249073028564453,-0.017263270914554596,-0.008623838424682617,0.02843874879181385,-1.328341007232666,-0.1880841851234436,-0.06083432957530022,-1.5325874733293832,0.974533816620033,1.0203364797808254
1.8353371620178223,-0.026697218418121338,-0.050152480602264404,0.034938931465148926,-1.4219740629196167,-0.1767260730266571,-0.0775051862001419,-1.5389581777991874,1.3273985969878654,1.3752144929335497
1.8450193405151367,-0.022684158757328987,-0.030350327491760254,0.0393451452255249,-1.3267232179641724,-0.17854970693588257,-0.07459360361099243,-1.540058322725955,1.771964788452164,1.821773050282711
1.8551571369171143,-0.013410041108727455,0.01770550012588501,0.026854872703552246,-1.1204222440719604,-0.1953100562095642,-0.08183607459068298,-1.5361417651643106,2.1291640030108563,2.1810116215670647
1.8654160499572754,-0.012669868767261505,0.03627544641494751,0.015982627868652344,-0.9581376314163208,-0.2098952978849411,-0.12060306966304779,-1.5304445943768121,2.360533618338096,2.4145965695687686
1.8777532577514648,-0.021192779764533043,0.025686681270599365,0.03208160027861595,-0.9142324924468994,-0.23257078230381012,-0.12904982268810272,-1.5241099443026227,2.518424613701268,2.574806926896029
1.8869342803955078,-0.02542237564921379,0.011088430881500244,0.044136885553598404,-0.843070387840271,-0.26462069153785706,-0.12169043719768524,-1.5173199321728614,2.6322605534183503,2.6912748789050416
1.8949871063232422,-0.015985509380698204,0.005459010601043701,0.05814433842897415,-0.747795045375824,-0.2952294647693634,-0.14956361055374146,-1.5108406837964916,2.71339049960664,2.7753710224013926
1.9049701690673828,-0.011283539235591888,-0.0028511881828308105,0.03841089829802513,-0.7238271236419678,-0.28179308772087097,-0.1676776260137558,-1.5046894282937353,2.779016227482337,2.8440359248347624
1.9150722026824951,-0.01923341304063797,-0.011994421482086182,0.020020365715026855,-0.6801531314849854,-0.26904985308647156,-0.16460834443569183,-1.4985549059466572,2.8323760915568275,2.900281264133459
1.9250593185424805,-0.020538466051220894,0.005009949207305908,0.023779146373271942,-0.5773330926895142,-0.2720508575439453,-0.18115802109241486,-1.492977374381429,2.8756445143762277,2.946384432671106
1.9357011318206787,-0.021386878564953804,0.026819288730621338,0.04406844824552536,-0.47871866822242737,-0.29440754652023315,-0.19495266675949097,-1.4883449872672607,2.9113742590864766,2.9850723981613245
1.9451313018798828,-0.01757132075726986,0.02623462677001953,0.05340491235256195,-0.4155665338039398,-0.32023459672927856,-0.22031565010547638,-1.4844201826870964,2.943511911400954,3.0204215902431177
1.9550080299377441,-0.0060073211789131165,0.015179216861724854,0.050136566162109375,-0.3921682834625244,-0.3178374767303467,-0.22498470544815063,-1.4808736035873178,2.973484108904154,3.0537223309966097
1.965090274810791,0.0010459832847118378,0.02288907766342163,0.03300821781158447,-0.4068293273448944,-0.2927852272987366,-0.2307148277759552,-1.4773288881737463,3.0016047834273554,3.0850445893888843
1.9750580787658691,-0.00022192858159542084,0.039165198802948,0.01390683650970459,-0.48902541399002075,-0.26602044701576233,-0.22170774638652802,-1.473221337830496,3.0283346659396324,3.114679958401918
1.9852070808410645,-0.003039776347577572,0.019325971603393555,-0.01688576489686966,-0.5751681923866272,-0.22634261846542358,-0.2196924239397049,-1.468060088582988,3.0529153795955017,-3.1412733706475167
1.9950251579284668,0.0298269372433424,0.020010411739349365,-0.09592582285404205,-0.6086366772651672,-0.15078900754451752,-0.2033986747264862,-1.4622914724397724,3.0757045673183474,-3.116464528110874
2.0051281452178955,0.05782812088727951,0.07560789585113525,-0.18201065063476562,-0.6053551435470581,-0.11105810850858688,-0.1751398742198944,-1.456307834067776,3.093999351105073,-3.0967535850772583
2.0150771141052246,0.04425685852766037,0.09682297706604004,-0.11327314376831055,-0.593700110912323,-0.08962658792734146,-0.20758596062660217,-1.450401922464195,3.111022050768203,-3.0786028221657027
2.0253591537475586,0.009179581888020039,0.053292691707611084,-0.0008421987295150757,-0.5734836459159851,-0.07467848807573318,-0.21650701761245728,-1.4445484445497598,3.128696556487808,-3.0599689345312293
2.0355751514434814,-0.003931666258722544,0.027716875076293945,0.027483582496643066,-0.4329068064689636,-0.06350412964820862,-0.1744365245103836,-1.4394550343896848,-3.1398067490004564,-3.044482876557786
2.0453901290893555,0.00799277052283287,0.04964900016784668,0.00904226303100586,-0.24060377478599548,-0.060613974928855896,-0.15507625043392181,-1.436079302696896,-3.1284354250286537,-3.032371901246938
2.0555920600891113,0.00902158860117197,0.05857580900192261,-0.009041547775268555,-0.04780582711100578,-0.05095842108130455,-0.10523466020822525,-1.4346072790829685,-3.1193119406164063,-3.0226085014882447
2.065096139907837,0.0031782835721969604,0.04719090461730957,-0.005537167191505432,0.08222908526659012,-0.04044199734926224,-0.057044439017772675,-1.4348452254864492,-3.1140864301697175,-3.0168604247980664
2.075115203857422,0.011131039820611477,0.03295779228210449,-0.016657128930091858,0.11122158914804459,-0.027683591470122337,-0.03446163237094879,-1.435837413722926,-3.11091375906971,-3.0133076264143965
2.085482120513916,0.017232883721590042,-0.004483640193939209,-0.027102366089820862,0.0803377628326416,0.00703768152743578,-0.03154744207859039,-1.4368342452722629,-3.1082987645813245,-3.0105532437936477
2.09521222114563,0.006711346562951803,-0.04205143451690674,-0.01362524926662445,0.0396324098110199,0.026791412383317947,-0.028438199311494827,-1.4374136440223784,-3.1058063841416668,-3.008229057634762
2.105072021484375,-0.0014607599005103111,-0.04534882307052612,0.0014209598302841187,-0.014012109488248825,0.02380973845720291,-0.03498946875333786,-1.4375385061365342,-3.1030797668525323,-3.005727476124697
2.1151821613311768,0.0055535039864480495,-0.051109254360198975,0.013496384024620056,-0.045533016324043274,0.018041064962744713,-0.0333540216088295,-1.437253363337818,-3.1005595655396267,-3.003406892429893
2.1251862049102783,0.009503836743533611,-0.05493438243865967,0.016640901565551758,-0.09046560525894165,0.014971770346164703,-0.03274522349238396,-1.4365318000261353,-3.0979395048679135,-3.0009440339525533
2.1355552673339844,0.008164474740624428,-0.04683637619018555,0.019090041518211365,-0.10688479244709015,-0.0032559684477746487,-0.025888649746775627,-1.4355414108195328,-3.0961929661512704,-2.9992515322148674
2.145381212234497,0.011335710063576698,-0.034681081771850586,0.015309557318687439,-0.09756158292293549,-0.0011908202432096004,-0.012053102254867554,-1.434459083422466,-3.0949972885566908,-2.9980040095319187
2.155649185180664,0.01617576740682125,-0.02495718002319336,-0.0031463950872421265,-0.01604967564344406,0.00019801827147603035,0.022937104105949402,-1.4338705203011881,-3.095734102570576,-2.9987538502967426
2.1652612686157227,0.015761973336338997,-0.007359147071838379,-0.02057109773159027,0.09982853382825851,-0.002256306353956461,0.05024989694356918,-1.4343960747912445,-3.098267674809099,-3.0012835260693254
2.1752610206604004,0.017527181655168533,0.00837719440460205,-0.030529633164405823,0.24320727586746216,-0.003304793033748865,0.08590643107891083,-1.4361683285929012,-3.1030835169879487,-3.006125632180453
2.1855762004852295,0.021203085780143738,0.01777881383895874,-0.0355084091424942,0.3602994382381439,-0.012750137597322464,0.08554759621620178,-1.4392569677814173,-3.108714591926947,-3.0117046456840537
2.1952731609344482,0.01890438050031662,0.009209930896759033,-0.02950964868068695,0.429817795753479,0.020839514210820198,0.10320807993412018,-1.443102923210279,-3.115119963784421,-3.018208470424484
2.205296039581299,0.009960804134607315,0.002760589122772217,-0.023771867156028748,0.4437008798122406,0.0014825055841356516,0.11495976150035858,-1.4473259034650376,-3.1232815825288,-3.0265798993067947
2.215362071990967,0.010160098783671856,0.006985962390899658,-0.0025420188903808594,0.27109581232070923,-0.021950649097561836,0.09154444932937622,-1.4507276056187648,-3.131930454950291,-3.0351571410026943
2.225353240966797,0.013134436681866646,-0.030949413776397705,0.03646981716156006,-0.02355128712952137,-0.009844450280070305,0.0693424716591835,-1.4515111318262606,-3.139057397740365,-3.0421564787047584
2.235664129257202,0.004472142085433006,-0.07921630144119263,0.05857300013303757,-0.20709741115570068,-0.0037873578257858753,0.03652647137641907,-1.4501362928219723,3.13932101011111,-3.0469527271217935
2.2455410957336426,-0.0018973398255184293,-0.07890808582305908,0.051316261291503906,-0.2276279777288437,-0.009855547919869423,0.029301369562745094,-1.4478512840338575,3.13669655892859,-3.0495191980522223
2.2557921409606934,-0.0026695099659264088,-0.03128296136856079,0.038504138588905334,-0.1388792097568512,-0.022868284955620766,0.03274403512477875,-1.446102993178381,3.1339914377568574,-3.052085584130998
2.265230178833008,0.0022782934829592705,0.012597918510437012,0.01972377300262451,0.005356461741030216,-0.019083933904767036,0.050567399710416794,-1.4456394173762355,3.1302615913566645,-3.0556195038393965
2.275386333465576,0.0038530947640538216,0.03734248876571655,0.0009258836507797241,0.12548260390758514,-0.016916120424866676,0.05441780015826225,-1.4465385965123592,3.1256494953687723,-3.060082966298737
2.285654067993164,0.0003481288440525532,0.0437474250793457,-0.002225041389465332,0.1583755910396576,-0.007928084582090378,0.05984095484018326,-1.4481814902544217,3.1204832672148535,-3.0651556904106987
2.2953641414642334,-0.003556022420525551,0.02040112018585205,0.011463753879070282,0.13937526941299438,0.009489787742495537,0.053074128925800323,-1.4496904147597385,3.1154379662599023,-3.070253997770823
2.305375099182129,-0.007691754959523678,-0.007154405117034912,0.02962338924407959,0.12881341576576233,0.01306849904358387,0.06166724115610123,-1.4506895521588135,3.1105024332498794,-3.0753345324415915
2.315603256225586,-0.009066564962267876,-0.002741873264312744,0.03681182861328125,0.15334965288639069,0.010485498234629631,0.050832174718379974,-1.4515615763932168,3.1051294179551934,-3.080865140587915
2.3255600929260254,-0.004483821336179972,0.00675356388092041,0.024206265807151794,0.08743999898433685,0.019382454454898834,0.03912070766091347,-1.4522948725635174,3.101331012557808,-3.0848328287762805
2.336498260498047,-0.008404132910072803,-0.006644546985626221,0.02297508716583252,-0.07316272705793381,0.028464898467063904,0.007826702669262886,-1.452045684525459,3.099492113403287,-3.086899124587107
2.3459441661834717,-0.010478373616933823,-0.0424005389213562,0.025940433144569397,-0.17187942564487457,0.03898083418607712,-0.011588540859520435,-1.4505495070380454,3.1005311718902226,-3.0862247403656164
2.357156276702881,-0.012068183161318302,-0.05519777536392212,0.02405083179473877,-0.120433010160923,0.020688911899924278,-0.011834350414574146,-1.448991602267941,3.1024127084821225,-3.084640331831595
2.3656482696533203,-0.0059182001277804375,-0.017223119735717773,0.012309923768043518,-0.006434650160372257,0.005757766310125589,0.0072980113327503204,-1.4484028482979097,3.1029811585610694,-3.0841917437847317
2.3756301403045654,0.00047320593148469925,0.014304816722869873,-0.004581674933433533,0.08068107813596725,-0.005278372671455145,0.018041735514998436,-1.4487509258198306,3.10185133079165,-3.085320860487009
2.385815143585205,0.0028145690448582172,0.015742897987365723,-0.0143510103225708,0.11921911686658859,0.0030433842912316322,0.015849048271775246,-1.4495998519061073,3.100114395147172,-3.0870430818309016
2.3956103324890137,-0.001168138813227415,-0.0013827681541442871,-0.007092833518981934,0.09563442319631577,0.008451199159026146,0.016629088670015335,-1.4504032074717714,3.0988200248176585,-3.088425207566337
2.4056711196899414,-0.006251785904169083,-0.014807522296905518,0.010830879211425781,0.026071926578879356,0.004109358415007591,0.010100295767188072,-1.4507604335146413,3.097524860127827,-3.089786724453206
2.415802001953125,0.00035834265872836113,-0.01654881238937378,0.018577471375465393,-0.060758307576179504,0.020097646862268448,-0.007545010186731815,-1.4502675521633035,3.098111417695907,-3.089311792188043
2.427426338195801,-0.0032101082615554333,-0.03233647346496582,0.016366124153137207,-0.05861900746822357,0.027270738035440445,-0.003748300950974226,-1.449213077499559,3.099385426784574,-3.088280064799831
2.437045097351074,-0.007507691625505686,-0.017963945865631104,0.011062398552894592,0.0034536835737526417,0.016426878049969673,-0.005185076501220465,-1.448471821643021,3.1005605874384665,-3.087330508849239
2.445681095123291,-0.0017070090398192406,0.007905364036560059,0.004606470465660095,0.0406646691262722,0.015573246404528618,0.013417795300483704,-1.4484232647490283,3.1007205143524095,-3.087337158663048
2.45565128326416,0.003284723963588476,0.013224899768829346,-0.00018036365509033203,0.06972002238035202,0.012314336374402046,0.017985116690397263,-1.4490987364594412,3.099254524380385,-3.088958520124308
2.4655601978302,-0.0006642988882958889,0.004651963710784912,0.006022319197654724,0.1121465265750885,0.002943426603451371,0.02431262657046318,-1.4503400789538812,3.0971922248890027,-3.0911176565119725
2.475675106048584,-0.0013771187514066696,-0.0008447170257568359,0.012031540274620056,0.11593673378229141,0.0002507045865058899,0.026223978027701378,-1.451645979436414,3.094559564962566,-3.093776321063411
2.4858591556549072,0.0022315778769552708,8.940696716308594e-05,0.0036940574645996094,0.05857672169804573,0.01493825949728489,0.015487550757825375,-1.4522626178730649,3.092960042576427,-3.095463129130963
2.495610237121582,-0.0019254614599049091,-0.014362215995788574,-0.0004967451095581055,0.03786132484674454,0.020198535174131393,0.011559654958546162,-1.4522756263793235,3.0917352666003737,-3.0968871401757854
2.505667209625244,-0.002886806149035692,-0.019733846187591553,0.0003863722085952759,0.028523433953523636,0.02243172936141491,-0.001694577862508595,-1.4521520719063472,3.091787200312222,-3.0970458266095013
2.5156431198120117,0.002727298531681299,-0.011796653270721436,-0.005870908498764038,0.05717345327138901,0.01467660441994667,0.014392778277397156,-1.452259715180187,3.091862160507974,-3.0971778823281935
2.52567720413208,0.0061495741829276085,0.00890260934829712,-0.002500295639038086,0.08166774362325668,0.008382577449083328,0.009231946431100368,-1.4528340241112214,3.090618350157255,-3.098547725669853
2.5360701084136963,0.009909506887197495,0.012263715267181396,-0.0015124082565307617,0.07334136962890625,0.007629170082509518,0.006368515081703663,-1.453578658814835,3.0898267431786683,-3.099433065979075
2.545835018157959,0.004644975997507572,0.002267777919769287,0.0012704282999038696,0.06770458072423935,-0.011589664965867996,0.01828451082110405,-1.4541152313264807,3.0884065613895544,-3.100854389452284
2.555784225463867,0.006354240234941244,0.0036960244178771973,0.009683981537818909,0.013886617496609688,-0.01757911592721939,0.0021012790966778994,-1.4542986518556245,3.0872737413074893,-3.1018272427965035
2.5656790733337402,0.007611000444740057,-0.011403560638427734,0.008035913109779358,-0.02395056001842022,0.0021617889869958162,0.004626328591257334,-1.4541103530340465,3.086752294342949,-3.102260377495777
2.5757381916046143,-0.00047822901979088783,-0.025306344032287598,-0.0029358863830566406,-0.01020012702792883,-0.0003519686870276928,-0.007256696466356516,-1.4538649664874428,3.087110940330741,-3.101941516668098
2.5861992835998535,-0.004423388745635748,-0.02083677053451538,-0.009204268455505371,-0.002588812494650483,-0.012827812694013119,0.014729296788573265,-1.4537451192460398,3.08709471321572,-3.101885485093767
2.595795154571533,0.00622389605268836,-0.006333529949188232,-0.0017025470733642578,-0.022731631994247437,-0.01604491099715233,0.016069665551185608,-1.4536819808338555,3.085264618514765,-3.1035746350654607
2.6058452129364014,0.012603085488080978,-0.007718265056610107,-0.0016308873891830444,-0.0691719651222229,-0.000505189411342144,-0.005044248886406422,-1.4532590807368377,3.084823558333354,-3.103920718359089
2.6158621311187744,0.00037721358239650726,-0.02753293514251709,0.0029932260513305664,-0.07757797092199326,-0.0019006859511137009,-0.007278907112777233,-1.4525541610172963,3.0852597926684977,-3.103474340330918
2.625828266143799,-0.0019952356815338135,-0.018693089485168457,0.011846177279949188,-0.05762025713920593,-0.0025226674042642117,-0.0018257120391353965,-1.4518664417750162,3.085650958289597,-3.1030587373998233
2.635963201522827,0.004889032803475857,0.0017156004905700684,0.010262124240398407,-0.03863058611750603,-0.006771740969270468,-0.01605178602039814,-1.4512887208170677,3.0863261549465753,-3.1023260865295392
2.645921230316162,0.008333059027791023,0.0016732215881347656,0.007087573409080505,-0.017834611237049103,-0.009488475508987904,-0.004647064954042435,-1.4508764160571157,3.086989055546723,-3.1015871053358173
2.6558942794799805,0.008471570909023285,0.009806394577026367,0.012083292007446289,-0.03751590475440025,-0.010822187177836895,-0.013234959915280342,-1.450747732226765,3.087440137126815,-3.100999084227782
2.666867256164551,0.005218630190938711,0.006345570087432861,0.013457417488098145,-0.1207764521241188,0.015762418508529663,-0.029966430738568306,-1.4500880740513862,3.0899958435272024,-3.0984613569332935
2.6760151386260986,-0.005773321725428104,-0.023690998554229736,0.015256501734256744,-0.12485694885253906,0.016332069411873817,-0.024601491168141365,-1.4488863498051932,3.0927170032261495,-3.095897594711737
2.686155319213867,-0.0036609433591365814,-0.020127415657043457,0.0201411172747612,-0.0854741707444191,0.006784326396882534,-0.02478700876235962,-1.447944273477513,3.0943916457028426,-3.094306109750524
2.6959590911865234,0.003852535504847765,-0.003389298915863037,0.013413429260253906,-0.0821596011519432,0.023440001532435417,-0.022547822445631027,-1.4470827819547687,3.096749717066906,-3.092069504093436
2.705871105194092,-0.000801419373601675,-0.007957935333251953,0.0014420896768569946,-0.04956625774502754,0.03371088206768036,-0.022011619061231613,-1.4462713239153746,3.099007982259325,-3.090094168899344
2.715916156768799,-0.005379192531108856,-0.00825124979019165,-0.0005234479904174805,-0.004185194615274668,0.03225013613700867,-0.021618273109197617,-1.445929294184006,3.1009620831791387,-3.0884467164404867
2.725980281829834,-0.0011601652950048447,-0.003914296627044678,0.00052642822265625,0.05717596784234047,0.03233136609196663,-0.009234732016921043,-1.4461466239228913,3.101935394877474,-3.0877909274770117
2.7361831665039062,0.002871755976229906,0.008251309394836426,0.00847315788269043,0.12372223287820816,0.022019606083631516,0.005982569884508848,-1.4469733433240581,3.1017010194344836,-3.0883079057263707
2.746054172515869,0.004329985938966274,0.014589011669158936,0.013241782784461975,0.16818074882030487,0.01669931970536709,0.01539673749357462,-1.448298127054594,3.1002177443736,-3.0899854091696257
2.7560172080993652,0.004948386922478676,0.00914609432220459,0.01453862339258194,0.17295393347740173,0.020968366414308548,0.013039041310548782,-1.449766032433148,3.098898850666061,-3.0914959200805487
2.765970230102539,0.0020027337595820427,-0.007499217987060547,0.013241268694400787,0.1444440484046936,0.02930659055709839,0.02276005782186985,-1.4510195338431542,3.0974254251294138,-3.0932468480088673
2.7763590812683105,-0.0004966780543327332,-0.014568686485290527,0.013235911726951599,0.08508005738258362,0.027041304856538773,0.014245932921767235,-1.4519560857676088,3.095300596763294,-3.095667471378819
2.78611421585083,0.00427097175270319,-0.018538594245910645,0.013785839080810547,-0.023360971361398697,0.03750886023044586,0.017601195722818375,-1.452108199781637,3.0946553663476806,-3.096656067621473
2.795964241027832,0.0054639121517539024,-0.03740948438644409,0.018691420555114746,-0.055059779435396194,0.03839622810482979,0.013443202711641788,-1.4515583675037012,3.0939952930442054,-3.09769606454565
2.8060860633850098,0.009627378545701504,-0.031854867935180664,0.009749636054039001,0.004165979102253914,0.04067611321806908,0.018470345064997673,-1.4511697775517365,3.093490485622944,-3.0986050919025616
2.8160791397094727,0.007529838941991329,-0.0019195079803466797,-0.0020012706518173218,0.08176037669181824,0.039166368544101715,0.03991598263382912,-1.4514478094654772,3.0910106382345415,-3.1015054929512553
2.8259811401367188,0.009804239496588707,0.02380073070526123,-0.006132014095783234,0.09128028899431229,0.041942935436964035,0.033405404537916183,-1.4521400611855801,3.0880123914985944,-3.1049297858206377
2.836182117462158,0.013472156599164009,0.008369803428649902,-0.0023632124066352844,0.09837255626916885,0.04782399535179138,0.0531759113073349,-1.4528229073980932,3.0842470973449823,-3.109181943059441
2.845959186553955,0.012103309854865074,-0.008298516273498535,0.006051898002624512,0.14976154267787933,0.05394970625638962,0.05470733717083931,-1.4537830687080335,3.0796265225403516,-3.1143419715740523
2.856281280517578,0.00794881023466587,-0.009046673774719238,0.004468679428100586,0.2591463625431061,0.07054253667593002,0.07391005754470825,-1.4554988348311795,3.073886598525476,-3.120740454129662
2.866079330444336,0.006094884127378464,0.0008867979049682617,-0.006142973899841309,0.4377002418041229,0.08534780144691467,0.10149529576301575,-1.458590867435326,3.0649896151524993,-3.130490664420393
2.8759450912475586,0.006814589723944664,0.02430945634841919,-0.004954084753990173,0.7044280767440796,0.10238217562437057,0.12274465709924698,-1.4637483587219118,3.051297481552401,3.1379841149892367
2.885974168777466,0.009569753892719746,0.052979886531829834,-0.0009708255529403687,1.0059300661087036,0.15142473578453064,0.1397193819284439,-1.4717674152291755,3.032129142096918,3.117469806809113
2.895954132080078,0.008219385519623756,0.06382507085800171,0.004118442535400391,1.4304741621017456,0.15546715259552002,0.17944203317165375,-1.483624653667166,2.9994403137540564,3.0829990585326605
2.9060230255126953,0.00827952940016985,0.08722174167633057,0.03466139733791351,1.5316559076309204,0.16797398030757904,0.2318790853023529,-1.4980823180345817,2.9451209213072462,3.026920475258581
2.9161181449890137,0.005679454654455185,0.09591138362884521,0.0800313949584961,1.4164925813674927,0.20534451305866241,0.2770143449306488,-1.511894336415348,2.8535921107733864,2.9333019456510407
2.9259300231933594,0.006554983556270599,0.025086283683776855,0.08019280433654785,1.271847128868103,0.23498699069023132,0.24661435186862946,-1.5235731542207613,2.723012201050913,2.8003490618641056
2.9359912872314453,-0.008786460384726524,-0.04904383420944214,0.06396770477294922,1.3024673461914062,0.25933390855789185,0.2896963059902191,-1.5333811204146066,2.5213526968661664,2.5960120624454284
2.9459941387176514,-0.012558596208691597,-0.02743244171142578,0.04545176029205322,1.5269511938095093,0.24515970051288605,0.3578680157661438,-1.5409460105757242,2.1535106674462985,2.2254273557274913
2.9561591148376465,-0.006846543401479721,0.02457141876220703,0.03442150354385376,1.867613434791565,0.23850420117378235,0.43663713335990906,-1.541920680771966,1.5550169317171778,1.624273271561452
2.9665403366088867,-0.0021014325320720673,0.050751686096191406,0.020624401047825813,2.3116161823272705,0.2463311403989792,0.5336989760398865,-1.530932490966703,1.0092943944776005,1.0758231998694365
2.976105213165283,-0.00241905078291893,0.06433987617492676,0.013040482997894287,2.8476169109344482,0.26290664076805115,0.6256685853004456,-1.509374752731947,0.7016175396244742,0.7652238660700517
2.9867610931396484,-0.008798886090517044,0.08768677711486816,0.0016538500785827637,3.3684632778167725,0.2667173147201538,0.6965942978858948,-1.4800522539243235,0.5375050560628313,0.5979493583441807
2.996518135070801,-0.011407125741243362,0.09889853000640869,-0.0016474127769470215,3.8770077228546143,0.2830592691898346,0.7741373181343079,-1.4445684143981188,0.4427302448840103,0.5001128991843783
3.0065603256225586,-0.0014495514333248138,0.109302818775177,0.007306799292564392,4.440824031829834,0.2971841096878052,0.7575134038925171,-1.403107540880894,0.3812584249968605,0.434977990019248
3.0167171955108643,0.005638793110847473,0.04647397994995117,-0.007495790719985962,4.438471794128418,0.3652377426624298,0.5926410555839539,-1.3588327410838983,0.33550401585885004,0.38508494731109166
3.0265402793884277,-0.03964652121067047,-0.033600807189941406,0.08729639649391174,4.112274646759033,0.511093258857727,0.5960995554924011,-1.3162374766396807,0.30630152976281755,0.35056494785121073
3.036497116088867,-0.058656372129917145,-0.02882826328277588,0.15575963258743286,3.754647731781006,0.5650252103805542,0.5853105187416077,-1.2768636635289357,0.2909751024648947,0.3289814411790544
3.046508312225342,-0.04053864628076553,-0.045195817947387695,0.17539668083190918,3.5088353157043457,0.5915629863739014,0.5167312026023865,-1.2405196315312323,0.28138010433630606,0.31284912759997624
3.0565762519836426,-0.03160282224416733,-0.06391441822052002,0.15605860948562622,3.443232297897339,0.6489977836608887,0.4925156235694885,-1.2057945680396773,0.27463555522599703,0.2990747322285608
3.0668439865112305,-0.030312329530715942,-0.030821144580841064,0.12187868356704712,3.6478207111358643,0.6918095946311951,0.5229006409645081,-1.1704532063661786,0.2698293097146615,0.28667089907068805
3.0765390396118164,-0.030015401542186737,0.04124933481216431,0.11060154438018799,4.136600971221924,0.7382903099060059,0.598969578742981,-1.1314371083082528,0.2660787052742938,0.27469498900690803
3.086606025695801,-0.030404768884181976,0.09642678499221802,0.10366863012313843,4.595841407775879,0.7205259799957275,0.6615864634513855,-1.0875507498381787,0.26268831952098637,0.26272583555362955
3.0967931747436523,-0.02976064383983612,0.14617973566055298,0.10939082503318787,4.884520053863525,0.6800568699836731,0.6974762678146362,-1.0397720256943845,0.25941619687313905,0.250976290608871
3.106386184692383,-0.016617581248283386,0.12695538997650146,0.1171884536743164,4.998847961425781,0.6761705875396729,0.7194420099258423,-0.9900291745371297,0.2569256133032502,0.24003502545196154
3.1165032386779785,-0.009164884686470032,0.03812980651855469,0.13513332605361938,4.940950870513916,0.6650505661964417,0.7201395034790039,-0.9399998240640467,0.25544803245928716,0.23008912791520963
3.1265792846679688,-0.02097812294960022,-0.014061212539672852,0.1569797396659851,4.737583160400391,0.6385093331336975,0.6798063516616821,-0.8910999443815303,0.2549261477664629,0.221175219135072
3.1365442276000977,-0.031375765800476074,-0.040174663066864014,0.1505582332611084,4.144919395446777,0.6625166535377502,0.5331833362579346,-0.8463539330575545,0.2550417234505723,0.2128779475752163
3.1464242935180664,-0.040203362703323364,-0.10536587238311768,0.17033731937408447,3.298888683319092,0.7182070016860962,0.41603225469589233,-0.808968618406183,0.25665033719627944,0.20565691532589306
3.1564571857452393,-0.047166675329208374,-0.18251818418502808,0.18373340368270874,2.4336235523223877,0.7789731621742249,0.32259365916252136,-0.7803733031055385,0.2603122118653113,0.20031525962226243
3.168271064758301,-0.04230488836765289,-0.18949168920516968,0.18026822805404663,1.7084451913833618,0.8227656483650208,0.2672605514526367,-0.7596710216785022,0.26587609216623065,0.1967733874310816
3.176480293273926,-0.0363805890083313,-0.1639775037765503,0.16956883668899536,1.1808630228042603,0.8212452530860901,0.2333957999944687,-0.7451839727005363,0.27283841726952435,0.19485617720415327
3.18672513961792,-0.026532381772994995,-0.11093294620513916,0.1565624475479126,0.8355230689048767,0.772962212562561,0.19088877737522125,-0.7349896887397229,0.2802403220116954,0.19395739454283406
3.1965491771698,-0.011699378490447998,-0.06638830900192261,0.13526052236557007,0.6022930145263672,0.6927786469459534,0.13247419893741608,-0.7276650061270489,0.28718424642757623,0.19335781500473248
3.2065629959106445,0.004448607563972473,-0.04253751039505005,0.09871023893356323,0.49735385179519653,0.6347290873527527,0.1180509403347969,-0.7221391920596371,0.29348122156521483,0.19287073667947954
3.2184271812438965,0.01576445996761322,-0.016001760959625244,0.051832735538482666,0.5352729558944702,0.5915976166725159,0.12338312715291977,-0.7169040939561624,0.2993436810469637,0.19244824524563597
3.2265591621398926,0.013751983642578125,0.016041338443756104,0.006574690341949463,0.6831444501876831,0.5586147308349609,0.13677585124969482,-0.7107674862961237,0.3045996542319807,0.19168951506995136
3.236612319946289,0.004073441028594971,0.037485718727111816,-0.018396377563476562,0.9257187843322754,0.5389962792396545,0.19501598179340363,-0.7026540095084036,0.3093557705625651,0.19056647363744858
3.2465481758117676,-0.0020347535610198975,0.05262887477874756,-0.0368272066116333,1.2546442747116089,0.5163794159889221,0.24475440382957458,-0.6915998784908304,0.3136161853136419,0.18896509087075591
3.2566301822662354,-0.006793767213821411,0.0723949670791626,-0.04590564966201782,1.5644972324371338,0.4993099272251129,0.2843707799911499,-0.6773328779924358,0.3171695371545271,0.1865425763952854
3.2666540145874023,-0.012980908155441284,0.08086878061294556,-0.04528695344924927,1.8130924701690674,0.49566584825515747,0.3389430046081543,-0.660269592768078,0.32026658007044967,0.18354788066809855
3.276527166366577,-0.014829516410827637,0.06964945793151855,-0.03345894813537598,2.01608943939209,0.5370674133300781,0.3956510126590729,-0.640887765572967,0.32345648424964224,0.18029381829253807
3.286595106124878,-0.018555551767349243,0.05212885141372681,-0.03343731164932251,2.135347843170166,0.5557271838188171,0.4245477020740509,-0.619811770034525,0.3269466147526059,0.17689611417069823
3.296680212020874,-0.01681464910507202,0.05408662557601929,-0.0358043909072876,2.1674721240997314,0.5736857056617737,0.4164295792579651,-0.5980224381684796,0.33052821898009815,0.17327196947269352
3.306685209274292,-0.005086362361907959,0.035685718059539795,-0.01580125093460083,2.162944793701172,0.5920092463493347,0.4135929048061371,-0.5761739482635876,0.3342812675163556,0.16948391829486842
3.3183372020721436,-0.008168667554855347,0.02135443687438965,0.009343981742858887,2.1536660194396973,0.5770622491836548,0.4091944396495819,-0.55436738004601,0.33809975095394296,0.16565370293532472
3.32670521736145,-0.013794749975204468,0.0165519118309021,0.02280426025390625,2.1167237758636475,0.5883533954620361,0.3850223422050476,-0.5328960755731826,0.34184458627212694,0.16170299410819405
3.336642265319824,-0.008178293704986572,0.004625678062438965,0.026440024375915527,2.1014883518218994,0.599582850933075,0.38738590478897095,-0.5117433650839547,0.34580555018779274,0.15766823567166255
3.3467161655426025,-0.00430181622505188,0.009076744318008423,0.026708245277404785,2.1408519744873047,0.5993030667304993,0.4108470678329468,-0.4904186592072587,0.34991605191253095,0.15370548228599307
3.356764316558838,0.0024910569190979004,0.03478017449378967,0.02648746967315674,2.216135263442993,0.5931404829025269,0.4298649728298187,-0.46853361033459046,0.3540335366122697,0.14969765181682054
3.3683252334594727,0.009919464588165283,0.054204851388931274,0.03380429744720459,2.3240230083465576,0.5804329514503479,0.4616813659667969,-0.44566178625309055,0.35810803547794273,0.14552073596082096
3.3768651485443115,0.011583715677261353,0.063620924949646,0.03607290983200073,2.3996970653533936,0.5472052693367004,0.4815717339515686,-0.4218146986158394,0.36192738056900553,0.1412023037165829
3.386754035949707,0.01663970947265625,0.06646952033042908,0.03548789024353027,2.3948707580566406,0.5421765446662903,0.48336687684059143,-0.39761446549701773,0.36561004937980657,0.13680474074987753
3.3968911170959473,0.020108699798583984,0.054756104946136475,0.023432135581970215,2.3464534282684326,0.5309047102928162,0.47975295782089233,-0.3737124587147597,0.3693682998937274,0.1324537886383614
3.4084529876708984,0.01927119493484497,0.04008793830871582,0.020008742809295654,2.2976322174072266,0.4952925443649292,0.48865365982055664,-0.3502866134537301,0.37305711075818077,0.12823798277817294
3.418333053588867,0.024618536233901978,0.01898077130317688,0.0351904034614563,2.209077835083008,0.41869762539863586,0.500575602054596,-0.32744609893019033,0.37633351297853856,0.12436463577212502
3.4268381595611572,0.029844075441360474,0.018645882606506348,0.07139825820922852,2.1363370418548584,0.3420253098011017,0.5176140666007996,-0.3053520561767651,0.3790696865622013,0.12090848840455425
3.436978340148926,0.025783568620681763,0.028158485889434814,0.10826104879379272,2.058087110519409,0.28482434153556824,0.5422605276107788,-0.2838818999776525,0.3813277609854574,0.11791542081299537
3.446857213973999,0.02275395393371582,0.03267446160316467,0.11739933490753174,2.0307796001434326,0.2561486065387726,0.5370882153511047,-0.26288446697274165,0.38327416929077507,0.11521545325936833
3.4569342136383057,0.01753273606300354,0.028340518474578857,0.09894341230392456,2.020876884460449,0.2700396776199341,0.5184277296066284,-0.24216204117340273,0.38521179660292737,0.1124328465927673
3.4694631099700928,0.013522982597351074,0.016481250524520874,0.04225212335586548,1.975885272026062,0.2234075367450714,0.5233606696128845,-0.2216261846837003,0.3870786429368396,0.10965259911882552
3.4770612716674805,0.029200345277786255,0.017678171396255493,-0.01620650291442871,1.918269395828247,0.16064748167991638,0.49510321021080017,-0.20159528455284337,0.3884158849936708,0.10695394331803067
3.487302303314209,0.0538388192653656,0.006921827793121338,-0.05045431852340698,1.7718307971954346,0.13120849430561066,0.4539671242237091,-0.18266029801502287,0.38934749006477914,0.1042772223448633
3.4969592094421387,0.059593409299850464,-0.011948361992835999,-0.08500182628631592,1.5805662870407104,0.14997819066047668,0.4099429249763489,-0.1654579690823892,0.3903135019492487,0.10184598376698205
3.506852149963379,0.04030224680900574,-0.024199649691581726,-0.08718788623809814,1.342119812965393,0.18299424648284912,0.3526299297809601,-0.15046867160438135,0.39165677410284244,0.0997711189723458
3.51877498626709,0.013038724660873413,-0.03670911490917206,-0.061646223068237305,1.0923000574111938,0.203568235039711,0.2975485622882843,-0.13794572798315077,0.3933528126499521,0.09809061485622958
3.5270910263061523,-0.00012576580047607422,-0.03825633227825165,-0.02138364315032959,0.881252646446228,0.22733835875988007,0.2532823383808136,-0.12782221882733943,0.3953366474326642,0.09684485111147491
3.537086009979248,-0.008450508117675781,-0.03700330853462219,0.004625916481018066,0.710442841053009,0.21173356473445892,0.21446675062179565,-0.11960942793569355,0.39743568845414284,0.09594110595997771
3.546945095062256,-0.008725672960281372,-0.02779032289981842,0.004693388938903809,0.615859866142273,0.1700432449579239,0.18372954428195953,-0.11274579765594848,0.3992826253247463,0.09519731628959788
3.5569992065429688,0.007038086652755737,-0.010990425944328308,-0.004368603229522705,0.5397669672966003,0.12313859164714813,0.16380378603935242,-0.10674352666756007,0.40068476255938706,0.09454317100042957
3.568559169769287,0.02232322096824646,0.001949593424797058,-0.02278214693069458,0.45954710245132446,0.10062440484762192,0.1379336714744568,-0.10152670911549251,0.40172458894017266,0.09396559761278281
3.577010154724121,0.021664798259735107,0.002289608120918274,-0.03324782848358154,0.36888137459754944,0.09372708201408386,0.1363363116979599,-0.09718272746827117,0.40265940963687225,0.09358847676066676
3.5871121883392334,0.0093880295753479,-0.008122891187667847,-0.03748452663421631,0.24835555255413055,0.08082020282745361,0.13880102336406708,-0.09377047249310089,0.40352943162623117,0.09364789022326261
3.5970921516418457,0.006181806325912476,-0.015472106635570526,-0.03204101324081421,0.12237073481082916,0.08907094597816467,0.11840572953224182,-0.09155819310797726,0.4044101999682184,0.09411369729403019
3.6070191860198975,0.005838513374328613,-0.023262739181518555,-0.020021438598632812,-0.004226107150316238,0.09774978458881378,0.11473440378904343,-0.0905556129364999,0.4054128375863428,0.09495093974841011
3.618626117706299,-0.0013107061386108398,-0.02598688006401062,-0.02473503351211548,-0.1042054295539856,0.10766659677028656,0.10837903618812561,-0.09062501212667443,0.40655848086074836,0.09619945596084584
3.626922130584717,-0.003049612045288086,-0.02951700985431671,-0.027395248413085938,-0.17109501361846924,0.09866742044687271,0.10212290287017822,-0.091488431420437,0.4077431811588614,0.09772358953519986
3.637068271636963,-0.0005194544792175293,-0.02880081534385681,-0.024359583854675293,-0.16669148206710815,0.09875104576349258,0.09999237209558487,-0.09268465072885715,0.40887928782995137,0.09934202479000291
3.646973133087158,-0.00010657310485839844,-0.015449799597263336,-0.015616655349731445,-0.12777012586593628,0.06880152970552444,0.10696367174386978,-0.09363523725013721,0.4098690487665184,0.10088150349677005
3.656926155090332,-0.004330754280090332,0.0012523680925369263,-0.011986792087554932,-0.07645954191684723,0.03846094012260437,0.11568925529718399,-0.09411658667221402,0.41053781638036546,0.10232241297644784
3.6686010360717773,-0.0003650784492492676,0.012660875916481018,-0.005628108978271484,-0.040626540780067444,0.02297448180615902,0.1183730810880661,-0.09416765804326192,0.4109595875188779,0.10362452004777269
3.6770811080932617,-0.0008651316165924072,0.011327974498271942,-0.0061408281326293945,-0.036607299000024796,0.02604217641055584,0.11908175051212311,-0.09403512817172957,0.41131819380064616,0.1048774771103442
3.6871533393859863,-0.010850667953491211,0.009847000241279602,-0.007318675518035889,-0.045394834131002426,0.019036374986171722,0.11765652894973755,-0.09392871017830134,0.41165510133060207,0.10612172984881867
3.6971893310546875,-0.011916041374206543,-0.005595669150352478,-0.002430737018585205,-0.06477785110473633,0.01496733259409666,0.11115016043186188,-0.09397547407428936,0.4119383562817243,0.1073917512901323
3.7072010040283203,-0.008403390645980835,-0.012053340673446655,0.0067975521087646484,-0.08923789858818054,0.02212764136493206,0.10430865734815598,-0.09425457072185675,0.4122307895975425,0.10869235092009885
3.719196319580078,-0.013344615697860718,-0.004718981683254242,0.010690689086914062,-0.09564972668886185,0.029435887932777405,0.11302358657121658,-0.09419840659516315,0.412543473991075,0.11006171624674427
3.727217197418213,-0.01783919334411621,-0.0029921159148216248,0.012386918067932129,-0.08920971304178238,0.031191442161798477,0.11673597991466522,-0.0942570776181708,0.4129065670083913,0.11149927915387967
3.7371420860290527,-0.01490667462348938,0.0017563477158546448,0.015178203582763672,-0.06489478051662445,0.040804922580718994,0.11654609441757202,-0.09449932202847369,0.41331516901906024,0.11287391106391591
3.747368335723877,-0.013808727264404297,0.00747980922460556,0.01503145694732666,-0.030828790739178658,0.0564543679356575,0.12408119440078735,-0.09468182532736966,0.4139093475485814,0.11416898421349891
3.757190227508545,-0.014852762222290039,0.010691113770008087,0.007192790508270264,0.01050027459859848,0.0615476630628109,0.12650494277477264,-0.0944602489116619,0.41459369641093036,0.1153719321362557
3.7685601711273193,-0.011201292276382446,0.010544784367084503,0.005867421627044678,0.03746557980775833,0.05112360417842865,0.1240970715880394,-0.09388686894697537,0.4151676465339643,0.11642058624978456
3.777311325073242,-0.0031012296676635742,0.01230737566947937,0.008971095085144043,0.048983752727508545,0.04440817981958389,0.11665965616703033,-0.09288285279013442,0.41563126042077114,0.11734041544974037
3.7871901988983154,0.0026960372924804688,0.017460860311985016,0.0064247846603393555,0.03543129190802574,0.04087159037590027,0.10741071403026581,-0.09182949492303742,0.4160751478277462,0.11818185933607397
3.7973201274871826,0.0033205747604370117,0.011247426271438599,0.0034309029579162598,0.00025838962756097317,0.030492452904582024,0.09156916290521622,-0.09121970041179277,0.4164369228196927,0.11900909683301282
3.8073341846466064,0.002568155527114868,0.002180129289627075,0.00906294584274292,-0.04283833131194115,0.022812116891145706,0.07792764902114868,-0.09108538371728016,0.41668805427588557,0.11985221409341903
3.818970203399658,0.0036455094814300537,0.0014979392290115356,0.013851940631866455,-0.08988013863563538,0.022804660722613335,0.07002152502536774,-0.09150994449180612,0.4169464656052666,0.12079209393451888
3.8273119926452637,0.00327908992767334,0.0032943114638328552,0.012249588966369629,-0.1404302418231964,0.01535136066377163,0.05882549285888672,-0.09252548931076966,0.4171893237200857,0.12185200752467154
3.837259292602539,0.0026405155658721924,-0.002116777002811432,0.01389855146408081,-0.17539195716381073,0.005479821003973484,0.05406669154763222,-0.09399090799183936,0.41733140054210366,0.12301426332124131
3.8473410606384277,0.0027677416801452637,-0.009973675012588501,0.01775437593460083,-0.17977513372898102,-0.0018923855386674404,0.04647289589047432,-0.09561425152252725,0.41741088833270307,0.1242011822036781
3.8573901653289795,-0.0028807222843170166,-0.0056732818484306335,0.018049120903015137,-0.161844864487648,-0.013431595638394356,0.053557705134153366,-0.09713451366528954,0.41744556628394525,0.1253553819656988
3.8687100410461426,-0.004416227340698242,0.0011905878782272339,0.010818660259246826,-0.14478006958961487,-0.022306447848677635,0.05008302628993988,-0.09851699914916238,0.4173989118683669,0.12647142576043843
3.8773891925811768,-0.0013229548931121826,0.0014675185084342957,0.005509376525878906,-0.12331553548574448,-0.03028714284300804,0.05013548955321312,-0.09960343041554821,0.4172669638371548,0.12747688475736563
3.8874402046203613,-0.0057770609855651855,-0.0031586363911628723,0.0050476789474487305,-0.11187694221735,-0.03335106372833252,0.049007803201675415,-0.10037295301935902,0.4170647328620836,0.12842312155611588
3.8973350524902344,-0.014079898595809937,0.0008077770471572876,0.008610546588897705,-0.10853307694196701,-0.0298647191375494,0.04585009068250656,-0.10109465008372064,0.41688123248631476,0.12931757396470198
3.907405138015747,-0.018435746431350708,-0.0013037174940109253,0.014113008975982666,-0.11098617315292358,-0.02068125270307064,0.0426582396030426,-0.10186734761155855,0.4167561297946325,0.13018391102044496
3.9185962677001953,-0.022515028715133667,-0.008028708398342133,0.014612257480621338,-0.09784640371799469,-0.010791070759296417,0.03955672308802605,-0.10253808561918257,0.41672517543073634,0.13100391921800417
3.9273881912231445,-0.02684888243675232,-0.005200840532779694,0.012704610824584961,-0.06985854357481003,-0.00022684410214424133,0.034670885652303696,-0.1029625898183538,0.4167785137692111,0.13169752717791364
3.937413215637207,-0.027382731437683105,-0.002455867826938629,0.009393155574798584,-0.0227632075548172,0.008952006697654724,0.030571214854717255,-0.10314829223211387,0.416887450216641,0.1321922883911291
3.947664260864258,-0.02686208486557007,0.0026239827275276184,0.0015377402305603027,0.022800467908382416,0.013028373941779137,0.024908270686864853,-0.1029962200448684,0.41702944125266833,0.1324437947225718
3.95821213722229,-0.027048975229263306,0.00744502991437912,-0.0038137435913085938,0.0533466562628746,0.019090261310338974,0.016142742708325386,-0.10255210247502922,0.41719785299029544,0.13247544254300025
3.968813180923462,-0.02448517084121704,0.005619607865810394,-0.00437319278717041,0.07142837345600128,0.022904660552740097,0.011924881488084793,-0.10185619383529038,0.4173839714517184,0.13235184531352803
3.9775872230529785,-0.022870540618896484,0.0026044175028800964,-0.002213418483734131,0.07033168524503708,0.02532201260328293,-0.0017166286706924438,-0.10117524712142908,0.4175576328546037,0.1320999204331511
3.9873452186584473,-0.02193012833595276,-0.0005280598998069763,0.0018305182456970215,0.04204225540161133,0.028921540826559067,-0.009479210712015629,-0.10068892185343728,0.4177433589995698,0.13180200968624323
3.9973502159118652,-0.01881253719329834,-0.0048793405294418335,0.0024222731590270996,0.0129283107817173,0.032157547771930695,-0.01588304713368416,-0.1004307407684347,0.4179614129606198,0.13157302858925918
4.007419109344482,-0.01604798436164856,-0.011239275336265564,0.0017864108085632324,-0.007753796875476837,0.024530522525310516,-0.021879687905311584,-0.10047375564425752,0.41812818427713755,0.1313886687950024
4.018656253814697,-0.013422489166259766,-0.010063573718070984,0.005498349666595459,-0.016155537217855453,0.018391136080026627,-0.02335614338517189,-0.10068768900501933,0.41822057976095367,0.13120678885829443
4.027420997619629,-0.009699583053588867,-0.006653115153312683,0.004412472248077393,-0.0123464185744524,0.011318313889205456,-0.024644315242767334,-0.10098662804900407,0.41823430887192403,0.13103375792413782
4.037400245666504,-0.002977699041366577,-0.0022886469960212708,-0.004991769790649414,0.007047252729535103,0.002393262227997184,-0.024763358756899834,-0.10123157026809115,0.4181526067707999,0.13080587586214604
4.047654151916504,0.0001443624496459961,-0.0021135807037353516,-0.011905908584594727,0.02506982907652855,-0.008501997217535973,-0.028283417224884033,-0.10127032692441741,0.4179595764475459,0.13048009835605343
4.057592153549194,0.00057259202003479,-0.004200048744678497,-0.014705955982208252,0.03351524472236633,-0.017669130116701126,-0.03157961368560791,-0.10114361184562427,0.41766745983854736,0.13006642466219806
4.0684943199157715,0.0004451274871826172,-0.006125211715698242,-0.014163017272949219,0.03231354430317879,-0.017533883452415466,-0.03451569378376007,-0.10096214512639064,0.4173464948107219,0.12960741120107244
4.077665328979492,0.0005908012390136719,-0.009602062404155731,-0.012730300426483154,0.019165517762303352,-0.02274276316165924,-0.037541843950748444,-0.10079126971596929,0.4170108914921362,0.1291690306973248
4.087733268737793,-0.0004654526710510254,-0.010277308523654938,-0.009742140769958496,0.004685678519308567,-0.030478447675704956,-0.04519331827759743,-0.1006877923888477,0.41662425158914984,0.12873093580309047
4.097687244415283,-0.004047781229019165,-0.01572122424840927,0.00123518705368042,-0.002367969835177064,-0.03143851459026337,-0.04892653599381447,-0.10073031406260675,0.41621980248435547,0.12828764384992106
4.109384059906006,-0.007091253995895386,-0.015018053352832794,0.006734669208526611,-0.0033615787979215384,-0.03133673965930939,-0.0466824509203434,-0.10086707862223956,0.41583121565497,0.12784159833987513
4.118873119354248,-0.007183074951171875,-0.00961814820766449,0.0062010884284973145,-0.010583538562059402,-0.029274385422468185,-0.04789525642991066,-0.1010988365454154,0.4154730307175362,0.12742833683679347
4.127679109573364,-0.0076580047607421875,-0.013066023588180542,0.0057939887046813965,-0.01269176322966814,-0.025050168856978416,-0.05198906734585762,-0.10135896357330332,0.4151347744238673,0.127008612706284
4.137635231018066,-0.008056938648223877,-0.015556089580059052,0.004720032215118408,-0.009478660300374031,-0.023279698565602303,-0.05064496770501137,-0.10159192873049498,0.41482918697185034,0.12657894993853552
4.147662162780762,-0.00678744912147522,-0.013291694223880768,0.00023305416107177734,-0.002975054085254669,-0.022955771535634995,-0.05087251216173172,-0.10173917885267678,0.4145308608949286,0.12612699830599688
4.157843112945557,-0.004223346710205078,-0.012190669775009155,0.001066446304321289,0.004247971810400486,-0.02334832027554512,-0.04887167736887932,-0.10178278664193989,0.41423051787475873,0.12565624695659447
4.168784141540527,-0.003950208425521851,-0.011589013040065765,0.005200386047363281,0.016155865043401718,-0.021013528108596802,-0.04432033374905586,-0.10171483854494634,0.4139443121375155,0.1251797194851452
4.177757263183594,-0.003147333860397339,-0.005149617791175842,0.009894609451293945,0.022562097758054733,-0.02237919718027115,-0.038150858134031296,-0.10146924733348635,0.41367172995967355,0.1247290367801952
4.187718152999878,-0.0008696615695953369,0.0007337257266044617,0.012077867984771729,0.026975370943546295,-0.028299802914261818,-0.0364772193133831,-0.10118441497305018,0.41335298418859423,0.12428429907737917
4.197834014892578,0.004666566848754883,0.0014642700552940369,0.015904366970062256,0.029142916202545166,-0.03076908551156521,-0.03538186103105545,-0.10095624725691679,0.4129941960367196,0.1238248344583437
4.207871198654175,0.006058037281036377,0.0022220835089683533,0.015782475471496582,0.017816809937357903,-0.030294377356767654,-0.0370839387178421,-0.10071601588494535,0.4126287176036422,0.12340256657252391
4.21989107131958,0.005878627300262451,0.003086201846599579,0.014401257038116455,-0.004019246436655521,-0.025371525436639786,-0.041201986372470856,-0.10062965611190855,0.4122860088417701,0.12301755818104558
4.22844123840332,0.008185267448425293,0.0029445290565490723,0.014464378356933594,-0.01722453162074089,-0.02277476340532303,-0.045432738959789276,-0.10074138207391678,0.4119868904820767,0.12266131738592347
4.239431142807007,0.011270731687545776,0.005153648555278778,0.009935081005096436,-0.013206618838012218,-0.02471807226538658,-0.04593713954091072,-0.10092883727538078,0.4117071692470073,0.12230531811485644
4.247911214828491,0.014452904462814331,0.005705520510673523,0.010821700096130371,-0.0008253005798906088,-0.03432449325919151,-0.047672029584646225,-0.10104895893196554,0.4113685780327599,0.12189378099681172
4.25789213180542,0.017588883638381958,0.008333206176757812,0.013718187808990479,0.006285871844738722,-0.03923935815691948,-0.048390019685029984,-0.10116847466663319,0.41096364614585634,0.12143772783577966
4.268726110458374,0.01674473285675049,0.0165855810046196,0.013349592685699463,0.016182245686650276,-0.03770866245031357,-0.0525578111410141,-0.10129381865140034,0.4105563973249912,0.12092511599080111
4.277862071990967,0.014724552631378174,0.013794124126434326,0.016894280910491943,0.01897776499390602,-0.03459036722779274,-0.0525817796587944,-0.10138493672308724,0.4102157588673268,0.12037317836848888
4.2878522872924805,0.011710166931152344,0.010297402739524841,0.01848447322845459,0.026226939633488655,-0.03365067020058632,-0.04935062304139137,-0.10141808293937532,0.40989194691946795,0.11982315461816473
4.297885179519653,0.010809570550918579,0.012195274233818054,0.02361440658569336,0.023859122768044472,-0.026118451729416847,-0.050150103867053986,-0.10144294981346688,0.4096091224010923,0.11927089643065435
4.308004140853882,0.008020401000976562,0.012375570833683014,0.030028879642486572,0.01649293676018715,-0.023324573412537575,-0.05073631554841995,-0.10149178267589411,0.40939045665779267,0.11873475696572883
4.319185256958008,0.0037806034088134766,0.00763344019651413,0.03382140398025513,0.002054342068731785,-0.0124713946133852,-0.05366712436079979,-0.10168780411946571,0.40924630857889177,0.1182256534607071
4.328028202056885,0.004118978977203369,0.004049576818943024,0.03948491811752319,-0.008731642737984657,-0.0018240311183035374,-0.05392124503850937,-0.10199260706537985,0.40920671189938423,0.11775089381400607
4.3378801345825195,0.0022014081478118896,0.0056444257497787476,0.038142383098602295,-0.014790333807468414,0.011947440914809704,-0.05312548950314522,-0.10239877121798466,0.40930283116577043,0.11731441125839255
4.347935199737549,0.0031259357929229736,0.009024783968925476,0.032717764377593994,-0.01135648787021637,0.016304463148117065,-0.05026871711015701,-0.10286609420430574,0.4094810874958159,0.11690660080009568
4.358087062835693,0.00744590163230896,0.012114003300666809,0.02648639678955078,0.001229611225426197,0.017857350409030914,-0.05085008591413498,-0.10322728299966398,0.4096793556961161,0.11647221708413548
4.369579315185547,0.011377900838851929,0.01367349922657013,0.02343285083770752,0.01754934713244438,0.024200422689318657,-0.045772772282361984,-0.10340824799946617,0.4099101930569093,0.11598797011816359
4.377959251403809,0.00897642970085144,0.014359697699546814,0.02020442485809326,0.028167102485895157,0.028586117550730705,-0.0406978502869606,-0.10347006684416833,0.41018697857078334,0.11549690157255506
4.388055324554443,0.008233577013015747,0.013073518872261047,0.016655325889587402,0.027092818170785904,0.03420938178896904,-0.03834276273846626,-0.10347452991838095,0.41051649424754244,0.11502990523823649
4.398182153701782,0.009139209985733032,0.009286642074584961,0.012255430221557617,0.009510893374681473,0.034232549369335175,-0.04053454473614693,-0.10352326016299428,0.410864191582355,0.114603688608614
4.40805721282959,0.010029792785644531,0.004037991166114807,0.010566413402557373,-0.011006765067577362,0.033446475863456726,-0.04425887018442154,-0.10375299200720019,0.4112199198129131,0.11422540023387337
4.420934200286865,0.011405229568481445,-0.004243522882461548,0.01232367753982544,-0.027395060285925865,0.026214126497507095,-0.04016212746500969,-0.1041631957476078,0.4115375249632387,0.11392458233952235
4.428065299987793,0.012138932943344116,-0.0064003244042396545,0.015490591526031494,-0.033183738589286804,0.0186428502202034,-0.036093614995479584,-0.10467483525155605,0.41177716297480604,0.11370529964873816
4.437983989715576,0.012170135974884033,-0.004664793610572815,0.019268453121185303,-0.031861480325460434,0.00653798459097743,-0.027704395353794098,-0.10520050158275684,0.41193454444822347,0.11354738258943017
4.448060035705566,0.013368755578994751,-0.004702217876911163,0.013583242893218994,-0.027525104582309723,-0.0016629984602332115,-0.019308671355247498,-0.10566776140150946,0.4119971452676606,0.1134627411043329
4.458365201950073,0.01458778977394104,-0.007087178528308868,0.008314192295074463,-0.015936359763145447,-0.005044147372245789,-0.007359067909419537,-0.10602530410446356,0.41199882397427606,0.11342479900993152
4.469304084777832,0.012318313121795654,-0.007014155387878418,0.002530038356781006,0.005047486163675785,-0.0063329399563372135,0.009085365571081638,-0.10618204515951526,0.4120016249756994,0.11345326523226251
4.478149175643921,0.007243305444717407,-0.006771601736545563,0.0012193918228149414,0.01912841573357582,-0.00036426354199647903,0.022088248282670975,-0.10607622498434238,0.4120234480195476,0.11355909963486807
4.4880499839782715,0.005044728517532349,-0.0070637911558151245,0.0013767480850219727,0.038292523473501205,0.0014213859103620052,0.03209907189011574,-0.10574092502600785,0.41209304138716546,0.11368665819554431
4.498122215270996,0.002297312021255493,-0.012369401752948761,0.0026504993438720703,0.059700075536966324,0.0006653144955635071,0.043682489544153214,-0.10507666343337445,0.4121972006160948,0.11384825306872029
4.508179187774658,0.00031244754791259766,-0.013127021491527557,0.006948888301849365,0.06823519617319107,-0.0016972203738987446,0.04605467617511749,-0.10424280438435683,0.4122941774403368,0.11402035111777964
4.518663167953491,-0.002656877040863037,-0.014653705060482025,0.00892794132232666,0.07534769922494888,-0.008083214983344078,0.05433231219649315,-0.10335381402619181,0.4123641653898845,0.11419967494880949
4.5281782150268555,0.002124696969985962,-0.012517198920249939,0.0063364505767822266,0.07395122200250626,-0.016256144270300865,0.05672271177172661,-0.10241780892658522,0.4123492506495309,0.11442064396433099
4.5381951332092285,0.006698668003082275,-0.01286739856004715,0.00641322135925293,0.05460548400878906,-0.018234873190522194,0.05595678836107254,-0.10155809032200576,0.41228131124026485,0.11468510926273505
4.548330307006836,0.0036239027976989746,-0.015426814556121826,0.0035070180892944336,0.025751616805791855,-0.019855361431837082,0.05976089835166931,-0.1009251844819758,0.4121780120422672,0.11506922884540513
4.558263301849365,0.005706161260604858,-0.014070793986320496,0.0007082819938659668,-0.0028222384862601757,-0.014139153063297272,0.060628555715084076,-0.10055912654341058,0.41208712446876444,0.11558318707196753
4.569212198257446,0.006604999303817749,-0.015182897448539734,-0.0022269487380981445,-0.0180765762925148,-0.001583104021847248,0.06326327472925186,-0.10040396131865378,0.4120985825190867,0.11619361262669785
4.578310012817383,0.0033138692378997803,-0.017058849334716797,-0.004750490188598633,-0.023921947926282883,0.0007745926268398762,0.06590487062931061,-0.10024972582384072,0.412187006510943,0.11688447668198426
4.588630199432373,0.0023265480995178223,-0.011798612773418427,-0.0038331151008605957,-0.018182136118412018,-0.002667897380888462,0.06204802542924881,-0.10008509960070353,0.4122585165888566,0.11755816546050898
4.598227024078369,0.004647761583328247,-0.004553437232971191,0.00046879053115844727,-0.013903502374887466,-0.0008907699957489967,0.05914757400751114,-0.09985781895969231,0.41231339752857626,0.11817965548091686
4.608771324157715,0.00421944260597229,-0.0010553225874900818,0.0016996264457702637,-0.015411151573061943,-0.001891053281724453,0.052245140075683594,-0.09965460669112793,0.4123726957165109,0.11875589565110758
4.619546175003052,0.0019797086715698242,-0.00510135293006897,0.0035709142684936523,-0.026079241186380386,-0.008628051728010178,0.04760618135333061,-0.09953438212334964,0.4124139952731698,0.11929651960368748
4.628273010253906,0.0005181431770324707,-0.010413549840450287,0.009642958641052246,-0.03317173942923546,-0.01643288880586624,0.04254867509007454,-0.09945986747468995,0.41235692514328104,0.11982262225381611
4.638331174850464,-0.0005441904067993164,-0.006622083485126495,0.014172375202178955,-0.030216427519917488,-0.017007332295179367,0.03792835772037506,-0.09945254191996106,0.4122498686636405,0.1203298645324848
4.648436069488525,-0.002747774124145508,-0.00310506671667099,0.012209653854370117,-0.02583323046565056,-0.01863408088684082,0.03792468085885048,-0.09938367216726929,0.4121366233060414,0.12079385317105276
4.658361196517944,-0.003586113452911377,-0.0031747817993164062,0.007847070693969727,-0.012992534786462784,-0.02182348258793354,0.03542530536651611,-0.0992237139825034,0.41197808677383496,0.12121206583133591
4.669033050537109,-0.0022937357425689697,-8.879601955413818e-05,0.0033829212188720703,-0.00731632299721241,-0.02590908296406269,0.033959608525037766,-0.09903597471712176,0.41177416213145235,0.12157173083101058
4.678390026092529,-0.0014252066612243652,0.00281650573015213,0.000683903694152832,-0.002655790885910392,-0.026302963495254517,0.031663961708545685,-0.09890714265693087,0.4115691459888466,0.12189844715629262
4.688358306884766,-0.004766315221786499,0.003672882914543152,0.0009114742279052734,-0.003560599870979786,-0.024777594953775406,0.028586842119693756,-0.09881325460957974,0.4113637263368796,0.12219437279683437
4.698393106460571,-0.005722671747207642,0.001220598816871643,0.004248976707458496,-0.007174243219196796,-0.023685697466135025,0.02259206771850586,-0.09870151752349317,0.4111694574629228,0.12243961822913298
4.70871114730835,-0.008932530879974365,0.0002096518874168396,0.008430540561676025,-0.01731680892407894,-0.020984942093491554,0.011656807735562325,-0.09864406526243419,0.4109890159612565,0.1226548453537936
4.71877121925354,-0.01065114140510559,-0.0005631223320960999,0.008617579936981201,-0.027321239933371544,-0.019660286605358124,0.009826949797570705,-0.09876127659331654,0.41083733081149776,0.12284106737960135
4.729252338409424,-0.008751273155212402,-0.0004816204309463501,0.008329451084136963,-0.029667949303984642,-0.014250162988901138,0.007943881675601006,-0.09898605383003577,0.4107047642942867,0.12303287586291073
4.739262104034424,-0.007047712802886963,-2.7880072593688965e-05,0.002970278263092041,-0.028307341039180756,-0.013675985857844353,0.005781927146017551,-0.09920477396899981,0.4105863548411725,0.12321558625847234
