timestamp,accel_x,accel_y,accel_z,rotation_x,rotation_y,rotation_z, pitch,roll,yaw
0.041909217834472656,-0.005080610513687134,-0.006266362965106964,0.006714165210723877,0.00410918053239584,-0.0017992141656577587,-0.0024840927217155695,-0.11061779633771979,0.1376865041891726,0.007635091681648648
0.06050920486450195,-0.0033522844314575195,-0.005195789039134979,0.0043978095054626465,-0.0015644179657101631,0.0006045550107955933,-0.0031168595887720585,-0.11061532234345858,0.1376668125684219,0.007605236081119445
0.06833028793334961,-0.002643212676048279,-0.0065035223960876465,0.005433440208435059,-0.0027944655157625675,-0.0020640199072659016,-0.004855584353208542,-0.11064147472997238,0.13765994397599046,0.007576343928443273
0.07078313827514648,-0.003551274538040161,-0.009153798222541809,0.0038205385208129883,-0.0022197554353624582,-0.007259314879775047,-0.005888890940696001,-0.11066740271511231,0.13760626494918557,0.00752497891696289
0.07664918899536133,-0.0018667280673980713,-0.008136868476867676,0.0030611753463745117,-0.007443479262292385,-0.0053351810202002525,-0.0049449605867266655,-0.11071889300510702,0.13753885943968483,0.0074714636466769934
0.08353805541992188,-0.0014566928148269653,-0.007478795945644379,0.005069613456726074,-0.012119458056986332,-0.003370567224919796,-0.003424561582505703,-0.11082440434131348,0.13749598268433116,0.007446160359515684
0.09264016151428223,-0.004579871892929077,-0.008192159235477448,0.006342947483062744,-0.012388570234179497,-0.0026089916937053204,-0.0014603204326704144,-0.11094340352309652,0.13746185319620646,0.007444327665280506
0.10431623458862305,-0.004886537790298462,-0.011438794434070587,0.005328655242919922,-0.011249003000557423,-0.004064409527927637,-0.002419590950012207,-0.11106272577016216,0.13741870916750132,0.007431490299810673
0.11258316040039062,-0.003466308116912842,-0.013419300317764282,0.00793445110321045,-0.007088496349751949,-0.0036915228702127934,-5.355104804039001e-07,-0.11115168850993655,0.13737240066369008,0.00743396784847073
0.12322425842285156,-0.0037466585636138916,-0.011235162615776062,0.009367227554321289,-0.003904154757037759,-0.002665406558662653,0.004183290526270866,-0.11119561393863023,0.1373478856562007,0.007464263346024385
0.13260912895202637,-0.003489673137664795,-0.009927332401275635,0.007930755615234375,-0.004220937844365835,0.00029212236404418945,0.004321508575230837,-0.11123077639438188,0.13733537751511105,0.007502642243306857
0.14286422729492188,-0.0033176541328430176,-0.011246293783187866,0.0062618255615234375,-0.004759162664413452,0.002017850987613201,0.007783884648233652,-0.1112682307619929,0.13734721487647145,0.007564740840393034
0.1526660919189453,-0.0035541504621505737,-0.012565486133098602,0.007035732269287109,0.005947976838797331,0.0020026706624776125,0.009713984094560146,-0.11125984859054118,0.1373858061256493,0.007651325196766205
0.1629621982574463,-0.003424420952796936,-0.009264647960662842,0.005328953266143799,0.01498168520629406,-0.007066991180181503,0.010448750108480453,-0.11113204839648476,0.13736054697250924,0.0077346588027784905
0.17268610000610352,-0.0024804025888442993,-0.0058260709047317505,0.00457918643951416,0.010103223845362663,-0.010457504540681839,0.006386417429894209,-0.110988482717583,0.13726740873579465,0.007795761556991922
0.18292617797851562,-0.0021856576204299927,-0.006378330290317535,0.0046100616455078125,-0.00040907226502895355,-0.004333565942943096,0.005793598014861345,-0.11093003910571717,0.13719961570216557,0.007859440215522373
0.19279813766479492,-0.004074469208717346,-0.008133500814437866,0.005544126033782959,-0.004921282641589642,-0.006488108076155186,0.003452839097008109,-0.11096116273721494,0.13715026607919334,0.007921156146437392
0.20404720306396484,-0.006088286638259888,-0.011598698794841766,0.0038905739784240723,-0.0054834759794175625,-0.009856474585831165,0.001839495962485671,-0.11087049926131554,0.1370400493141716,0.00796227339526734
0.21279096603393555,-0.004293382167816162,-0.0107339546084404,0.004223287105560303,-0.0001339842565357685,-0.009660732001066208,0.006634251214563847,-0.11076806190316017,0.13692019532539396,0.008007948065220668
0.22297906875610352,-0.00426618754863739,-0.004820175468921661,0.0052626729011535645,0.0028937633614987135,-0.008131012320518494,0.007755708880722523,-0.11060586268692789,0.13681262136754474,0.008085757436155493
0.23281097412109375,-0.006637215614318848,-0.003775395452976227,0.0005235671997070312,0.005074742250144482,-0.010059541091322899,0.007703403476625681,-0.11039905069342751,0.13670697950945127,0.008157196261251186
0.24300408363342285,-0.006935805082321167,-0.006339304149150848,-0.0005428194999694824,0.006497403606772423,-0.008461112156510353,0.010142060928046703,-0.11023060372065487,0.13660473626719505,0.00823685934080469
0.25409817695617676,-0.007341101765632629,-0.006455861032009125,0.0030745267868041992,0.003301759948953986,-0.012661581858992577,0.009043879806995392,-0.11008689344191244,0.13648729194123932,0.00832883118035385
0.2630929946899414,-0.006933644413948059,-0.005166836082935333,0.003862917423248291,-0.0036781190428882837,-0.011125735938549042,0.007757306098937988,-0.11000281527718268,0.13636665567904366,0.008406810974456952
0.2730391025543213,-0.004246443510055542,-0.008561678230762482,0.004755616188049316,-0.0036100419238209724,-0.010153593495488167,0.007131889928132296,-0.10994884511958747,0.1362402029350268,0.008483016318486003
0.2830841541290283,-0.0035356134176254272,-0.009245000779628754,0.002646505832672119,-0.00010612118057906628,-0.020121006295084953,0.0030250288546085358,-0.10982268064022947,0.1360277849017538,0.008531183914265715
0.2929551601409912,-0.00012888014316558838,-0.006290435791015625,0.0021881461143493652,-0.003849277039989829,-0.021042238920927048,0.0010551416780799627,-0.10972089668430328,0.13577426529975758,0.008552625519747354
0.30511999130249023,0.0025836676359176636,-0.00643756240606308,0.0062139034271240234,-0.009859232231974602,-0.018631013110280037,0.0008170551154762506,-0.10974611155354835,0.13554582252384245,0.008570623514524731
0.31294727325439453,-0.00029471516609191895,-0.007589772343635559,0.008070945739746094,-0.00974904466420412,-0.015272233635187149,-0.0006864057504571974,-0.10980001552582579,0.13530862785095643,0.008573962052446623
0.3232431411743164,-0.002759873867034912,-0.008692972362041473,0.008432328701019287,-0.007167908828705549,-0.011619174852967262,-0.0013175748754292727,-0.10981995502974909,0.1351006467049892,0.00856696132676609
0.3331313133239746,-0.0023959875106811523,-0.008715935051441193,0.008685827255249023,0.0006796279922127724,-0.005392172373831272,0.0028012702241539955,-0.10978165291922484,0.1349475126162738,0.008582318160569223
0.3432803153991699,-0.002652078866958618,-0.004111096262931824,0.008024930953979492,0.014277728274464607,-0.003044063225388527,0.007380575407296419,-0.10964683043227677,0.13486468413175742,0.00862308845150031
0.35492420196533203,-0.002993181347846985,-0.004518337547779083,0.006890237331390381,0.021955356001853943,-0.0029252860695123672,0.010213912464678288,-0.10935038997478881,0.1348037799242198,0.008694097133636353
0.3636660575866699,-0.001998528838157654,-0.005271285772323608,0.005891978740692139,0.018336385488510132,-0.002559102140367031,0.010334819555282593,-0.10903334195584752,0.13476521745372372,0.008763507421705414
0.37325525283813477,-0.00010894238948822021,-0.006416648626327515,0.007811367511749268,0.00822143442928791,-0.007201702333986759,0.007975045591592789,-0.10881940377846405,0.13473361122890767,0.008847666127942057
0.38318729400634766,0.001598462462425232,-0.01170051097869873,0.009227395057678223,-0.009804705157876015,-0.01129631232470274,0.004843701608479023,-0.10876235118550377,0.13468790138631406,0.008919719843144814
0.39321112632751465,0.002545982599258423,-0.016117505729198456,0.012282609939575195,-0.01888696663081646,-0.01220538280904293,0.0049371784552931786,-0.10884633946428829,0.1345946873608036,0.0089807311725409
0.4054121971130371,-5.7220458984375e-06,-0.017655476927757263,0.012163043022155762,-0.01865500584244728,-0.008441004902124405,0.007386753801256418,-0.10895060941397178,0.13449135586784294,0.009062787328086543
0.4132351875305176,-0.003659754991531372,-0.012086205184459686,0.0105668306350708,-0.005704235285520554,-0.00489709060639143,0.012291444465517998,-0.10898149515847563,0.13442166151307283,0.009177044731371353
0.42330503463745117,-0.004241064190864563,-0.007394440472126007,0.005147874355316162,0.012464914470911026,-0.0017702733166515827,0.01880287379026413,-0.10889738470553009,0.13439093238163782,0.009321749056948193
0.43326711654663086,-0.004258647561073303,-0.002026394009590149,0.003234565258026123,0.01866721734404564,0.001989221666008234,0.02272283285856247,-0.10867020944416182,0.13438993474032823,0.009500182047649557
0.44315528869628906,-0.005594909191131592,0.0007407069206237793,0.004395663738250732,0.009626317769289017,0.004874223843216896,0.02013903297483921,-0.10845003049134858,0.13444203138139807,0.009681265254430128
0.4553799629211426,-0.007481694221496582,-0.003371328115463257,0.0057373046875,-0.0021658928599208593,0.00880851224064827,0.01743299514055252,-0.10833470423892423,0.1345433693610651,0.009870776615372511
0.4632582664489746,-0.007403641939163208,-0.00731571763753891,0.007043778896331787,-0.0008217955473810434,0.0071610803715884686,0.016979726031422615,-0.10821958133526308,0.13467928809147908,0.01005413881917951
0.47328901290893555,-0.006471589207649231,-0.00633646547794342,0.007068812847137451,0.007731362245976925,-0.002974865958094597,0.01497335359454155,-0.10801734340520693,0.1347679638655978,0.010219046915172727
0.483234167098999,-0.0016789138317108154,-0.00366935133934021,0.006843447685241699,0.008671990595757961,-0.009601343423128128,0.011215634644031525,-0.10774427047330642,0.1347315197071237,0.010331517706642292
0.49335718154907227,-0.0008847564458847046,-0.0001467391848564148,0.00647890567779541,0.0020574810914695263,-0.006618204060941935,0.01048257201910019,-0.10756228268198514,0.13463523470368935,0.010426391611880807
0.5048761367797852,-0.00367012619972229,0.00040616095066070557,0.004130840301513672,-0.010525688529014587,-0.008973237127065659,0.008087324909865856,-0.10752798070330424,0.13453471927122726,0.010521378726887983
0.513397216796875,-0.0028137564659118652,-0.0024653151631355286,0.001111149787902832,-0.02038058266043663,-0.0095728924497962,0.007941756397485733,-0.10766894680034451,0.13441095991269217,0.010615789637598919
0.5234391689300537,-0.001751542091369629,-0.004668377339839935,0.0011374950408935547,-0.019219711422920227,-0.01177106611430645,0.008013661950826645,-0.10788964852433815,0.13426532083903217,0.010708764343103435
0.5335183143615723,-0.0021931976079940796,-0.005454719066619873,0.0035915374755859375,-0.014614073559641838,-0.014925491064786911,0.008565202355384827,-0.10802062897834414,0.13406503113405716,0.010806595266559665
0.5438270568847656,-0.004173561930656433,-0.0031931698322296143,0.004934549331665039,-0.020597929134964943,-0.012476447969675064,0.010276016779243946,-0.10810944309580961,0.13387714597506456,0.010920209860430614
0.5566520690917969,-0.004483893513679504,-0.0019320398569107056,0.007513761520385742,-0.023866727948188782,-0.007552440278232098,0.011241679079830647,-0.1082683152664979,0.13374533363049657,0.011047879322669282
0.564110279083252,-0.0069202035665512085,-0.006548695266246796,0.00695568323135376,-0.019060520455241203,-0.010415072552859783,0.011661393567919731,-0.10843034969990922,0.1336805661039311,0.011199532321902867
0.5735840797424316,-0.006455123424530029,-0.004769682884216309,0.008154869079589844,-0.01669207215309143,-0.008927784860134125,0.013476710766553879,-0.10859014591816263,0.13359806017357007,0.011346199506470533
0.5834503173828125,-0.004760667681694031,-0.0009361431002616882,0.00946575403213501,-0.004225281998515129,-0.00583265908062458,0.015798719599843025,-0.10867863827028022,0.13353666946785794,0.011507615069978223
0.5935111045837402,-0.0056771934032440186,-0.0011506974697113037,0.007176697254180908,0.0013849993702024221,-0.0087643563747406,0.01511966809630394,-0.10863352691734136,0.13345959335976226,0.011669172263611017
0.6043791770935059,-0.006507411599159241,0.0016784816980361938,0.006380736827850342,-0.003113345941528678,0.001222231425344944,0.014059197157621384,-0.10856578283959323,0.13341845124403787,0.011809424132970437
0.6134562492370605,-0.0047273188829422,0.0020987242460250854,0.008072614669799805,-0.007758481428027153,0.0017526890151202679,0.012929324060678482,-0.10855748685172148,0.13343910091529176,0.011949878608493232
0.6235270500183105,-0.007688403129577637,-0.004734613001346588,0.008031845092773438,-0.014335157349705696,0.0037508588284254074,0.005278595723211765,-0.10863161032762793,0.13345655309668553,0.01204554459682862
0.6334161758422852,-0.007712140679359436,-0.005240485072135925,0.009556829929351807,-0.01999184489250183,-0.0016560684889554977,0.0018552085384726524,-0.108787451405868,0.13345194816553446,0.01210383393554033
0.643671989440918,-0.00507885217666626,-0.005201973021030426,0.011501669883728027,-0.023876331746578217,-0.0008049225434660912,-0.0032468754798173904,-0.10894826244032182,0.13338346657209613,0.012114337624305884
0.6550192832946777,-0.004358619451522827,-0.004675731062889099,0.010491609573364258,-0.02212308906018734,0.0034512970596551895,-0.0029982426203787327,-0.10915566637477044,0.13335241028608935,0.012101354978168045
0.6635990142822266,-0.004960864782333374,-0.003447584807872772,0.00557553768157959,-0.01604602299630642,6.482144817709923e-05,-0.004491477273404598,-0.10934773490945067,0.13333151359965328,0.01209068399975308
0.6736149787902832,-0.0037712007761001587,-0.0015193670988082886,0.0020629167556762695,-0.005588737316429615,-0.0021880795247852802,-0.005006479565054178,-0.10944953927198213,0.13327158944936346,0.012046980161874778
0.6836509704589844,-0.0023073554039001465,-0.0007359907031059265,0.002483844757080078,0.009591280482709408,-0.0009718136861920357,-0.004177437163889408,-0.10945969493647632,0.13319533127164773,0.01199011951753723
0.6938521862030029,-0.0028124749660491943,-0.0016225427389144897,0.0025224685668945312,0.017474986612796783,-0.007595494855195284,-0.002319029998034239,-0.10933843932531814,0.1331177213493546,0.011942639067436013
0.7043662071228027,-0.002435535192489624,-0.0011417195200920105,0.0006557106971740723,0.01625152863562107,-0.00858299434185028,-0.0029941415414214134,-0.10913103877259651,0.13297988897205582,0.01188287770533788
0.7136931419372559,-0.0018473416566848755,-0.00282866507768631,0.0007382035255432129,0.010115507058799267,-0.006720646284520626,-0.0014504666905850172,-0.10895536579769842,0.1328449351011325,0.0118324242899158
0.7234570980072021,-0.0023078322410583496,-0.007114984095096588,0.0016799569129943848,0.0017012497410178185,-0.012527668848633766,-0.00427128653973341,-0.10886185440586496,0.13272244449157178,0.011789170460640954
0.7334601879119873,-0.0036960989236831665,-0.00846947729587555,0.0030418038368225098,-0.0076284026727080345,-0.013219381682574749,-0.004286999814212322,-0.10887365224027369,0.13256747371723585,0.011741859974660976
0.74369215965271,-0.002902090549468994,-0.009937040507793427,0.005373179912567139,-0.014317464083433151,-0.013368784449994564,-0.006849226541817188,-0.10896848510484992,0.13239796400505524,0.01169530063805594
0.7546052932739258,-0.003707677125930786,-0.010836310684680939,0.007654428482055664,-0.012195524759590626,-0.014969255775213242,-0.0044441791251301765,-0.10910563119805058,0.13222644617844337,0.011651292198940826
0.7637152671813965,-0.004706859588623047,-0.00911538302898407,0.0076673030853271484,-0.005209786351770163,-0.01917012594640255,-0.004861230030655861,-0.1092010652802837,0.13204947982768872,0.011622546710706212
0.7736530303955078,-0.0042180269956588745,-0.004702530801296234,0.0028899312019348145,0.0019342598970979452,-0.022839650511741638,-0.0039573535323143005,-0.10921332946471465,0.13181682502422673,0.011579589683570786
0.7836799621582031,-0.00269356369972229,-0.0023005232214927673,0.003332376480102539,0.0020860598888248205,-0.01731385849416256,-0.006480698473751545,-0.10919156745391696,0.13160117180156924,0.011529493483089728
0.7940540313720703,-0.004427433013916016,-0.004798881709575653,0.008058905601501465,0.0006812424398958683,-0.01879226788878441,-0.003635697066783905,-0.10915675251864887,0.13142460568939837,0.011476629335796629
0.8068842887878418,-0.006739765405654907,-0.0027740448713302612,0.007218480110168457,0.00012570712715387344,-0.014710440300405025,-0.00598247442394495,-0.10909996402294013,0.13124636860560845,0.011423259357618724
0.8147921562194824,-0.005933657288551331,-0.0025930851697921753,0.0032429099082946777,0.001043382566422224,-0.003921042662113905,-0.013235273770987988,-0.1090407296245078,0.13112430901179364,0.011319562746313055
0.8237552642822266,-0.005815044045448303,0.0009804293513298035,0.0020922422409057617,0.03430600091814995,-0.020851023495197296,-0.014254998415708542,-0.10882285837704081,0.1310008186375794,0.011157928145479347
0.8336851596832275,-0.007426366209983826,0.0074783265590667725,0.004044175148010254,0.03290189802646637,-0.037630315870046616,-0.03762631490826607,-0.10842613676397476,0.13063284190114977,0.010872668300452352
0.8440632820129395,-0.0026356279850006104,0.005819059908390045,0.014236211776733398,-0.009139563888311386,-0.04132705181837082,-0.05430835485458374,-0.10828403029034009,0.13016694004567245,0.010384883679599504
0.8557851314544678,0.001198887825012207,-0.0059203580021858215,0.0230787992477417,-0.039764050394296646,-0.053274787962436676,-0.05942162498831749,-0.10859645410930784,0.12960950378988131,0.009848061976786438
0.8639659881591797,-0.009599626064300537,-0.01108156144618988,0.023478806018829346,-0.0717984139919281,-0.051893141120672226,-0.1059126928448677,-0.10926023854398044,0.12902594348078109,0.009134761081008263
0.8736791610717773,0.0004953294992446899,-0.0071310922503471375,0.018606841564178467,-0.12458999454975128,-0.08256690204143524,-0.10200050473213196,-0.11027498760715773,0.12819553667119316,0.008215559560507804
0.884453296661377,0.001139819622039795,-0.027325935661792755,0.016685783863067627,-0.16712521016597748,-0.12499239295721054,-0.11717546731233597,-0.1118178385857896,0.12708395789250687,0.007298494353476328
0.8938760757446289,0.009767547249794006,-0.01380980759859085,0.022159993648529053,-0.24796715378761292,-0.20233812928199768,-0.15560707449913025,-0.11398629656797826,0.12529742165375968,0.006230374106863075
0.9048671722412109,0.011947356164455414,-0.013005562126636505,0.031355321407318115,-0.4564923942089081,-0.22661256790161133,-0.2533924877643585,-0.11763151925004353,0.12293754651372868,0.0046408704842165385
0.913917064666748,0.020910099148750305,-0.05108700692653656,0.03161752223968506,-0.7793612480163574,-0.26581642031669617,-0.3292030990123749,-0.12405203033125281,0.12020856746577958,0.0024922384174793817
0.9239683151245117,0.007751345634460449,-0.06042297184467316,0.028618574142456055,-1.2106242179870605,-0.3183984160423279,-0.501465380191803,-0.13431275999110945,0.11702602484280236,-0.0004342440033390174
0.9342870712280273,0.01244448870420456,-0.09806878864765167,0.03268235921859741,-1.907010555267334,-0.40623748302459717,-0.7846713662147522,-0.15033116556714696,0.11268883776156224,-0.005068116314765306
0.9460430145263672,0.00978119671344757,-0.14227421581745148,0.05406397581100464,-2.838357448577881,-0.44406983256340027,-0.9953039884567261,-0.17480991524293893,0.10743118516956775,-0.011458135561263258
0.9561710357666016,-0.003899209201335907,-0.18618248403072357,0.0865069031715393,-3.870806932449341,-0.5423172116279602,-1.2611340284347534,-0.20942318783492675,0.101016084907129,-0.01931813429832182
0.9645261764526367,0.004800379276275635,-0.25272050499916077,0.08383667469024658,-4.953231334686279,-0.663747251033783,-1.5859410762786865,-0.2546710326220178,0.0926300030964778,-0.029457528891723084
0.9769821166992188,-0.008014090359210968,-0.292634516954422,0.11229676008224487,-6.040022850036621,-0.8252357244491577,-1.9251049757003784,-0.31111815829042666,0.08153336288952175,-0.04271161817902623
0.9841489791870117,-0.021957967430353165,-0.32113608717918396,0.1502819061279297,-7.199746131896973,-0.9373409748077393,-2.1627280712127686,-0.3785599098001351,0.0670997879739654,-0.059300127715966454
0.9940981864929199,-0.015195447951555252,-0.3321804404258728,0.15675944089889526,-8.363383293151855,-1.200443983078003,-2.3991949558258057,-0.45765468554679084,0.04823716661071194,-0.07932124156376918
1.0060720443725586,-0.0025850720703601837,-0.25349849462509155,0.1582355499267578,-9.675141334533691,-1.52839195728302,-2.6767241954803467,-0.5487735183393639,0.022293883311103473,-0.1045941365314725
1.0139679908752441,0.011040699668228626,-0.23372799158096313,0.20731103420257568,-11.12067699432373,-1.7103129625320435,-2.9616100788116455,-0.6528033786143411,-0.013034437271776389,-0.13831802785013528
1.024238109588623,0.026463210582733154,-0.2809412479400635,0.24880802631378174,-12.881118774414062,-1.8866174221038818,-3.1356804370880127,-0.7716133650742165,-0.061374837877811804,-0.18453768260313688
1.0340580940246582,-0.03202172368764877,-0.2274305820465088,0.25234514474868774,-15.046357154846191,-1.9667407274246216,-3.2218620777130127,-0.9074179320932833,-0.13127265777463323,-0.25220436938407065
1.045079231262207,-0.08681616187095642,-0.14637935161590576,0.2755123972892761,-17.31197166442871,-1.944800615310669,-3.1276116371154785,-1.0610757109961593,-0.24374757616451914,-0.36335898817030887
1.055077075958252,-0.12233182787895203,-0.13226211071014404,0.31866055727005005,-19.02091407775879,-1.6764487028121948,-2.9291880130767822,-1.2225896536963639,-0.46286733419702175,-0.5836124071229459
1.064183235168457,-0.12395146489143372,-0.0531807541847229,0.3485860228538513,-19.786415100097656,-1.4563877582550049,-2.974961757659912,-1.3519770833539648,-1.0107079303893036,-1.1355504714879774
1.074193000793457,-0.14064162969589233,0.2230105996131897,0.2963780164718628,-19.489761352539062,-1.1216012239456177,-3.126377820968628,-1.3401670563905188,-1.9301673600678122,-2.062562484334388
1.0841691493988037,-0.1784711331129074,0.5717493891716003,0.21396997570991516,-18.51398468017578,-1.3359299898147583,-3.49267840385437,-1.2022691413974984,-2.3992637117759266,-2.5387681712537353
1.0942840576171875,-0.16015201807022095,0.6847271919250488,0.06659066677093506,-17.40132713317871,-1.6138193607330322,-3.379300117492676,-1.0377195132863088,-2.582641148418199,-2.725559712488674
1.1050281524658203,-0.08465912938117981,0.6445151567459106,-0.028573453426361084,-16.105064392089844,-1.8014845848083496,-3.2922632694244385,-0.8746031161416462,-2.6756256770883993,-2.8178791370579206
1.1141111850738525,0.04013925790786743,0.8670790195465088,-0.10869437456130981,-14.536975860595703,-1.943884015083313,-3.060211181640625,-0.722004485629011,-2.732157591140938,-2.8699135171401458
1.1246981620788574,0.05252644419670105,1.0573316812515259,-0.22167634963989258,-11.68898868560791,-1.7440747022628784,-2.9183568954467773,-0.5883306367102703,-2.768047519345065,-2.8987397609325116
1.1341841220855713,0.044570982456207275,1.0432322025299072,-0.38886916637420654,-7.696004390716553,-1.9289443492889404,-2.690563440322876,-0.4870588864196759,-2.791297299119607,-2.9083407809010122
1.144214153289795,0.01378720998764038,1.0306346416473389,-0.6717318892478943,-3.8129594326019287,-2.0745911598205566,-2.32704496383667,-0.42492406946194483,-2.809296798801817,-2.9031347718161222
1.1546392440795898,0.0904448926448822,1.1411850452423096,-0.8064846992492676,-1.5183265209197998,-1.8122565746307373,-1.9297298192977905,-0.394049891217714,-2.823874253269671,-2.8900513097487073
1.1640400886535645,0.13821113109588623,1.0133891105651855,-0.7692756056785583,-1.0028855800628662,-1.2611569166183472,-1.6066558361053467,-0.3775018959515793,-2.8339501409790677,-2.8758016627295153
1.1741032600402832,0.07471242547035217,0.44381242990493774,-0.501081109046936,-1.357532024383545,-0.8351636528968811,-1.2956715822219849,-0.361951707097336,-2.840243344634301,-2.8646700721971747
1.1840400695800781,0.0408150851726532,-0.04131859540939331,-0.12640321254730225,-1.506223201751709,-0.7018497586250305,-1.056052803993225,-0.34449414798392636,-2.8452637793779285,-2.8573908580421805
1.1942660808563232,0.04738038778305054,-0.18274465203285217,0.13093078136444092,-1.1822843551635742,-0.7004189491271973,-0.8880549073219299,-0.3286111855065736,-2.8504196032579445,-2.8516638725403176
1.2046642303466797,0.05030602216720581,-0.13218677043914795,0.16852104663848877,-0.70469069480896,-0.5818028450012207,-0.678025484085083,-0.31732567462611305,-2.855306001101765,-2.8466068761614225
1.2142581939697266,0.035335421562194824,-0.062339991331100464,0.08452105522155762,-0.35762819647789,-0.3901553750038147,-0.45898866653442383,-0.31077224114075697,-2.858888985061208,-2.842388107636696
1.2242980003356934,0.00871950387954712,-0.040016233921051025,-0.04228472709655762,-0.2845396101474762,-0.2764040529727936,-0.2916385531425476,-0.3068320904053806,-2.861308172447187,-2.8395002541877266
1.234248161315918,0.0024717748165130615,-0.0733807384967804,-0.08023059368133545,-0.37065503001213074,-0.2276596873998642,-0.16370920836925507,-0.30309794004380214,-2.863350204783647,-2.838194434453902
1.2442481517791748,0.011804908514022827,-0.1317908763885498,0.01971757411956787,-0.3967161774635315,-0.2599441409111023,-0.10342322289943695,-0.29897525800198277,-2.865729801552606,-2.8379898878265912
1.2547650337219238,0.01362660527229309,-0.15857449173927307,0.09784889221191406,-0.3150475323200226,-0.2837258577346802,-0.07608933746814728,-0.2952616847093604,-2.868497208994871,-2.8381203945004185
1.264209270477295,0.013710469007492065,-0.15371134877204895,0.1134331226348877,-0.211457759141922,-0.23756451904773712,-0.0422099344432354,-0.2925720669029764,-2.871198325390678,-2.83825324117126
1.274528980255127,0.005744367837905884,-0.12094813585281372,0.08016574382781982,-0.13467499613761902,-0.18195101618766785,-0.017445199191570282,-0.2908806147030438,-2.873322962191893,-2.8384353088848613
1.284684181213379,-0.011927664279937744,-0.09115210175514221,0.031832337379455566,-0.11964277178049088,-0.15150415897369385,0.004682207480072975,-0.2896908637091733,-2.875074040903092,-2.838736065159989
1.2945501804351807,-0.009770333766937256,-0.07034128904342651,0.03063809871673584,-0.14626742899417877,-0.12773805856704712,0.014643866568803787,-0.28838764992315813,-2.8765756010637573,-2.8391995800396335
1.3053791522979736,-0.0032786130905151367,-0.0690176784992218,0.05159640312194824,-0.1414436548948288,-0.12992264330387115,0.019551273435354233,-0.2870549965218275,-2.8780103775448085,-2.8397772943440316
1.3143272399902344,-0.00542798638343811,-0.05669829249382019,0.050031423568725586,-0.18804793059825897,-0.12316153943538666,0.0014610608341172338,-0.2855382295085033,-2.8794459891952573,-2.8403236912139556
1.3242161273956299,-0.009714633226394653,-0.03335335850715637,0.04619300365447998,-0.24385100603103638,-0.1162615641951561,-0.02533912844955921,-0.28339307726435564,-2.880764704232583,-2.8407819583858234
1.3342442512512207,-0.02503587305545807,-0.04492783546447754,0.055103302001953125,-0.2733021676540375,-0.09810523688793182,-0.06094074621796608,-0.2807804605501108,-2.8819378269729685,-2.8410535904783942
1.3443810939788818,-0.029100701212882996,-0.034656912088394165,0.06124067306518555,-0.2725282609462738,-0.07427553832530975,-0.0852159932255745,-0.27795301899146824,-2.882767009479405,-2.841042532117638
1.3554840087890625,-0.041649654507637024,-0.01943609118461609,0.03811240196228027,-0.28067776560783386,-0.03493253141641617,-0.10407548397779465,-0.2750422489765728,-2.8832875176408326,-2.8407890734088683
1.364901065826416,-0.04201620817184448,-0.011367380619049072,0.04198753833770752,-0.2715604305267334,0.02836068533360958,-0.09526841342449188,-0.2720502502177942,-2.883214638183793,-2.8405459190948816
1.3746311664581299,-0.04720334708690643,-0.005870699882507324,0.03965616226196289,-0.17780357599258423,0.013001970015466213,-0.09450781345367432,-0.26962376979330827,-2.8828840797044566,-2.840207034992815
1.384535312652588,-0.04783463478088379,0.003613889217376709,0.03226953744888306,-0.14268366992473602,-0.012570235878229141,-0.10998264700174332,-0.2678893324167688,-2.8827547169669163,-2.8395653908795677
1.395738124847412,-0.03530929982662201,0.015932559967041016,0.061600565910339355,-0.17766055464744568,0.038680169731378555,-0.0926196351647377,-0.26608099303845345,-2.882478910295426,-2.8389655448116917
1.405203104019165,-0.034949153661727905,-0.004586338996887207,0.08542042970657349,-0.14541473984718323,0.07366611808538437,-0.07567234337329865,-0.2642740798109899,-2.8817977215063526,-2.838569802678461
1.4144792556762695,-0.03796336054801941,-0.00406607985496521,0.06893032789230347,-0.07479164004325867,0.10560345649719238,-0.06430884450674057,-0.26297660307333226,-2.8807712517741106,-2.838164935558438
1.4249591827392578,-0.03636598587036133,0.008636295795440674,0.05954241752624512,-0.08846830576658249,0.1566684991121292,-0.0447644367814064,-0.2620686746457863,-2.8793859965904915,-2.837817292548055
1.4345180988311768,-0.032042622566223145,0.01696351170539856,0.06268084049224854,-0.1335396021604538,0.209625244140625,-0.036868806928396225,-0.2608250831453805,-2.8774416414557167,-2.837678848353246
1.4447851181030273,-0.03447642922401428,0.0008653104305267334,0.05719482898712158,-0.0940244123339653,0.19792304933071136,-0.02376951463520527,-0.2595936092726523,-2.8753627140804507,-2.837708086098265
1.4570441246032715,-0.033846378326416016,-0.012085318565368652,0.04410475492477417,-0.02396037057042122,0.17728887498378754,-0.013429524376988411,-0.25898944991905243,-2.873454130420992,-2.8376698082517624
1.4645252227783203,-0.019851654767990112,0.019005805253982544,0.031317830085754395,-0.04727181792259216,0.1773645132780075,-0.011121629737317562,-0.2586803356139184,-2.8716729899075086,-2.8376200982687974
1.4743881225585938,-0.013836592435836792,0.02482736110687256,0.010378122329711914,-0.11826631426811218,0.20625407993793488,-0.014372337609529495,-0.2578514612655215,-2.8697813397415657,-2.8377412290372908
1.484513282775879,-0.021776467561721802,0.012675613164901733,-0.0034444332122802734,-0.07925952970981598,0.1829032152891159,-0.016370506957173347,-0.2567686175054048,-2.867818726143514,-2.837886029448186
1.4948163032531738,-0.022133678197860718,-0.0013944506645202637,-0.01670658588409424,0.007666198071092367,0.11574757099151611,-0.015463967807590961,-0.2563757856899133,-2.866297534854431,-2.837844398483351
1.5052142143249512,-0.0034620165824890137,0.03637200593948364,-0.02935945987701416,0.05082192271947861,0.07165201008319855,-0.01908932812511921,-0.25665877772506374,-2.865298310021898,-2.8375489637283686
1.514639139175415,0.003813803195953369,0.0480843186378479,-0.02827167510986328,0.02626754529774189,0.0650377869606018,-0.0228420402854681,-0.2569966963688657,-2.864554381883677,-2.8372442686465638
1.5250520706176758,0.005969911813735962,0.03640875220298767,-0.01662898063659668,0.02343234419822693,0.05215953662991524,-0.0319918654859066,-0.2570940066188063,-2.863836716908341,-2.8369090320617683
1.5345802307128906,0.0019585490226745605,0.02336055040359497,-0.020655572414398193,0.026838595047593117,0.028856078162789345,-0.048599231988191605,-0.25720646481003456,-2.863301428049585,-2.8364291424504184
1.5445480346679688,0.005277007818222046,0.026649802923202515,-0.018183231353759766,-0.01671687141060829,0.04712909087538719,-0.06388258188962936,-0.2571502906807537,-2.8627890730281806,-2.8358315112654022
1.5553960800170898,0.005409866571426392,0.033037424087524414,-0.01025080680847168,-0.04607529193162918,0.04997032880783081,-0.06853330880403519,-0.2566829845452902,-2.8621397600129845,-2.835295173555334
1.5647683143615723,-0.003345876932144165,0.02641618251800537,-0.014635920524597168,-0.03973031044006348,0.047831811010837555,-0.08671257644891739,-0.2560667313265349,-2.8614281721544725,-2.8346185865856675
1.5748062133789062,-0.001806020736694336,0.022197693586349487,-0.008531332015991211,-0.00771418958902359,0.05293167382478714,-0.08872044086456299,-0.2555850229439564,-2.860645140743853,-2.8337804113261233
1.5847382545471191,0.0067955851554870605,0.021790623664855957,0.00899660587310791,0.04650776833295822,0.05995789170265198,-0.07266052067279816,-0.2557376164588854,-2.859833920475223,-2.8329115759683017
1.5948519706726074,0.012820661067962646,0.029171019792556763,0.01571565866470337,0.07152365893125534,0.07569632679224014,-0.052176333963871,-0.25649976915094785,-2.8589736747804197,-2.8321008979585196
1.6054210662841797,0.01755109429359436,0.026861578226089478,0.01838696002960205,0.07437803596258163,0.08130308240652084,-0.03868396207690239,-0.25745191322808214,-2.858079063652572,-2.8314638116360253
1.614795207977295,0.01669168472290039,0.010277509689331055,0.029445886611938477,0.04957050457596779,0.07705467939376831,-0.02499547228217125,-0.2582544879813842,-2.8571842515695787,-2.830968285127451
1.624922275543213,0.017897218465805054,-0.002656996250152588,0.04527467489242554,0.006870978511869907,0.0962131917476654,-0.005686490796506405,-0.25877015673532044,-2.85633836257527,-2.830743840658933
1.63472318649292,0.020129412412643433,-0.013288408517837524,0.06310701370239258,0.04153548181056976,0.10997702926397324,0.02385973557829857,-0.2591607507841751,-2.8553654191607265,-2.8307967388641524
1.6448111534118652,0.016458123922348022,-0.023940563201904297,0.059264183044433594,0.11767338961362839,0.1160823255777359,0.045802854001522064,-0.26017267961216534,-2.8542590441420828,-2.8309154981385207
1.6552751064300537,0.019657999277114868,-0.003486543893814087,0.04153168201446533,0.1037006825208664,0.1443738043308258,0.06095874309539795,-0.26150764176578467,-2.853021802892408,-2.8311087627596634
1.6648612022399902,0.015803664922714233,0.0025979280471801758,0.02106684446334839,0.07205114513635635,0.15685097873210907,0.0810999646782875,-0.2626015995381546,-2.851691677858601,-2.831587115051568
1.6750092506408691,0.005676001310348511,-0.020306885242462158,0.012247741222381592,0.10904235392808914,0.12618130445480347,0.08356621116399765,-0.26378820181847024,-2.8505524590566234,-2.8321844802596514
1.684725284576416,0.00723952054977417,-0.016882240772247314,0.002037346363067627,0.15545806288719177,0.0965280681848526,0.08984247595071793,-0.26540965403921857,-2.84976930685291,-2.8326870806133173
1.6950039863586426,0.010407507419586182,-0.0023033320903778076,-0.011133074760437012,0.2079240381717682,0.07404415309429169,0.1025647222995758,-0.2674113755093499,-2.849231500935659,-2.83315638577393
1.705536127090454,0.006791055202484131,0.0007226467132568359,-0.034851670265197754,0.26213666796684265,0.04619574174284935,0.10713843256235123,-0.26985951926868906,-2.8489129227513525,-2.8335562517312263
1.7147760391235352,0.006659716367721558,0.007245570421218872,-0.049970269203186035,0.3695160448551178,0.00037867482751607895,0.10776246339082718,-0.2730353950437033,-2.8488716649179473,-2.833722855491629
1.7249290943145752,0.007506191730499268,0.0011018812656402588,-0.046030402183532715,0.4751356840133667,-0.03118697553873062,0.11689364165067673,-0.2772947122176112,-2.8491142335144013,-2.833580819197278
1.7350130081176758,0.013983666896820068,0.008356213569641113,-0.03940427303314209,0.5601897239685059,-0.02579655684530735,0.13457432389259338,-0.2825432363131731,-2.8494310451430316,-2.8333190378254813
1.7452361583709717,0.016271382570266724,0.021905183792114258,-0.037937045097351074,0.7290861010551453,-0.0486089289188385,0.1666150689125061,-0.28904872020994726,-2.84970450425108,-2.8329251666832787
1.755005121231079,0.00972658395767212,0.009934842586517334,-0.034327805042266846,0.8470652103424072,-0.08367383480072021,0.17961035668849945,-0.2970735477565476,-2.8502577145090195,-2.8322735794252756
1.7647571563720703,0.021171778440475464,0.03236746788024902,-0.022682905197143555,0.8461892604827881,-0.08641716092824936,0.18463653326034546,-0.30581201450418766,-2.8509106061427714,-2.831523010408541
1.774921178817749,0.01845407485961914,0.012212097644805908,-0.005436539649963379,0.8440364599227905,-0.08131170272827148,0.2163517326116562,-0.31438271493794884,-2.851580229849891,-2.831008918150763
1.784825086593628,0.003282099962234497,-0.050626546144485474,0.022601008415222168,1.0635066032409668,-0.1205374002456665,0.27170929312705994,-0.32407660403406463,-2.85245855380563,-2.830637677996583
1.7948932647705078,0.01633736491203308,-0.020291119813919067,0.038509368896484375,1.5389999151229858,-0.15573222935199738,0.34550318121910095,-0.33730455963358585,-2.853608141539156,-2.829862191318724
1.8055341243743896,0.02725529670715332,0.029887855052947998,0.013313055038452148,2.1908743381500244,-0.18676231801509857,0.46826156973838806,-0.35626282474139026,-2.8548228334092345,-2.8283940582258538
1.814995288848877,0.0317322313785553,0.05748644471168518,-0.0218316912651062,2.991309404373169,-0.17952193319797516,0.6200577616691589,-0.3826126219091687,-2.8558898222168616,-2.826173285624605
1.8250641822814941,0.03900778293609619,0.09479871392250061,-0.0313490629196167,3.9489171504974365,-0.1273365020751953,0.7536494135856628,-0.417833427471191,-2.8560418882242318,-2.8227362953462047
1.8350751399993896,0.035373181104660034,0.11190974712371826,-0.0384218692779541,4.9911723136901855,-0.05383769050240517,0.855904757976532,-0.46298746473293845,-2.8547062300263146,-2.8173813002249077
1.8450331687927246,0.014951109886169434,0.1052912175655365,-0.03251850605010986,6.090594291687012,0.013605797663331032,0.9478024840354919,-0.5188241497425067,-2.850972395438074,-2.8092529138556706
1.8550231456756592,0.016840994358062744,0.0924486517906189,0.007074713706970215,6.835583686828613,-0.029061106964945793,1.0000059604644775,-0.5839451962364814,-2.845271343988106,-2.7981892267232857
1.8649482727050781,0.01789774000644684,0.09513545036315918,0.08390551805496216,7.227924823760986,0.1259114295244217,1.0410714149475098,-0.6542563011440081,-2.836938566799539,-2.784512928220144
1.8750109672546387,0.02189113199710846,0.0936238169670105,0.27995800971984863,7.5038323402404785,0.26574021577835083,1.129836916923523,-0.7278377734826469,-2.824952278004265,-2.768689639373071
1.8849601745605469,0.019280970096588135,0.02771139144897461,0.43173080682754517,8.093451499938965,0.474303275346756,1.2517082691192627,-0.8053204978178491,-2.8081861033873134,-2.749880878635529
1.8952569961547852,0.028128206729888916,0.02402275800704956,0.49134230613708496,9.275351524353027,0.6172235012054443,1.4174413681030273,-0.8913701912423113,-2.7835123123959957,-2.7244802705666293
1.9059741497039795,0.005690738558769226,0.09769469499588013,0.44866102933883667,11.078349113464355,0.8016910552978516,1.5909165143966675,-0.9912161374118479,-2.7442883827747186,-2.68469816682475
1.915107250213623,-0.01992766559123993,0.2609661817550659,0.3925817012786865,13.359904289245605,0.8782252669334412,1.7548506259918213,-1.1093420693611007,-2.6728679347450734,-2.6122424486204
1.9250602722167969,-0.05462166666984558,0.4409942030906677,0.3344545364379883,15.669211387634277,0.949002206325531,1.8077415227890015,-1.2434044445154142,-2.518490012558609,-2.455471697345111
1.9350543022155762,-0.096514493227005,0.5746880173683167,0.3433951139450073,17.236528396606445,0.9755349159240723,1.5305233001708984,-1.3697707065478877,-2.0946867943268854,-2.027646596282669
1.9451501369476318,-0.1366010308265686,0.6256844997406006,0.47875237464904785,18.011110305786133,1.2627238035202026,0.9100511074066162,-1.3915615917289434,-1.1271953551828535,-1.0563968442697347
1.9554731845855713,-0.22599515318870544,0.4997345209121704,0.6976951360702515,17.717592239379883,1.694083571434021,0.644390881061554,-1.2715961203710195,-0.5391275033088107,-0.46818679548265824
1.965071201324463,-0.30342841148376465,0.2284567952156067,0.8183306455612183,17.277339935302734,1.7502228021621704,0.9061359167098999,-1.114320184410294,-0.3189966705076725,-0.25147642412225585
1.9751091003417969,-0.2604646384716034,0.27914202213287354,0.9238529205322266,16.06440544128418,1.318410038948059,1.0604292154312134,-0.9550584954581794,-0.21312821382217506,-0.14643769142174173
1.9852023124694824,-0.16461700201034546,0.4530799388885498,1.0891064405441284,14.09490966796875,1.5205694437026978,1.2608565092086792,-0.8085199883577212,-0.1522465422691416,-0.08542633910697936
1.9962530136108398,-0.10670511424541473,0.29143357276916504,1.2716782093048096,12.013025283813477,1.8545385599136353,1.5474261045455933,-0.6806090983998336,-0.10661379415524178,-0.043427322678268966
2.0054831504821777,-0.18000493943691254,-0.025888144969940186,1.1195762157440186,9.951870918273926,2.181548595428467,1.6580288410186768,-0.5725989949022761,-0.0676989889061106,-0.011662872066531523
2.0150980949401855,-0.2449609935283661,-0.1660219430923462,0.9947824478149414,8.151518821716309,2.3029699325561523,1.665343999862671,-0.4829311081212443,-0.032728093283031424,0.012856262040389078
2.0250420570373535,-0.2671298384666443,-0.2662470042705536,0.9147166013717651,6.415642261505127,2.337815761566162,1.5630650520324707,-0.4104409939883051,-0.001104594550663453,0.032337557090650254
2.035280227661133,-0.2301163673400879,-0.3918403089046478,0.7949186563491821,4.843773365020752,2.4202053546905518,1.2995685338974,-0.3540069293668174,0.028177545853373603,0.04702130325893206
2.045398235321045,-0.1569667011499405,-0.47858190536499023,0.6960844397544861,3.68575119972229,2.377040147781372,1.0601983070373535,-0.31128240150218534,0.055729564452682394,0.057590687419501185
2.0555381774902344,-0.1486043632030487,-0.4906611144542694,0.5517077445983887,2.985621929168701,2.163506507873535,0.8681090474128723,-0.27753551592410625,0.08076495543609385,0.06533110100714828
2.0653421878814697,-0.08585655689239502,-0.43620002269744873,0.43136662244796753,2.661438465118408,1.9931457042694092,0.6797734498977661,-0.24884960227874203,0.10293636733639946,0.07059380254589434
2.0755021572113037,0.00925254076719284,-0.2941321134567261,0.3178427815437317,2.4998979568481445,1.723651647567749,0.587099552154541,-0.2225547418842429,0.12231140630814592,0.07405882592545641
2.0853941440582275,0.0695665180683136,-0.08925624191761017,0.1437099575996399,2.326747417449951,1.5407692193984985,0.5185657739639282,-0.19779750702258903,0.1391373009995946,0.07646709257096065
2.0955252647399902,0.12187755107879639,0.016243815422058105,0.001086115837097168,2.013481855392456,1.4475460052490234,0.4260309934616089,-0.17551284705358608,0.1543351893788037,0.07796520742525666
2.105983257293701,0.12938377261161804,0.013779222965240479,-0.08787208795547485,1.6331342458724976,1.40874445438385,0.38538023829460144,-0.1567996373850069,0.16868650887956585,0.07899729130726095
2.1153321266174316,0.08816003799438477,0.014372080564498901,-0.11995905637741089,1.2421573400497437,1.4238970279693604,0.3671511113643646,-0.1420345793495535,0.18303417762873828,0.08022440299226861
2.125335216522217,0.06154410541057587,0.03345915675163269,-0.10684651136398315,0.9480152130126953,1.3595342636108398,0.3573344349861145,-0.13060814553973712,0.19726131173860922,0.08175573352242713
2.135284185409546,0.03793492913246155,0.062248773872852325,-0.0807642936706543,0.690673291683197,1.2692950963974,0.30436578392982483,-0.12192146745600728,0.21054517509642331,0.0833621283918322
2.1452722549438477,0.016110986471176147,0.043180033564567566,-0.04881155490875244,0.47586187720298767,1.2105093002319336,0.27376261353492737,-0.11566226650762851,0.22314629159659066,0.08494961312915664
2.1565322875976562,-0.001095399260520935,-0.0008556544780731201,-0.03305816650390625,0.4013610780239105,1.1161019802093506,0.261323481798172,-0.1108696404894234,0.2351244092068926,0.08659680898278233
2.1653521060943604,-0.013043791055679321,-8.231401443481445e-05,-0.036193013191223145,0.42782145738601685,0.8516926765441895,0.19634979963302612,-0.10628512070906754,0.24513236749761036,0.08786181375712386
2.175358295440674,-0.014506787061691284,0.011240534484386444,-0.014972984790802002,0.4245944917201996,0.649272620677948,0.12195136398077011,-0.10174312746242399,0.25262392762516117,0.08833266836838483
2.1853890419006348,0.00972902774810791,-0.012762024998664856,0.026829183101654053,0.3841075301170349,0.5357716083526611,0.14042651653289795,-0.09746521421535018,0.258593494226214,0.0885139783461497
2.1955511569976807,0.02373906970024109,-0.007477313280105591,0.022606074810028076,0.29080864787101746,0.4564655125141144,0.1738952100276947,-0.09376577841813925,0.26358930343458914,0.08917722392148031
2.2061421871185303,0.015640556812286377,0.01315067708492279,-0.0105552077293396,0.1772858053445816,0.4024885594844818,0.16543273627758026,-0.09107061936453345,0.2679641737457254,0.09022764014116157
2.215482234954834,0.01508226990699768,-0.008451133966445923,-0.02440279722213745,0.10647890716791153,0.3654698431491852,0.16073663532733917,-0.0893040406898771,0.2719034828947962,0.09141879854832072
2.225656032562256,0.0044411420822143555,-0.043472155928611755,-0.026871204376220703,0.09563504904508591,0.33975300192832947,0.17085158824920654,-0.0878968126045553,0.27556579152809396,0.09275219680016646
2.235408306121826,-0.006528079509735107,-0.046878159046173096,-0.02643132209777832,0.11225622147321701,0.3364723324775696,0.1777116060256958,-0.08642969649569958,0.27904688267927935,0.0941610710746507
2.245450019836426,-0.011722713708877563,-0.029668815433979034,-0.020704209804534912,0.15030986070632935,0.3091999590396881,0.17481516301631927,-0.0846863809079405,0.2824215972927835,0.09551155559155519
2.257622241973877,-0.024786144495010376,-0.020008720457553864,-0.008199572563171387,0.17138591408729553,0.3061431050300598,0.1486283540725708,-0.08264855307207447,0.28554802375290433,0.09660941697263822
2.2653303146362305,-0.039122700691223145,-0.0382838100194931,0.022122204303741455,0.12163115292787552,0.33624398708343506,0.14873461425304413,-0.08079110656039919,0.28886443860085975,0.09760316870234706
2.2755191326141357,-0.04837143421173096,-0.043466709554195404,0.03002786636352539,0.07241123914718628,0.39361974596977234,0.12398990988731384,-0.079484832808116,0.29257399432878284,0.09866050631188378
2.2854511737823486,-0.03954976797103882,-0.019315041601657867,0.0074160099029541016,0.05826719105243683,0.43652433156967163,0.09781209379434586,-0.07853882914368178,0.29682005723588367,0.09952563464917255
2.295773983001709,-0.027840346097946167,-0.01920616626739502,-0.006473362445831299,0.06275248527526855,0.46177494525909424,0.08423961699008942,-0.07771025962617044,0.30140662809273117,0.10022704921973022
2.3063840866088867,-0.02980571985244751,-0.018190205097198486,-0.01996511220932007,0.108007051050663,0.4489915072917938,0.051502443850040436,-0.07670657150124897,0.30601423360206886,0.10063991203887894
2.3156542778015137,-0.01878303289413452,0.004212766885757446,-0.031175076961517334,0.1696908175945282,0.41975194215774536,0.01743677817285061,-0.07528030852242223,0.3103738505704562,0.10055146065483822
2.3259341716766357,-0.010134518146514893,0.03260212391614914,-0.024363398551940918,0.21334455907344818,0.39665138721466064,-0.013407686725258827,-0.07342085352324515,0.31441667184426314,0.09997872099934074
2.335634231567383,-0.013581126928329468,0.03982008993625641,-0.015279650688171387,0.21856887638568878,0.3627395033836365,-0.05044107511639595,-0.07144673246461895,0.3181345720828911,0.09898764859652956
2.3457281589508057,-0.017734497785568237,0.030166544020175934,-0.009024441242218018,0.20648717880249023,0.33616089820861816,-0.07809001207351685,-0.0696211299335469,0.32154339233877266,0.09769303713697727
2.356917142868042,-0.015700459480285645,0.02563118189573288,-0.0007357597351074219,0.17542599141597748,0.30762535333633423,-0.08757688105106354,-0.06806455097905989,0.32464786082931163,0.09629363714273682
2.3659629821777344,-0.011654436588287354,0.027771756052970886,-0.0014061331748962402,0.16397492587566376,0.2814427614212036,-0.08335524052381516,-0.06672966330432432,0.32753691560164744,0.09493075773459672
2.375559091567993,-0.006974548101425171,0.03058912605047226,-0.011539936065673828,0.1660090982913971,0.23187221586704254,-0.08969356119632721,-0.06545062721285809,0.3300172692079577,0.093583573928203
2.3856210708618164,-0.0006664097309112549,0.03752214461565018,-0.024248242378234863,0.1468985229730606,0.1902715116739273,-0.10943770408630371,-0.06426768953428048,0.3320215199339941,0.09210469606408238
2.3957881927490234,0.004882514476776123,0.029419951140880585,-0.02678924798965454,0.10252591222524643,0.1799982339143753,-0.11689482629299164,-0.0634570959538795,0.33374023999776914,0.09060301861734309
2.4060139656066895,0.0013249218463897705,0.007164657115936279,-0.027409613132476807,0.04873991385102272,0.19091267883777618,-0.09990519285202026,-0.06308285571962734,0.3355150370116869,0.089313281443033
2.4156301021575928,-0.015455096960067749,-0.014729321002960205,-0.02203691005706787,0.0017729387618601322,0.21832707524299622,-0.07631564885377884,-0.06315691734263344,0.33748784906451407,0.08839670716896962
2.4257922172546387,-0.03443801403045654,-0.025985367596149445,-0.017186462879180908,0.0030235592275857925,0.22875574231147766,-0.03660499304533005,-0.06335073039152289,0.33971396514788005,0.08785531793126837
2.436040163040161,-0.04398772120475769,-0.018215849995613098,-0.02020174264907837,0.01771075837314129,0.21107448637485504,0.0005498867249116302,-0.06330206096220505,0.3419004656960055,0.08765278429500183
2.4467930793762207,-0.04937964677810669,-0.003974199295043945,-0.022628068923950195,0.017793050035834312,0.18651854991912842,0.02922094613313675,-0.0630675128725182,0.34389793240387195,0.08774383316045682
2.456045150756836,-0.04560661315917969,0.0019957944750785828,-0.027664661407470703,-0.01452271081507206,0.17006632685661316,0.03754907846450806,-0.06291079956125026,0.3456932016527485,0.08805126144145876
2.4656851291656494,-0.04332038760185242,-0.009674414992332458,-0.023785293102264404,-0.0821014866232872,0.17974212765693665,0.04459420591592789,-0.06321382124516768,0.3474747873990305,0.08860531648341652
2.4757871627807617,-0.050694018602371216,-0.025536850094795227,-0.015373706817626953,-0.13655243813991547,0.17387044429779053,0.041531458497047424,-0.06410920102862414,0.34932129705939846,0.08938621724837029
2.485769271850586,-0.05790400505065918,-0.04581615328788757,-0.009598076343536377,-0.1736326962709427,0.143985778093338,0.031001055613160133,-0.06547045391966351,0.3509734724641633,0.09027835407753777
2.495812177658081,-0.05634790658950806,-0.0594492182135582,-0.004635870456695557,-0.17678464949131012,0.10388846695423126,0.037110134959220886,-0.06702196659545007,0.3522821276500019,0.09118970533263882
2.506040096282959,-0.04170754551887512,-0.04738105088472366,-0.007551848888397217,-0.17606079578399658,0.06918162107467651,0.06402190774679184,-0.0683540667597331,0.35292692911373597,0.09225841010835795
2.5158231258392334,-0.02824258804321289,-0.02505791187286377,-0.022931039333343506,-0.18038733303546906,0.04156770184636116,0.0823257640004158,-0.06965462840798496,0.35316480911771103,0.09354318216719731
2.5257701873779297,-0.015748798847198486,-0.014192923903465271,-0.04314291477203369,-0.1774251013994217,0.02243102341890335,0.10118653625249863,-0.07095409703576802,0.35312037270062957,0.0949911298985972
2.5357820987701416,-0.012683987617492676,-0.012252219021320343,-0.05443066358566284,-0.18138113617897034,0.011859740130603313,0.10952382534742355,-0.07222099508704034,0.35286276848607084,0.09657397347058495
2.54573917388916,-0.015466392040252686,-0.011639006435871124,-0.05410492420196533,-0.20045790076255798,-0.0007087825797498226,0.10821754485368729,-0.07347266608828876,0.3525107474223961,0.09822304763918994
2.556089162826538,-0.01509028673171997,-0.02158864587545395,-0.050273597240448,-0.21186460554599762,-0.015611564740538597,0.0994478091597557,-0.07478944754656493,0.35206338928646985,0.09988912353028807
2.56575608253479,-0.00843137502670288,-0.024887315928936005,-0.04732424020767212,-0.20626451075077057,-0.0369219146668911,0.09310203045606613,-0.07603171639243869,0.3514393582416404,0.10148746656240623
2.575878143310547,-0.002076387405395508,-0.021140679717063904,-0.03868824243545532,-0.20526006817817688,-0.06458860635757446,0.08400962501764297,-0.07720184400622497,0.35061694772287216,0.10300835916265812
2.585867166519165,-0.0003381669521331787,-0.014031074941158295,-0.031093895435333252,-0.1955922693014145,-0.061409853398799896,0.07542359828948975,-0.07847316182634528,0.3498234886482688,0.10442450626890507
2.5961532592773438,0.0008714497089385986,-0.01149817556142807,-0.02547353506088257,-0.18152424693107605,-0.08248984068632126,0.06570620089769363,-0.07980490701736273,0.34902670757988474,0.10573325650430762
2.606638193130493,-0.0005424320697784424,-0.014403179287910461,-0.028239846229553223,-0.17225244641304016,-0.09782832115888596,0.045129816979169846,-0.08115789166374056,0.3480672639912464,0.10685017362631559
2.616359233856201,0.0074488818645477295,-0.018064580857753754,-0.02547752857208252,-0.16546405851840973,-0.11472749710083008,0.04036509990692139,-0.08248915786530311,0.34695527618844785,0.10780371732833095
2.6260671615600586,0.023480981588363647,-0.013867028057575226,-0.023577749729156494,-0.1741451621055603,-0.136308953166008,0.03142460435628891,-0.08386582112087994,0.3456670834050706,0.10872512779690406
2.6359691619873047,0.03464660048484802,-0.004933364689350128,-0.02432304620742798,-0.16610921919345856,-0.16272267699241638,0.017012642696499825,-0.08526736326746812,0.34415174889031636,0.1095215577057386
2.6458683013916016,0.04759368300437927,-0.007257424294948578,-0.021755695343017578,-0.15918207168579102,-0.17251086235046387,0.009552596136927605,-0.08663516461107806,0.34244544875159777,0.11019035273190471
2.656208038330078,0.05027639865875244,-0.01006627082824707,-0.012099862098693848,-0.15805700421333313,-0.16784797608852386,0.005239873193204403,-0.08803026261345079,0.340784959369575,0.11078461035819166
2.6659011840820312,0.039356887340545654,-0.007514297962188721,-0.00811094045639038,-0.13581082224845886,-0.15849708020687103,0.003630791325122118,-0.08934392773273564,0.339195222410492,0.11132642586228308
2.6760811805725098,0.03026065230369568,-0.011981800198554993,-0.006904482841491699,-0.09924844652414322,-0.1379626840353012,0.009062360972166061,-0.09039771897817384,0.3377689803676066,0.11176814707475652
2.685972213745117,0.022820323705673218,-0.00767102837562561,0.002159595489501953,-0.06034738942980766,-0.1473972052335739,0.019791971892118454,-0.0910180879880492,0.33640238538375006,0.11216936977937475
2.696230173110962,0.01534685492515564,-4.200637340545654e-05,0.0037108659744262695,-0.06678405404090881,-0.14667105674743652,0.002630028873682022,-0.09146281520511597,0.33495248752997664,0.11248211562536461
2.7063241004943848,0.020142078399658203,-0.010768376290798187,0.009790241718292236,-0.10837224125862122,-0.16740456223487854,0.00025342381559312344,-0.09218244933785963,0.3335276084099095,0.11277890271472275
2.716062068939209,0.02272820472717285,-0.019835196435451508,0.010334491729736328,-0.17576730251312256,-0.13298293948173523,-0.0019442701013758779,-0.0934575077388347,0.33221496221686164,0.11325701986299277
2.7261641025543213,0.017559975385665894,-0.02511468529701233,0.007689416408538818,-0.22279046475887299,-0.09544461220502853,0.009873507544398308,-0.0952507223455406,0.33140946046571446,0.11397654746711096
2.736225128173828,0.007891416549682617,-0.019125521183013916,-0.012578189373016357,-0.2174845188856125,-0.07025900483131409,0.026562578976154327,-0.09720515227953758,0.3310145392459774,0.11490285245960748
2.7461180686950684,0.0046880245208740234,-0.009530313313007355,-0.03686720132827759,-0.17279240489006042,-0.06010650843381882,0.04238415136933327,-0.09883297654131425,0.3307280824770843,0.11590732196528268
2.7562921047210693,0.008479565382003784,-0.0031958967447280884,-0.03585773706436157,-0.14317618310451508,-0.05251307785511017,0.049168769270181656,-0.1000730454487763,0.3304546647410578,0.11687580523788325
2.7660012245178223,0.0018875300884246826,-0.007973089814186096,-0.025814294815063477,-0.10757503658533096,-0.05726735293865204,0.055899377912282944,-0.10097908317251103,0.3301782681788218,0.11781517155589312
2.7760672569274902,-0.0003930628299713135,-0.0038002505898475647,-0.015614688396453857,-0.08179473876953125,-0.07554667443037033,0.046656928956508636,-0.10164669904730275,0.329722569595714,0.11861942927014656
2.786118984222412,-0.0027970969676971436,0.0041345953941345215,-0.004918336868286133,-0.05955494940280914,-0.08965769410133362,0.030800199136137962,-0.10204521730583965,0.3291294608812569,0.11923110605100082
2.7965331077575684,-0.0019514858722686768,0.0029480308294296265,-0.0003611445426940918,-0.04323485121130943,-0.10260239243507385,0.014333982951939106,-0.10225633155633196,0.3284170179997542,0.1196349579461195
2.8064770698547363,0.0006930232048034668,0.00560460239648819,-0.0067102909088134766,-0.023448361083865166,-0.10639393329620361,0.016330020502209663,-0.10223943968838654,0.3276174330929255,0.11990965560775113
2.816082000732422,0.0038239359855651855,0.0106431245803833,-0.017554759979248047,0.003424814436584711,-0.10566356033086777,0.01580527238547802,-0.10206756726906599,0.3266527347811256,0.12010969617700203
2.8261611461639404,0.008422315120697021,0.022637009620666504,-0.028557300567626953,0.040442220866680145,-0.1252593696117401,0.015167444944381714,-0.10166829770404592,0.32548356098318715,0.12018267125641217
2.8361692428588867,0.016258329153060913,0.03366605192422867,-0.03540229797363281,0.055804431438446045,-0.14494705200195312,0.005293029826134443,-0.10110388422903027,0.3241445748733806,0.12011706047268668
2.8461742401123047,0.026015132665634155,0.03162826597690582,-0.03090459108352661,0.04363112524151802,-0.16201499104499817,-0.004605141002684832,-0.10056017230899941,0.3225826917704323,0.11996005676521854
2.8563270568847656,0.024872690439224243,0.02032201737165451,-0.01890331506729126,0.015681413933634758,-0.1832975447177887,-0.02192777767777443,-0.10029894507226589,0.32084213530639355,0.11974669303498163
2.866413116455078,0.0167100727558136,0.009997807443141937,-0.007225632667541504,-0.012915343046188354,-0.18226397037506104,-0.037364523857831955,-0.10041561922650011,0.318987237883339,0.11946227792659833
2.8763391971588135,0.013563275337219238,0.004293404519557953,0.0008922815322875977,-0.012357143685221672,-0.17965735495090485,-0.032810572534799576,-0.1006739293641149,0.31719111886640095,0.11916884380188
2.886247158050537,0.005769282579421997,0.01006307452917099,-0.0008802413940429688,-0.004135167226195335,-0.16889366507530212,-0.036365095525979996,-0.1009021329165044,0.3154524104109785,0.11886698116600201
2.8964719772338867,0.00400879979133606,0.023560963571071625,-0.008424103260040283,0.01872612163424492,-0.16062511503696442,-0.022496895864605904,-0.10096964750215293,0.31381556639064784,0.11855941597450716
2.9068970680236816,0.003804534673690796,0.030324220657348633,-0.014089465141296387,0.03360387310385704,-0.15225186944007874,-0.014377983286976814,-0.10085864906569132,0.312270633566563,0.11830373744036524
2.9162092208862305,0.0029045939445495605,0.03883171081542969,-0.0086478590965271,0.024971868842840195,-0.14154544472694397,-0.016806360334157944,-0.10077357970461867,0.3108657111149693,0.11807104565250984
2.9305520057678223,-0.0018799006938934326,0.041040949523448944,-0.0014698505401611328,0.01375623233616352,-0.1247645914554596,-0.025425415486097336,-0.10079221671762949,0.3096834615252847,0.11784139940277288
2.9364471435546875,-0.004815280437469482,0.030734091997146606,0.004240095615386963,-0.014178363606333733,-0.11396929621696472,-0.0451180525124073,-0.10099880696197049,0.30864967606550175,0.11753662460540941
2.94622802734375,-0.010953843593597412,0.0204608216881752,0.01105421781539917,-0.03338028863072395,-0.09957410395145416,-0.06267254054546356,-0.10144771011887613,0.30771928388387637,0.11710668989608272
2.9563121795654297,-0.014546215534210205,0.0168975368142128,0.014884710311889648,-0.027394235134124756,-0.08578550070524216,-0.06157851964235306,-0.10197724657074154,0.3069387849241382,0.1166258757148212
2.9663352966308594,-0.01075926423072815,0.020677492022514343,0.00962376594543457,0.0030419682152569294,-0.0966045930981636,-0.06254098564386368,-0.10234962415955004,0.3060952460178692,0.11609106019944093
2.976260185241699,-0.005061596632003784,0.033714085817337036,0.002123117446899414,0.0375017412006855,-0.10572432726621628,-0.06439603865146637,-0.10252806169984756,0.3050972889034304,0.11542382124508237
2.9862160682678223,0.0011248886585235596,0.04107370972633362,-0.0006609559059143066,0.05219440162181854,-0.1102258637547493,-0.06543733179569244,-0.10252316439997411,0.3039967332925901,0.11466953447667333
2.9962902069091797,0.0020340681076049805,0.03973544389009476,-0.0007546544075012207,0.041180118918418884,-0.10451165586709976,-0.07489059865474701,-0.10261066548914516,0.3028971593252186,0.11385648222765793
3.006309986114502,-0.002973407506942749,0.028907224535942078,0.0036566853523254395,0.019711310043931007,-0.09293835610151291,-0.08225157856941223,-0.10291190327907061,0.30186510603768635,0.11300690144376042
3.0162272453308105,-0.006401747465133667,0.013100482523441315,0.008328080177307129,0.005542776547372341,-0.09063174575567245,-0.08767206966876984,-0.10332472575761395,0.30089332155058474,0.11214881834971109
3.0261521339416504,-0.006657600402832031,0.010547459125518799,0.006624341011047363,0.004538498818874359,-0.09698151797056198,-0.09147186577320099,-0.1037284195311786,0.29985866101382336,0.11127400252627297
3.036515235900879,-0.0011573433876037598,0.012668497860431671,0.006508588790893555,-0.0001575034111738205,-0.10713193565607071,-0.09888093173503876,-0.10414257659751415,0.2987085747058056,0.11034330122243965
3.046586036682129,0.004513353109359741,0.010953575372695923,0.010838210582733154,-0.012543332763016224,-0.10663019865751266,-0.09983222186565399,-0.10468553292497156,0.29754418992565085,0.10940085204577028
3.0562500953674316,0.007252365350723267,0.008645214140415192,0.015475690364837646,-0.030056729912757874,-0.10045907646417618,-0.09880642592906952,-0.10547235164409001,0.2964382816485402,0.10851501252568414
3.066230297088623,0.003164738416671753,0.004956074059009552,0.015681028366088867,-0.03926274552941322,-0.09571332484483719,-0.09671077877283096,-0.10645090997361555,0.29544148709285367,0.10768557192309867
3.0763680934906006,0.0010357499122619629,-0.00020969659090042114,0.015402555465698242,-0.03862716630101204,-0.08802872896194458,-0.08904667943716049,-0.10741074716396778,0.29453491804060933,0.10691502612560597
3.08630108833313,-0.0010446012020111084,0.0009441524744033813,0.014766454696655273,-0.036843910813331604,-0.08500710129737854,-0.08770205080509186,-0.10824538262982386,0.2936375898045117,0.106184723724729
3.0964221954345703,-0.004357367753982544,0.007523074746131897,0.013393998146057129,-0.03792880102992058,-0.071868896484375,-0.08888028562068939,-0.10894903950119178,0.2927965831614111,0.1054404961758148
3.106379985809326,-0.004475593566894531,0.002463884651660919,0.012704551219940186,-0.03955306112766266,-0.0627150759100914,-0.08820517361164093,-0.10963305152160384,0.29207776034546296,0.10470938691877547
3.1164193153381348,-0.006747633218765259,0.00023336708545684814,0.01379251480102539,-0.040595974773168564,-0.05616285279393196,-0.09468486160039902,-0.11035731928441003,0.29147505929276346,0.10395092533214474
3.1264352798461914,-0.007632225751876831,0.0018585175275802612,0.015982985496520996,-0.02847166545689106,-0.051675960421562195,-0.09310267865657806,-0.11102507966760229,0.2909839830256069,0.10314886502324991
3.1369762420654297,-0.004464238882064819,-0.0010193884372711182,0.016842782497406006,-0.018494948744773865,-0.04849512502551079,-0.08893067389726639,-0.11154105001045886,0.2905585972869521,0.10236016909698409
3.146421194076538,-0.0015863776206970215,0.0008735954761505127,0.01118236780166626,-0.004201763309538364,-0.0477430485188961,-0.08629387617111206,-0.11190866637731961,0.29009653846454264,0.10156439231667246
3.156893253326416,0.0012040138244628906,0.004682809114456177,0.006408810615539551,0.008126175962388515,-0.04111781343817711,-0.08020226657390594,-0.11209844744015435,0.28964027880927407,0.10076330175304288
3.1663460731506348,0.0019088983535766602,0.001305893063545227,0.006597399711608887,0.012996830977499485,-0.042111173272132874,-0.06904788315296173,-0.11219533336723572,0.2892077963664255,0.10002680602734905
3.1764631271362305,0.0017616748809814453,-0.0032810643315315247,0.007041871547698975,0.0120516587048769,-0.04287980496883392,-0.0625501424074173,-0.11231219344097959,0.28872547988253455,0.09934865446060155
3.1868929862976074,0.005088746547698975,-0.004383616149425507,0.006186425685882568,0.013687106780707836,-0.03824697062373161,-0.050684165209531784,-0.11236221450924601,0.2882780167711633,0.09875743426265411
3.1965413093566895,0.008379101753234863,-0.005777716636657715,0.005532503128051758,0.011441245675086975,-0.04022112488746643,-0.039054617285728455,-0.11236779954475012,0.2878355904318143,0.0982828309954256
3.207090139389038,0.010180234909057617,-0.004600681364536285,0.0035347938537597656,0.009921113029122353,-0.04100808873772621,-0.032941870391368866,-0.11239638109611144,0.28738750597739815,0.0979074278004155
3.21677303314209,0.014960765838623047,-0.008150674402713776,0.004870116710662842,0.009281405247747898,-0.04963970556855202,-0.02088823914527893,-0.11237569755046996,0.2869337877844927,0.09761566716171632
3.226609230041504,0.015898287296295166,-0.010733939707279205,0.00871264934539795,-0.0005810792790725827,-0.0506272055208683,-0.011936557479202747,-0.11239560675931175,0.28644709080555314,0.09744566683226263
3.2366299629211426,0.014800578355789185,-0.008461877703666687,0.010112106800079346,-0.009669948369264603,-0.05243993178009987,-0.004005396738648415,-0.11250460643479428,0.28598555874475834,0.0973948155812239
3.246683120727539,0.017118394374847412,-0.008525930345058441,0.009033143520355225,-0.020090632140636444,-0.052537668496370316,0.0011749838013201952,-0.11266120531021634,0.28552819848030453,0.09744002269245411
3.256683111190796,0.016796857118606567,-0.006508424878120422,0.0075814127922058105,-0.03149844706058502,-0.051819056272506714,0.00942337978631258,-0.11287282332546675,0.28507230801244854,0.09757773752017362
3.266674041748047,0.017737627029418945,-0.005206450819969177,0.0043547749519348145,-0.035429541021585464,-0.05293998122215271,0.018334316089749336,-0.11312888053980885,0.28467029811834654,0.09781726080284087
3.27675199508667,0.01390308141708374,-0.0005943253636360168,0.005805373191833496,-0.03701239079236984,-0.05102215334773064,0.023452486842870712,-0.11337059691912159,0.28429914928271083,0.09814504007399982
3.2866721153259277,0.010150492191314697,0.0032884329557418823,0.010786235332489014,-0.034024324268102646,-0.04748627170920372,0.028473876416683197,-0.11359389243999303,0.2839694847940112,0.09851434436544854
3.2967352867126465,0.006757259368896484,0.0031909793615341187,0.015492677688598633,-0.030499029904603958,-0.04285556823015213,0.02678021229803562,-0.11373804642637082,0.28372436399878165,0.09888830598211906
3.306734085083008,0.0024263858795166016,0.00572320818901062,0.02019411325454712,-0.04138922691345215,-0.036441344767808914,0.017610682174563408,-0.11392308028606823,0.2835358177286287,0.09921793592737403
3.316728115081787,-0.003371119499206543,0.003852538764476776,0.027366816997528076,-0.05159439519047737,-0.01999099925160408,0.01030760258436203,-0.11427012278428181,0.28345052063339216,0.09950104244605948
3.3268332481384277,-0.0029337406158447266,-0.003419749438762665,0.026806890964508057,-0.05593614652752876,-0.016577627509832382,0.006894495338201523,-0.1146939895742485,0.2834860868123,0.09976596244030882
3.3370211124420166,-0.0019316375255584717,-0.0004407241940498352,0.025757133960723877,-0.0574897862970829,-0.016109753400087357,0.0007925007957965136,-0.11516658039379106,0.2835072331375318,0.09999034420251843
3.3473010063171387,-0.0031165480613708496,0.007458806037902832,0.025938868522644043,-0.054321687668561935,-0.010886762291193008,-0.0068651526235044,-0.11566268125861207,0.2835344496084191,0.10012503867366636
3.357318162918091,-0.003297150135040283,0.005435541272163391,0.02622842788696289,-0.05616654455661774,-0.0010751886293292046,-0.012452676892280579,-0.1161941498108227,0.2835978545439473,0.10020496979835067
3.3668181896209717,-0.008124232292175293,0.006281271576881409,0.023133277893066406,-0.05808987841010094,0.01119639165699482,-0.015627965331077576,-0.11678676442755923,0.28373565116366173,0.10023920630408599
3.3768463134765625,-0.016779273748397827,0.006341181695461273,0.01790684461593628,-0.04886443912982941,0.02236981689929962,-0.01882178708910942,-0.11737172467614128,0.2839672712128678,0.10023921898171832
3.3868160247802734,-0.0191267728805542,0.004462301731109619,0.012968003749847412,-0.02596364915370941,0.02886313572525978,-0.01610749214887619,-0.11780399957386502,0.2842677865462497,0.10018667233238121
3.3969831466674805,-0.014921218156814575,0.009301342070102692,0.006100177764892578,-0.008277864195406437,0.028222467750310898,-0.014553751796483994,-0.11801710199921406,0.2845695242286768,0.10007816738222937
3.40690016746521,-0.01212725043296814,0.01451924443244934,0.002433180809020996,-0.0011784094385802746,0.036374934017658234,-0.014854156412184238,-0.11807917439178742,0.28489019888269734,0.09994940368155802
3.416938304901123,-0.013169318437576294,0.01421348750591278,-0.00229567289352417,0.0011414701584726572,0.034826308488845825,-0.01862119697034359,-0.11812586041484528,0.28524877719239783,0.09979338096839169
3.4270241260528564,-0.01092424988746643,0.012167207896709442,-0.008289813995361328,-0.005776090547442436,0.034406863152980804,-0.032067496329545975,-0.11825040165533321,0.2855712513111835,0.09955728806171646
3.436826229095459,-0.011259853839874268,0.011223278939723969,-0.007812440395355225,-0.013304580934345722,0.035238564014434814,-0.034605491906404495,-0.11847875923335724,0.2858994581362378,0.09926146260804045
3.446719169616699,-0.01360967755317688,0.005744464695453644,-0.007423818111419678,-0.007945768535137177,0.024035179987549782,-0.03793737292289734,-0.11874091249055564,0.2861488830930541,0.09893922234224112
3.4567911624908447,-0.009653270244598389,0.006628796458244324,-0.010617315769195557,0.006390027701854706,0.002358646597713232,-0.041223447769880295,-0.11891063457896646,0.2861502201182728,0.09854266078220887
3.4668760299682617,-0.001953601837158203,0.014349408447742462,-0.011932671070098877,0.012266293168067932,-0.01093745045363903,-0.04487091302871704,-0.11897244054674959,0.2859184309198324,0.09808360983497325
3.4768800735473633,0.0010555684566497803,0.013233661651611328,-0.009337961673736572,0.005403476767241955,-0.018465543165802956,-0.0468590147793293,-0.11908187728448129,0.2855986045140063,0.09759725059188112
3.487065315246582,-0.0018126368522644043,0.010314814746379852,-0.008775055408477783,-0.01041676476597786,-0.015888135880231857,-0.04903614893555641,-0.1193629482442025,0.28527165838033836,0.09711825326383444
3.4970881938934326,-0.005097240209579468,0.0033265575766563416,-0.008577466011047363,-0.017972685396671295,-0.016663825139403343,-0.050133850425481796,-0.11974689649837193,0.2849530499022299,0.09667003271024673
3.5069680213928223,-0.005480468273162842,-0.0041384100914001465,-0.008133888244628906,-0.014784615486860275,-0.018355997279286385,-0.04354119300842285,-0.12011920553084533,0.28463172797407704,0.09625861325888344
3.516944169998169,-0.005202561616897583,-0.0002086833119392395,-0.008157312870025635,-0.006949263159185648,-0.025777870789170265,-0.03559325635433197,-0.12040295602859233,0.2842700416589316,0.0958956389888961
3.527170181274414,-0.002886861562728882,0.00362444669008255,-0.007178306579589844,-0.003218440804630518,-0.027888692915439606,-0.034365806728601456,-0.1205688242793251,0.283863404153632,0.09555650783164636
3.5370750427246094,-0.0024430453777313232,0.005325108766555786,-0.007224380970001221,-0.00716945668682456,-0.028764206916093826,-0.030214257538318634,-0.12073091698670084,0.28346751157706496,0.09525260088817733
3.5470643043518066,-0.0024609267711639404,0.005039237439632416,-0.006250560283660889,-0.010417714715003967,-0.032716069370508194,-0.03452537953853607,-0.12098814562404438,0.28309513095189304,0.09496490402422493
3.5570082664489746,-0.0058397650718688965,-0.00013958662748336792,0.0006892681121826172,-0.010825011879205704,-0.037607233971357346,-0.041232023388147354,-0.1212709687471729,0.2827119340500321,0.09463648828568547
3.567178249359131,-0.0073674023151397705,-0.0029259920120239258,0.010666370391845703,-0.0064947111532092094,-0.03696967288851738,-0.04648830369114876,-0.1215416576110312,0.282275155548195,0.09423072392897372
3.577132225036621,-0.013973921537399292,-0.0001327618956565857,0.01649606227874756,-0.003842186415567994,-0.0364924781024456,-0.054826073348522186,-0.1217406258782829,0.28180151291405586,0.09375226398302006
3.5872950553894043,-0.019120842218399048,-1.7859041690826416e-05,0.015175879001617432,0.002625566441565752,-0.026512816548347473,-0.05759469419717789,-0.12185546591667201,0.2813944427355968,0.0932089249278719
3.5971741676330566,-0.02108350396156311,0.002559259533882141,0.013616681098937988,0.006704231258481741,-0.013505670242011547,-0.058061759918928146,-0.12194932414265229,0.28108772983824987,0.09262668009962736
3.6072371006011963,-0.020335793495178223,0.0016995146870613098,0.00855344533920288,0.016961395740509033,-0.0015249080024659634,-0.051547400653362274,-0.12200072368142607,0.2809455034167936,0.09206083592418975
3.617241144180298,-0.020312637090682983,0.0003630593419075012,0.006719768047332764,0.03860027715563774,0.005925196688622236,-0.05050748959183693,-0.12190212843872356,0.2808857372851879,0.09149235720386582
3.6273422241210938,-0.016044586896896362,0.006601303815841675,0.0033568143844604492,0.054511599242687225,0.008631234988570213,-0.050354357808828354,-0.1216126708997502,0.2808641624730519,0.09086812170184551
3.6394431591033936,-0.011822491884231567,0.007301256060600281,0.004674017429351807,0.05866040661931038,0.010275025852024555,-0.05200381577014923,-0.12119959989737107,0.2808544199863041,0.09020710019771147
3.64737606048584,-0.011136859655380249,0.004939272999763489,0.007113635540008545,0.05204910784959793,0.011220181360840797,-0.05836743861436844,-0.12081217071019863,0.28085789416043144,0.08951480164186724
3.6572670936584473,-0.01176607608795166,0.001722000539302826,0.006378293037414551,0.04292402043938637,0.018330644816160202,-0.059486232697963715,-0.12054852056936936,0.2808684711125332,0.08879508898153081
3.6672000885009766,-0.012490302324295044,-0.0026116445660591125,0.006839334964752197,0.039057109504938126,0.023527802899479866,-0.05861617997288704,-0.12034885308597153,0.28088488355511587,0.08809874857038154
3.6782002449035645,-0.013984322547912598,-0.006767876446247101,0.0026908516883850098,0.05528053641319275,0.021901721134781837,-0.05106712877750397,-0.12010881636025537,0.28092307038406655,0.08741660719430412
3.689413070678711,-0.00930437445640564,-0.006506562232971191,-0.0013110637664794922,0.06833136081695557,0.01291887927800417,-0.04134951904416084,-0.1196765513305899,0.28089677094526516,0.08678376204205121
3.698704242706299,-0.0030117034912109375,-0.0011039376258850098,-0.00439000129699707,0.07019219547510147,0.0025935822632163763,-0.03713112697005272,-0.11913765241479664,0.28077584589052,0.08619943872003413
