timestamp,accel_x,accel_y,accel_z,rotation_x,rotation_y,rotation_z, pitch,roll,yaw
0.04239988327026367,0.005199432373046875,-0.0005774646997451782,0.009268701076507568,0.0244339257478714,-0.004098675679415464,0.010168159380555153,-0.14671786285545313,0.18290775401935874,0.013479432587634609
0.056668758392333984,0.005073294043540955,0.0007355660200119019,0.00868535041809082,0.022666119039058685,-0.00884229689836502,0.01075565256178379,-0.14645485888537585,0.18296750384138966,0.013552983952385037
0.05819368362426758,0.006237775087356567,0.0011648386716842651,0.012990415096282959,0.01830679178237915,-0.00614957557991147,0.012629453092813492,-0.14626773781209887,0.18302020140384315,0.013644753418610319
0.06674981117248535,0.00539630651473999,0.0009178519248962402,0.01595902442932129,0.012038775719702244,-0.006441724020987749,0.00933645386248827,-0.14613179884819408,0.18308152496652633,0.013749240926852422
0.07394289970397949,0.005309849977493286,0.00309579074382782,0.015915513038635254,0.01379220001399517,-0.004573517013341188,0.005674607586115599,-0.14598167669749798,0.18310356919657775,0.013806284613521722
0.08351683616638184,0.008203506469726562,0.00222603976726532,0.016135096549987793,0.016448354348540306,-0.006155745591968298,0.00589330680668354,-0.1458120316445616,0.18312030685144537,0.013833902861952643
0.09389781951904297,0.007706984877586365,0.005591720342636108,0.015840113162994385,0.013973744586110115,-0.009287890046834946,0.0038171063642948866,-0.14564896005663586,0.18310864455492185,0.013872843699438227
0.10365581512451172,0.006213486194610596,0.008602812886238098,0.019176125526428223,0.0016156125348061323,0.0011892528273165226,0.0007701835129410028,-0.14556669799511524,0.1831202001392706,0.013889657600455659
0.11382770538330078,0.003971487283706665,0.003048449754714966,0.019149720668792725,-0.008002392947673798,0.010135343298316002,-0.0041137877851724625,-0.1456131241221041,0.1832301731928806,0.01388553401735281
0.12376070022583008,0.0008057951927185059,0.00026579201221466064,0.02024775743484497,-0.007902208715677261,0.012667255476117134,-0.0034334566444158554,-0.14572670342635263,0.18339742588601288,0.013875175910604094
0.13387489318847656,0.0019003450870513916,0.0023755133152008057,0.021461844444274902,-0.010944072157144547,0.017053481191396713,-0.003755698911845684,-0.14584602677866898,0.18359310780472646,0.013853939439836241
0.1437978744506836,0.0029217004776000977,0.00473397970199585,0.02440357208251953,-0.01369946077466011,0.022369373589754105,-0.005521055310964584,-0.14599154547243107,0.1838333914506812,0.01383467433426297
0.1540369987487793,0.0008054822683334351,0.0012505948543548584,0.026173770427703857,-0.021261505782604218,0.037233807146549225,-0.005537833087146282,-0.14621190415100402,0.18416398240509688,0.01382142220764351
0.16394376754760742,-0.00319787859916687,-0.0020888447761535645,0.02880394458770752,-0.027077019214630127,0.04301952198147774,-0.004480238538235426,-0.1464718442548864,0.18460046647724349,0.013826412377226574
0.17406797409057617,-0.006809145212173462,-0.0028708577156066895,0.028780698776245117,-0.028262125328183174,0.05773348733782768,-0.002282331697642803,-0.1467841688826548,0.1851530815272513,0.013836249860592694
0.1840498447418213,-0.006364405155181885,-0.0015197992324829102,0.029794514179229736,-0.028809336945414543,0.06398686021566391,-0.004945918917655945,-0.14709972342237282,0.18578730282398337,0.01386070002359567
0.1941089630126953,-0.008131846785545349,-0.0015653520822525024,0.02762705087661743,-0.032425910234451294,0.06570592522621155,-0.007612808141857386,-0.14742344347597724,0.1864529821917687,0.013858225810004862
0.20409679412841797,-0.009105846285820007,-0.004979252815246582,0.031228303909301758,-0.039874058216810226,0.07567134499549866,-0.011912215501070023,-0.1478204300358379,0.18713658300671934,0.013822345550579327
0.21396398544311523,-0.008622750639915466,-0.006970301270484924,0.03062117099761963,-0.057650126516819,0.08909713476896286,-0.006278298329561949,-0.14835245713683892,0.18794213157057962,0.013829220803220393
0.2238168716430664,-0.00822429358959198,-0.004614293575286865,0.02181452512741089,-0.05242450535297394,0.10071597993373871,-0.0010031621204689145,-0.14893252475814434,0.18889933332450087,0.013896100598361025
0.23397493362426758,-0.002076476812362671,-0.0007319152355194092,0.009647905826568604,-0.029519984498620033,0.10097111016511917,0.0038906624540686607,-0.14934242660182986,0.189918173157766,0.013980959537687718
0.24407672882080078,0.006978809833526611,0.00646170973777771,0.004241287708282471,-0.007147618569433689,0.09177206456661224,0.006658379454165697,-0.14948991708833614,0.19088972894579426,0.014078742762917512
0.2538938522338867,0.012186750769615173,0.015972137451171875,0.0025444626808166504,0.0014099166728556156,0.07879634201526642,0.003296405076980591,-0.14947023877632123,0.19173306552522026,0.014126724535235795
0.2639498710632324,0.015019446611404419,0.012053564190864563,0.004010498523712158,-0.0031785101164132357,0.0787433385848999,-0.007512141019105911,-0.14948270224451482,0.19252503796848305,0.014102141637884844
0.27399301528930664,0.016800180077552795,0.0017831474542617798,0.00240933895111084,-0.011298221535980701,0.07391077280044556,-0.018132295459508896,-0.14959198782564634,0.19324045478796317,0.013984187245251349
0.28392601013183594,0.016174480319023132,0.0007995963096618652,0.0031385421752929688,-0.018620532006025314,0.06189915910363197,-0.02040141448378563,-0.1497688026005387,0.19384333028599243,0.013816462751738265
0.2946138381958008,0.01657971739768982,0.005345866084098816,-0.0024709701538085938,-0.01233999989926815,0.0600072517991066,-0.024271786212921143,-0.14995482948115132,0.19439053389599342,0.013615763428736691
0.30407285690307617,0.016679823398590088,0.007029518485069275,-0.006933987140655518,-0.009518581442534924,0.05252651870250702,-0.0267971009016037,-0.15010391542407872,0.1948737587957315,0.013378615448684362
0.3141818046569824,0.013707831501960754,0.004746109247207642,-0.01017838716506958,-0.006686042994260788,0.04485368728637695,-0.026252752169966698,-0.15023732785097724,0.1952988956309364,0.013121975474538382
0.32413673400878906,0.016788959503173828,0.005446702241897583,-0.010924160480499268,-0.008713407441973686,0.040327731519937515,-0.026630334556102753,-0.15040841674401922,0.1957142590515357,0.012881198075250195
0.334169864654541,0.0150785893201828,0.0011676102876663208,-0.007862746715545654,-0.008563471958041191,0.03494948148727417,-0.025384776294231415,-0.15064663002387077,0.19611622474909832,0.012641188389530647
0.34461379051208496,0.010650426149368286,-0.004902735352516174,-0.00484013557434082,-0.009344826452434063,0.028370007872581482,-0.024849053472280502,-0.15087544806151584,0.19648828845718225,0.012418658877917904
0.3540639877319336,0.011417359113693237,-0.005575239658355713,-0.004144072532653809,-0.009023116901516914,0.02366100624203682,-0.018724050372838974,-0.15100005453016418,0.19681842625670265,0.012231390770451727
0.36418867111206055,0.009246349334716797,-0.005166158080101013,-0.0011490583419799805,-0.010898514650762081,0.01808505691587925,-0.017369884997606277,-0.1511264708275809,0.197094218303545,0.012080618558810149
0.37433385848999023,0.004944846034049988,-0.007889226078987122,0.005208373069763184,-0.014279398135840893,0.024845223873853683,-0.016769075766205788,-0.15130334655321437,0.19738140755613096,0.011942093586757135
0.3843116760253906,0.0017711669206619263,-0.0128861665725708,0.009236931800842285,-0.008061482571065426,0.02642510086297989,-0.010613977909088135,-0.15148052140688487,0.19771721569702919,0.0118319923172183
0.39470672607421875,-0.0011288374662399292,-0.010332837700843811,0.008919596672058105,0.003987457137554884,0.03262653574347496,-0.007387824356555939,-0.151537104893493,0.19805042095848185,0.011747176950825182
0.40432167053222656,0.002087429165840149,-0.004734739661216736,0.00706559419631958,0.01429597195237875,0.03494095802307129,0.004249177407473326,-0.15146180596114717,0.1984608849127822,0.011724270425739829
0.41443300247192383,0.004761248826980591,0.0005091279745101929,0.001883387565612793,0.02094108983874321,0.03598997741937637,0.00680288253352046,-0.15126637492630496,0.1988921117630956,0.011762254269739075
0.4242076873779297,0.007654964923858643,0.0035588741302490234,-1.7285346984863281e-06,0.023346126079559326,0.036644935607910156,0.005143680144101381,-0.1509905924036034,0.1992986601985245,0.011790703805035309
0.4349498748779297,0.008803531527519226,-0.0024724751710891724,0.0029057860374450684,0.020388951525092125,0.03189492225646973,0.0040200925432145596,-0.15071695005574184,0.19969537113720168,0.011802353323593764
0.4442319869995117,0.008458629250526428,-0.002887636423110962,0.006121695041656494,0.015403729863464832,0.027771063148975372,-0.00199636141769588,-0.1505040923244867,0.2000290077868839,0.011790017065300957
0.45432090759277344,0.00925154983997345,-0.000177726149559021,0.007049858570098877,0.006384668871760368,0.024790985509753227,-0.0033630956895649433,-0.15035598567263214,0.20030846066912963,0.011746408459677565
0.46433591842651367,0.008317545056343079,-9.132921695709229e-05,0.0059784650802612305,-0.0007571806199848652,0.02306157350540161,-0.00615701824426651,-0.15026860486779897,0.20054531907833967,0.011695345148096288
0.47431468963623047,0.007074981927871704,-0.0005164295434951782,0.007556915283203125,-0.0024448258336633444,0.02251695655286312,-0.007829749956727028,-0.1502509832431454,0.20075629899783115,0.011621517719542783
0.4843318462371826,0.0056966692209243774,-0.0023092031478881836,0.01062709093093872,0.003967633470892906,0.019612779840826988,-0.009275420568883419,-0.15025858919746182,0.2009664786896668,0.01154210371575701
0.4947047233581543,0.005577147006988525,-0.002725571393966675,0.01576632261276245,0.010418608784675598,0.020563527941703796,-0.007296957541257143,-0.1502167106940806,0.2011673121171128,0.011442590488525422
0.5043458938598633,0.005767762660980225,-0.0002292543649673462,0.01820826530456543,0.005487366113811731,0.026533003896474838,-0.006003406830132008,-0.15017659857455484,0.20142606677504912,0.011364164926599482
0.5143656730651855,0.002412065863609314,0.0012319087982177734,0.021816730499267578,0.004169367719441652,0.04280944541096687,-0.0057496074587106705,-0.1501186009214857,0.20181678540568224,0.0112913364159538
0.52439284324646,-0.0007281899452209473,-0.005846545100212097,0.025785386562347412,-0.00048632058314979076,0.054232142865657806,-0.002551737241446972,-0.1501169592852955,0.20234918972195073,0.011260118671611648
0.5343499183654785,-0.0027162879705429077,-0.00728277862071991,0.02839827537536621,-0.005408907309174538,0.06360673159360886,-0.0015447959303855896,-0.15016519725333785,0.2029854910109662,0.011261697189341578
0.5447049140930176,-0.0015702992677688599,-0.0023173391819000244,0.034118473529815674,-0.011598693206906319,0.06966604292392731,-0.00020527909509837627,-0.15025138487167178,0.20369562704993108,0.011281663281714744
0.5544676780700684,6.86943531036377e-05,-0.00468173623085022,0.03643769025802612,-0.022006060928106308,0.08447348326444626,-0.0012700108345597982,-0.15040497667295355,0.20449768168635654,0.011317304366713687
0.5644488334655762,-0.0007161796092987061,-0.0059883445501327515,0.04106295108795166,-0.033576495945453644,0.09574088454246521,-0.007719974033534527,-0.15067707404982286,0.20542742099074035,0.01133893507034464
0.5744988918304443,-0.003956437110900879,-0.007072806358337402,0.04399067163467407,-0.04240727424621582,0.1019178181886673,-0.015580826438963413,-0.15106403197395596,0.20643863862675582,0.011311625785095937
0.5845327377319336,-0.005472064018249512,-0.007904037833213806,0.04791325330734253,-0.05675501748919487,0.12186196446418762,-0.02262723073363304,-0.15159616275159318,0.20754909790527107,0.011218385252926058
0.5947108268737793,-0.005927622318267822,-0.00735802948474884,0.05357491970062256,-0.057571809738874435,0.14901502430438995,-0.0253260787576437,-0.15223240657448173,0.20887691726431187,0.011094674073421242
0.604456901550293,-0.009963437914848328,-0.005042612552642822,0.05029696226119995,-0.03916407376527786,0.17513227462768555,-0.014556095004081726,-0.15274582883161072,0.21049561110593162,0.010988224974135798
0.6145577430725098,-0.010620787739753723,0.0034749209880828857,0.03688734769821167,-0.0010595659259706736,0.18438489735126495,-0.004779098555445671,-0.1529742343536585,0.21230453091683404,0.010951890484124188
0.6244008541107178,0.0020957589149475098,0.01944844424724579,0.019805908203125,0.032163385301828384,0.17260916531085968,-0.00592724047601223,-0.15280686855475714,0.21406195399981137,0.010865657773943861
0.6345047950744629,0.009119674563407898,0.020920291543006897,0.02147763967514038,0.027588872238993645,0.17527924478054047,-0.015249103307723999,-0.15250645067707386,0.21575343086756282,0.010692313672123926
0.6447808742523193,0.006829559803009033,0.009603500366210938,0.025887727737426758,0.009030369110405445,0.18017147481441498,-0.020020421594381332,-0.15236222249244746,0.2175045066661346,0.01047681781991564
0.6544878482818604,0.0017173290252685547,-0.001537218689918518,0.019830405712127686,-0.005640186369419098,0.17868755757808685,-0.022509412840008736,-0.15239492725808917,0.21926145135974778,0.010256981019967257
0.6645426750183105,0.00719963014125824,-0.0025930255651474,0.007608532905578613,-0.0019867122173309326,0.18044662475585938,-0.016462918370962143,-0.15249054227647482,0.22103197513018583,0.010074692862382382
0.6744987964630127,0.011033549904823303,0.003420621156692505,-0.0008020997047424316,0.013229258358478546,0.16979530453681946,-0.010433788411319256,-0.15245794955012165,0.22275175026869265,0.009930735611904133
0.6845278739929199,0.011126860976219177,0.0025279968976974487,-0.004257082939147949,0.030887365341186523,0.16402694582939148,-0.0011024981504306197,-0.15226497335512573,0.22437384605901875,0.009808055819463587
0.6945667266845703,0.012532860040664673,0.008451923727989197,-0.008989334106445312,0.05053430050611496,0.15765480697155,0.01155657134950161,-0.1518754868932775,0.22595740954356877,0.009762822005104482
0.7045338153839111,0.014785781502723694,0.009851589798927307,-0.019114315509796143,0.06430064886808395,0.14284390211105347,0.014604453928768635,-0.15133942903827485,0.22744902241928375,0.009756005336018576
0.7146239280700684,0.02061574161052704,0.00945417582988739,-0.029445946216583252,0.06809299439191818,0.1262420266866684,0.020406946539878845,-0.15073817104780282,0.22880513948799472,0.009779441929328236
0.7246499061584473,0.022561222314834595,0.01174117624759674,-0.03256875276565552,0.0502326674759388,0.10566102713346481,0.014617448672652245,-0.15016899279541698,0.229965717939131,0.009830753082638203
0.7346339225769043,0.02026902139186859,0.007100418210029602,-0.029095053672790527,0.028780637308955193,0.08830919861793518,0.0031746448948979378,-0.14976986473076748,0.23092198427930627,0.009818777872376937
0.7447128295898438,0.016352877020835876,-0.00264662504196167,-0.023188233375549316,-0.0007620409596711397,0.07600965350866318,-0.006614815443754196,-0.14964304109812138,0.2317362820787124,0.009764055688515716
0.7546257972717285,0.01672542095184326,-0.004099398851394653,-0.024917662143707275,-0.015667486935853958,0.05899684876203537,-0.008280889131128788,-0.1497697329146682,0.23241605952756247,0.009713462977973625
0.7647268772125244,0.017427310347557068,0.002586573362350464,-0.029493510723114014,-0.0214884914457798,0.0435355119407177,-0.011190232820808887,-0.14999855811682355,0.23293175465024651,0.009660119101963235
0.7747306823730469,0.017273858189582825,0.002396225929260254,-0.03278630971908569,-0.013389552012085915,0.027813006192445755,-0.01202087290585041,-0.1502527792972281,0.23329071949727528,0.009586652104830307
0.7847228050231934,0.016485512256622314,0.004505634307861328,-0.03295588493347168,0.0038978252559900284,0.0018004926387220621,-0.009758571162819862,-0.15035709211678724,0.2334319412310591,0.009501088022992824
0.7948737144470215,0.016468405723571777,0.00878193974494934,-0.03185760974884033,0.01817157119512558,-0.02009841427206993,-0.0068804919719696045,-0.15027603183278493,0.23335163462709563,0.009389517358410968
0.8047447204589844,0.014870703220367432,0.008894339203834534,-0.028162360191345215,0.013348335400223732,-0.032658547163009644,-0.007673688232898712,-0.15014692405484095,0.23308854236782287,0.009287375131383066
0.8148627281188965,0.009003996849060059,0.005692571401596069,-0.022357285022735596,-0.0023573909420520067,-0.03563995659351349,-0.0064534274861216545,-0.1501134464197765,0.2327460469893315,0.009212735917810121
0.8247179985046387,0.0036886483430862427,-0.003932103514671326,-0.01463162899017334,-0.006951310206204653,-0.03291243687272072,-0.00755384610965848,-0.1501715190613,0.23242055130590278,0.009153302395753798
0.8347837924957275,-0.0005805343389511108,-0.009096935391426086,-0.008639335632324219,-0.001907283323816955,-0.03837670758366585,-0.006330922245979309,-0.15022526307860504,0.2320702003361515,0.009106965362694565
0.8448576927185059,-0.003853127360343933,-0.0034439563751220703,-4.83393669128418e-05,0.007451430894434452,-0.040322236716747284,-0.0040293121710419655,-0.15020252567043324,0.23168045710538282,0.00905288303869578
0.8548808097839355,-0.0030880868434906006,-0.00016194581985473633,0.004780769348144531,0.01751711405813694,-0.03513599932193756,0.0005912723718211055,-0.15007765322379868,0.23132499936700476,0.009014100617574109
0.865729808807373,-0.002248987555503845,-0.0009565651416778564,0.005160152912139893,0.023123186081647873,-0.0329124815762043,0.004070958122611046,-0.14986279680318754,0.23100043799430928,0.008995062257993403
0.874802827835083,-0.002020403742790222,-0.004104360938072205,0.007108151912689209,0.027222853153944016,-0.03166558966040611,0.0066520944237709045,-0.14962041844779783,0.23070679610613054,0.00898971283107965
0.8849086761474609,-0.00031037628650665283,-0.0026217103004455566,0.011761605739593506,0.032980792224407196,-0.033347420394420624,0.006382369436323643,-0.14932467718775033,0.2304258253570354,0.009002679935375157
0.8950109481811523,0.003888562321662903,0.0005997568368911743,0.012168645858764648,0.03620987385511398,-0.028975041583180428,0.004853714723140001,-0.1489833159241995,0.23012565043988872,0.008979378955022647
0.9048547744750977,0.005639612674713135,0.00024552643299102783,0.014882981777191162,0.04560345783829689,-0.027981901541352272,0.01201010774821043,-0.14853918745384398,0.22987621262070293,0.008970380412765488
0.9150288105010986,0.006168276071548462,0.0037834495306015015,0.012057960033416748,0.04986398294568062,-0.03165307268500328,0.011628210544586182,-0.14798592377907174,0.2295614424474617,0.008981478731982871
0.9249558448791504,0.010954558849334717,0.009715333580970764,0.011217296123504639,0.05133393406867981,-0.03457265347242355,0.012473284266889095,-0.14744981667878312,0.22923114868601543,0.00897273300393296
0.9349117279052734,0.009960144758224487,0.007504642009735107,0.01501530408859253,0.036688677966594696,-0.02811155840754509,0.003887520171701908,-0.1470160363923404,0.22890204339960263,0.008951302174455557
0.9449687004089355,0.007066637277603149,0.0015896856784820557,0.020531773567199707,0.017069203779101372,-0.026007570326328278,-0.0035070660524070263,-0.14676372949013344,0.22861824943452808,0.008895193943213609
0.9549117088317871,0.005741596221923828,-0.0034532397985458374,0.023782789707183838,-0.003120486391708255,-0.02024688571691513,-0.006554521154612303,-0.14670964219037344,0.2283762801412325,0.008829281249879669
0.9655909538269043,0.004986867308616638,-0.004975110292434692,0.02468252182006836,-0.009981954470276833,-0.009570272639393806,-0.011183361522853374,-0.14681355358232304,0.22824463070517828,0.00875978700884618
0.9749627113342285,0.0027980059385299683,-0.0059339553117752075,0.0264737606048584,0.006539231166243553,-0.0012295190244913101,-0.007028031628578901,-0.14688818928435984,0.22823848749333026,0.008680149021966276
0.9849798679351807,0.0038805902004241943,-0.0017400234937667847,0.026080846786499023,0.02592596225440502,0.0066897012293338776,-0.001310970401391387,-0.146767058368885,0.22829847893477634,0.008612818079353836
0.994938850402832,0.006354227662086487,0.0038411766290664673,0.023991703987121582,0.04242424666881561,0.011495642364025116,0.007597303483635187,-0.14644670818199357,0.2284282401064957,0.008574010611982319
1.004931926727295,0.008164197206497192,0.005086198449134827,0.021102845668792725,0.04887039214372635,0.02342420630156994,0.010740046389400959,-0.14603653603062622,0.22864191842589954,0.008556449330220643
1.0150477886199951,0.00718630850315094,8.156895637512207e-05,0.020783424377441406,0.05785989388823509,0.02715369686484337,0.01626371033489704,-0.14552733361191675,0.22895842133745561,0.008570728276084063
1.024958848953247,0.007220134139060974,-0.004568189382553101,0.022906184196472168,0.07040376961231232,0.028944185003638268,0.014682856388390064,-0.14489085113435127,0.22928164490120975,0.008577904672544155
1.0350708961486816,0.00953492522239685,-0.0018880516290664673,0.02320873737335205,0.07709096372127533,0.023170718923211098,0.018034445121884346,-0.14410993127673893,0.229576505577629,0.00857189270902265
1.0451107025146484,0.010684669017791748,0.001414969563484192,0.022368431091308594,0.062287379056215286,0.02257603406906128,0.01690867356956005,-0.14337809557211417,0.22983121294635528,0.008575396032581586
1.055034875869751,0.010816633701324463,-0.005555704236030579,0.021214008331298828,0.01928691752254963,0.020309416577219963,0.009498693980276585,-0.14294379533473253,0.2300754345670506,0.00861595046962251
1.0651228427886963,0.008797839283943176,-0.01674206554889679,0.02708733081817627,-0.0367371030151844,0.004176342859864235,-0.007453604601323605,-0.14303799361464237,0.23022594514584638,0.008645684674673823
1.0751090049743652,0.00819443166255951,-0.027805253863334656,0.03509235382080078,-0.07505333423614502,0.01100175827741623,-0.014478490687906742,-0.14367066217035,0.2303351444244909,0.008660239485328234
1.0851497650146484,0.009763270616531372,-0.034498125314712524,0.0367206335067749,-0.06833737343549728,-0.014626195654273033,-0.00897272489964962,-0.14442037121634224,0.23036357155411596,0.008717067189681498
1.0952868461608887,0.011062756180763245,-0.02014559507369995,0.02836817502975464,-0.061064545065164566,-0.06430746614933014,-0.00933651253581047,-0.14507407282338486,0.23005073236569046,0.008774182999735201
1.1050267219543457,0.014982134103775024,-0.004619434475898743,0.031168043613433838,-0.12132734060287476,-0.11288490146398544,-0.026215948164463043,-0.14594505549522596,0.22913253711032333,0.008808201643255579
1.1155166625976562,0.01285812258720398,-0.02670109272003174,0.04741889238357544,-0.3080570101737976,-0.14118577539920807,-0.06457745283842087,-0.14802966612104085,0.2279405283342755,0.00885269477892125
1.1251749992370605,0.0015436261892318726,-0.06187383830547333,0.06238144636154175,-0.7267394661903381,-0.19565488398075104,-0.18100525438785553,-0.15317026479516155,0.22630720732485535,0.008860258546159221
1.1351168155670166,-0.014198347926139832,-0.1124257892370224,0.09769535064697266,-1.5335321426391602,-0.29124531149864197,-0.4039967954158783,-0.16454357945710582,0.22386547545053495,0.008504644530639443
1.1451377868652344,-0.02931562066078186,-0.2530808746814728,0.1426067352294922,-2.9203567504882812,-0.4244246780872345,-0.8325498700141907,-0.18720149269775943,0.21993952212946985,0.007358902640666261
1.1551179885864258,-0.049977660179138184,-0.41687530279159546,0.22123414278030396,-4.918811798095703,-0.6450409889221191,-1.2745182514190674,-0.22747143104420534,0.21433594974620476,0.005452664416428932
1.1652648448944092,-0.07043592631816864,-0.5686159729957581,0.3138921856880188,-7.316953659057617,-0.9491764307022095,-1.9395105838775635,-0.29055180538757847,0.20555771408609666,0.002498677334568253
1.1764698028564453,-0.07518981397151947,-0.7351438403129578,0.45007675886154175,-10.34958267211914,-1.2541794776916504,-2.678176164627075,-0.3812119465223824,0.19298184010379962,-0.003160651884229828
1.1865108013153076,-0.1177375465631485,-0.8415166139602661,0.6178163290023804,-13.547347068786621,-1.8149396181106567,-3.3668620586395264,-0.5041429495433531,0.1738899700301383,-0.012111677809070052
1.1957628726959229,-0.16244737803936005,-0.7934620976448059,0.7980383634567261,-17.349157333374023,-2.1046741008758545,-4.0115838050842285,-0.6626316495895843,0.14601049271240119,-0.026281012763828045
1.2053189277648926,-0.1464049220085144,-0.6899142265319824,0.9407250285148621,-21.114194869995117,-2.05306077003479,-4.252202987670898,-0.8590475303571246,0.10879390126432303,-0.049804771674332254
1.2153098583221436,-0.21311914920806885,-0.36985552310943604,0.9990208148956299,-24.183982849121094,-1.5931978225708008,-3.8848838806152344,-1.0895341481172554,0.057816485336551024,-0.0887776614076294
1.2269659042358398,-0.21278533339500427,0.09180223941802979,0.9647307991981506,-25.427425384521484,-0.9640061259269714,-3.5559074878692627,-1.3392921524857508,-0.05428728301074083,-0.19376829322011202
1.2352337837219238,-0.1257326900959015,0.5547664761543274,0.7473373413085938,-24.446693420410156,-0.5167982578277588,-3.855954647064209,-1.5171850228097017,-1.9580998822728002,-2.096408671010762
1.2452387809753418,-0.16081853210926056,1.0422625541687012,0.5451112985610962,-21.086200714111328,-0.955843985080719,-4.574986457824707,-1.3052134095023877,-2.7912658369382237,-2.928217903209585
1.2551980018615723,-0.2283208668231964,1.434845209121704,0.2608189582824707,-17.66132354736328,-2.024406909942627,-4.88868522644043,-1.1065967887671755,-2.8479397117259464,-2.972325395180079
1.2655019760131836,-0.06505870819091797,1.4230507612228394,-0.01983642578125,-14.851239204406738,-2.6807913780212402,-4.414247989654541,-0.9374387172150818,-2.8724113455665696,-2.9731320044251066
1.2776389122009277,0.18169018626213074,1.3881055116653442,-0.1714903712272644,-12.39527702331543,-2.985335350036621,-4.09820556640625,-0.7949642264223262,-2.8938068123533176,-2.9635461547276303
1.2854228019714355,0.0750352293252945,1.403108835220337,-0.3645181655883789,-10.047061920166016,-2.876676321029663,-3.8394055366516113,-0.6762239738502064,-2.9125246118712598,-2.947360588554067
1.2953758239746094,-0.03565646708011627,1.1725283861160278,-0.4407249689102173,-7.4825592041015625,-2.715275764465332,-3.5013980865478516,-0.5826454155664547,-2.9284036010164525,-2.9267619772224016
1.3055028915405273,-0.03823447227478027,0.8733049035072327,-0.47771716117858887,-5.0390400886535645,-2.553485870361328,-3.0724689960479736,-0.5146552585891333,-2.942847159950388,-2.9039946067414006
1.3155038356781006,-0.030261501669883728,0.7727627754211426,-0.4580446481704712,-3.237727165222168,-2.3566691875457764,-2.651461601257324,-0.46910814516279287,-2.956837033785824,-2.8810992564264795
1.3269157409667969,0.041636958718299866,0.6684513092041016,-0.34082281589508057,-2.2107717990875244,-1.9708868265151978,-2.322441339492798,-0.4384323849295398,-2.968926857586677,-2.8590765107988
1.3354458808898926,0.05830731987953186,0.3079652786254883,-0.09235572814941406,-1.9040429592132568,-1.5007233619689941,-1.9998712539672852,-0.414728868018251,-2.9781247668717428,-2.8394589501926117
1.3454217910766602,0.004236817359924316,0.02006012201309204,0.1324704885482788,-1.7318356037139893,-1.180778980255127,-1.7216813564300537,-0.3938521626808188,-2.9848391872956537,-2.822641702408208
1.3554248809814453,0.03378401696681976,-0.06763651967048645,0.2448977828025818,-1.436821699142456,-0.9559720158576965,-1.5072087049484253,-0.3757313371862409,-2.990038031702608,-2.8080556057813415
1.3654537200927734,0.06053026020526886,-0.10010063648223877,0.22884953022003174,-1.1700458526611328,-0.7838751673698425,-1.2914944887161255,-0.3606612115967286,-2.9941251991115707,-2.7952672306890936
1.37691068649292,0.05300407111644745,-0.08941936492919922,0.1955496072769165,-0.9639550447463989,-0.6562106609344482,-1.092903971672058,-0.3485392300360106,-2.9975344278574716,-2.784343723000309
1.3854379653930664,0.03826823830604553,-0.0920606255531311,0.16457927227020264,-0.8634524345397949,-0.5473400354385376,-0.9231457710266113,-0.3380241769048229,-3.00039432936934,-2.7751329086973304
1.395601749420166,0.031921401619911194,-0.162163645029068,0.13152122497558594,-0.7401022911071777,-0.5191389918327332,-0.7682105302810669,-0.3289530202599086,-3.0031514158859567,-2.767402083658239
1.4056038856506348,0.04860261082649231,-0.19538351893424988,0.12434923648834229,-0.722681999206543,-0.5157698392868042,-0.566547691822052,-0.32080735873731303,-3.006483505015258,-2.7614844272032824
1.4157068729400635,0.06242641061544418,-0.15608471632003784,0.12392473220825195,-0.5907993316650391,-0.4804251790046692,-0.4089375436306,-0.31355664479895123,-3.0102222076636465,-2.7573347304045503
1.4283766746520996,0.06133290380239487,-0.17493194341659546,0.10474538803100586,-0.44715753197669983,-0.43966931104660034,-0.3172999322414398,-0.3079021091880843,-3.013766621228332,-2.75407418699374
1.4357719421386719,0.04802485555410385,-0.17205539345741272,0.02988290786743164,-0.3124290108680725,-0.46652117371559143,-0.23790523409843445,-0.3038774449639409,-3.0176397191753166,-2.751806777720319
1.4455978870391846,0.046646587550640106,-0.17566701769828796,-0.01443636417388916,-0.16096970438957214,-0.5848314166069031,-0.21297018229961395,-0.30126696119138513,-3.0222376040949426,-2.7498068035419223
1.4558687210083008,0.04292362928390503,-0.16393837332725525,0.017700016498565674,-0.1459883600473404,-0.6774095296859741,-0.1726459264755249,-0.2995632777076464,-3.0280247706398336,-2.7479132443748338
1.465641975402832,0.06614917516708374,-0.12086221575737,0.050073862075805664,-0.20266416668891907,-0.6831327676773071,-0.10582007467746735,-0.29771069034557,-3.034527494698666,-2.746654722062418
1.4781007766723633,0.049190349876880646,-0.095892995595932,0.0124894380569458,-0.2759658098220825,-0.624867856502533,-0.009679420851171017,-0.295247552553474,-3.041029043303815,-2.7463244344928386
1.485588788986206,0.024956397712230682,-0.06440693140029907,-0.038144707679748535,-0.34995007514953613,-0.5157520174980164,0.05131485313177109,-0.29216330295602794,-3.046937961221653,-2.7469193242120253
1.4956328868865967,0.0035685524344444275,-0.03999784588813782,-0.07275116443634033,-0.3793644309043884,-0.4471668303012848,0.025712018832564354,-0.2885694413002702,-3.0519259507685748,-2.747659138681355
1.5056557655334473,-0.023624680936336517,-0.05927532911300659,-0.08242195844650269,-0.31155675649642944,-0.4454900324344635,-0.010095779784023762,-0.285059403941262,-3.0564743715781186,-2.748080909714847
1.515772819519043,-0.023926980793476105,-0.056263238191604614,-0.038300156593322754,-0.2511807680130005,-0.4418447017669678,-0.03887656331062317,-0.28225563728574166,-3.060925164460656,-2.7480598163396013
1.526883840560913,-0.0076209381222724915,-0.012285500764846802,-0.019589543342590332,-0.22657093405723572,-0.3831312954425812,-0.054196979850530624,-0.27983970471553216,-3.064968773918178,-2.7477456275005774
1.535691738128662,-0.030503563582897186,-0.001415342092514038,-0.05451422929763794,-0.1947842389345169,-0.33179807662963867,-0.054202571511268616,-0.2777067299513972,-3.0684625775253456,-2.7473640965877117
1.545684814453125,-0.05093526095151901,0.02266588807106018,-0.1001010537147522,-0.16742803156375885,-0.29884225130081177,-0.048751670867204666,-0.2758636528651515,-3.0714901440527336,-2.7469655150793963
1.5557336807250977,-0.06494997441768646,0.04409778118133545,-0.12186449766159058,-0.15759749710559845,-0.2992568910121918,-0.05262630060315132,-0.2742375942981086,-3.0743579651311346,-2.7465601746525095
1.565685749053955,-0.06704974174499512,0.047128140926361084,-0.12030029296875,-0.20102839171886444,-0.27244508266448975,-0.03277696296572685,-0.2724375549650729,-3.0771801857064776,-2.746222938036525
1.5774359703063965,-0.059941887855529785,0.05235198140144348,-0.09737849235534668,-0.2513056695461273,-0.18762074410915375,0.0020241595339030027,-0.2701196593669021,-3.079477380246606,-2.746213068874458
1.585749864578247,-0.05400332435965538,0.05111530423164368,-0.09216344356536865,-0.17131924629211426,-0.1560933142900467,0.013453221879899502,-0.2679676782667734,-3.0812392599402734,-2.746462850577762
1.595714807510376,-0.04930896684527397,0.05466127395629883,-0.08528125286102295,-0.06550146639347076,-0.16533714532852173,-0.009843045845627785,-0.26682245584716224,-3.082880133479538,-2.746586474182526
1.6059017181396484,-0.018311090767383575,0.07107424736022949,-0.016087830066680908,-0.04285683110356331,-0.1216081753373146,-0.024009518325328827,-0.26629029776500457,-3.08429113955998,-2.7464190092418095
1.6161699295043945,-0.003619149327278137,0.03642129898071289,0.04711437225341797,-0.021069776266813278,-0.07102435827255249,-0.01916070096194744,-0.2659584862192326,-3.0852015885961754,-2.746200612938556
1.6273117065429688,0.0030955076217651367,0.026297777891159058,0.07217001914978027,-0.010753355920314789,-0.010495766997337341,-0.009435050189495087,-0.2658074954849902,-3.085583227262865,-2.746072480082492
1.6358208656311035,0.01813562586903572,0.049572885036468506,0.10462629795074463,-0.0207442045211792,0.0576782301068306,0.009104013442993164,-0.26564377932968297,-3.0853375617727847,-2.7460871540672325
1.6457688808441162,0.022110212594270706,0.030853688716888428,0.11416995525360107,0.03517703339457512,0.0949031412601471,0.01903797686100006,-0.26568777604136395,-3.0845848616609355,-2.7462398944046043
1.6557998657226562,0.02732080966234207,0.022417694330215454,0.11777639389038086,0.09064216166734695,0.12471377104520798,0.03390427678823471,-0.26636549342678684,-3.083568602954799,-2.7464669048613226
1.6658148765563965,0.03662407025694847,0.048453837633132935,0.12373840808868408,0.05852213874459267,0.2006833702325821,0.053909942507743835,-0.2671833037118417,-3.0820548772731007,-2.746873464536202
1.6785778999328613,0.028125394135713577,0.038142621517181396,0.1111288070678711,0.06989969313144684,0.2171747237443924,0.054818347096443176,-0.267812254838332,-3.080030919539364,-2.7474205428469327
1.6858596801757812,0.0138038769364357,0.013434022665023804,0.08874481916427612,0.12285623699426651,0.1871207356452942,0.03557940199971199,-0.2688140099778934,-3.0780883614379135,-2.7478018741277657
1.6958227157592773,0.017678268253803253,0.02848067879676819,0.08072257041931152,0.09182002395391464,0.18310415744781494,0.019765285775065422,-0.26996806301620746,-3.076324329132922,-2.7480074652185267
1.7057909965515137,0.012743651866912842,0.0430508553981781,0.06719076633453369,0.03329271450638771,0.20724175870418549,0.021854376420378685,-0.270555977343065,-3.0744314645171404,-2.748175024527971
1.7158968448638916,-0.007087111473083496,0.017597287893295288,0.03765153884887695,0.08062134683132172,0.2191615253686905,0.020578987896442413,-0.2710805491885082,-3.0723521567174834,-2.7483717280317386
1.727759838104248,-0.010525502264499664,0.027559995651245117,0.00029265880584716797,0.11558069288730621,0.20968404412269592,0.011576172895729542,-0.2721272405456898,-3.0702569084999043,-2.7484636958635438
1.7366037368774414,-0.01721809059381485,0.04062962532043457,-0.04050600528717041,0.09103300422430038,0.18828049302101135,0.012030774727463722,-0.27316454058726297,-3.0682915913999667,-2.748508556037557
1.7459030151367188,-0.022891901433467865,0.022044211626052856,-0.03402233123779297,0.09262456744909286,0.1500573307275772,0.010688754729926586,-0.27408401668388427,-3.06664888586543,-2.7485783081855684
1.7559289932250977,-0.01482805609703064,0.013981372117996216,-0.020095229148864746,0.10127770900726318,0.12046775221824646,0.014646744355559349,-0.2750732881639653,-3.0653484234565562,-2.7486392283857097
1.7659287452697754,-0.014872699975967407,0.015320956707000732,-0.030537128448486328,0.10772130638360977,0.12191256135702133,0.019897911697626114,-0.2760914422764275,-3.0641958955432744,-2.7487439427531
1.7771258354187012,-0.021708153188228607,0.0052349865436553955,-0.032185256481170654,0.15076518058776855,0.13164162635803223,0.035671018064022064,-0.27739203474733737,-3.0630209665065773,-2.748944633675491
1.785928726196289,-0.02206362783908844,-0.0045535266399383545,-0.04034101963043213,0.200383260846138,0.12382644414901733,0.047211289405822754,-0.27920912018725214,-3.06183830137634,-2.7492406232513327
1.7959468364715576,-0.012383222579956055,-0.0005792379379272461,-0.03677356243133545,0.2141864150762558,0.10392384231090546,0.056480955332517624,-0.28134536351539186,-3.0608105140664263,-2.749613846542188
1.8060078620910645,-0.005139805376529694,-0.011453688144683838,-0.01212167739868164,0.21583391726016998,0.09589254856109619,0.0658644437789917,-0.28354855573296484,-3.059934248038251,-2.750061273030628
1.8160967826843262,0.0008295923471450806,-0.030419141054153442,-0.0008233189582824707,0.24804139137268066,0.08720105141401291,0.07807210832834244,-0.28591623923596976,-3.0591560494837724,-2.7506025317722815
1.8270578384399414,0.0027415677905082703,-0.03255075216293335,-0.010907292366027832,0.333889901638031,0.06709015369415283,0.09061512351036072,-0.2888869252877434,-3.058551508076908,-2.7512274495320908
1.8360929489135742,0.006723843514919281,-0.010919690132141113,-0.021050691604614258,0.4322793185710907,0.06206716224551201,0.11505388468503952,-0.2927794169361856,-3.05810290892094,-2.751933808058114
1.8460516929626465,0.010893464088439941,-0.0019483566284179688,-0.026618242263793945,0.5149804353713989,0.0518546923995018,0.13329248130321503,-0.2976925486610448,-3.05776538813592,-2.752821872417877
1.8560218811035156,0.01708173006772995,0.006608337163925171,-0.024202466011047363,0.5545861721038818,0.038649674504995346,0.15465477108955383,-0.3031273564924751,-3.0575186494838316,-2.753822357706233
1.866194725036621,0.020730838179588318,0.0089283287525177,-0.011201560497283936,0.6118261814117432,0.03957942873239517,0.16867876052856445,-0.30901559206033424,-3.0574879109231166,-2.755014359563856
1.8770380020141602,0.02531382441520691,-0.01805746555328369,0.0059441328048706055,0.8225991129875183,0.02680051699280739,0.20680271089076996,-0.31624070685434935,-3.057575164864043,-2.756346480027923
1.8860549926757812,0.03767091780900955,-0.005525529384613037,0.014245986938476562,1.1502230167388916,0.05339817330241203,0.28729015588760376,-0.32622247789397846,-3.0577179425483396,-2.7580469172121416
1.8960068225860596,0.044870272278785706,0.04692581295967102,-0.006970643997192383,1.5570875406265259,0.10974640399217606,0.4016849100589752,-0.33997191826909356,-3.0577260706279645,-2.7604855331879596
1.9060578346252441,0.041473351418972015,0.05860033631324768,-0.04351997375488281,2.0364556312561035,0.18986418843269348,0.5173443555831909,-0.358271228691925,-3.0573541877918777,-2.7637494965940586
1.9163248538970947,0.04084230959415436,0.05271345376968384,-0.058447957038879395,2.613283395767212,0.28121432662010193,0.6229472160339355,-0.3818529560195417,-3.0564354868869468,-2.7677661872163113
1.9283978939056396,0.04593510180711746,0.07080906629562378,-0.05517786741256714,3.2510573863983154,0.39326637983322144,0.7040025591850281,-0.41165101715761016,-3.0547987118265247,-2.772206673990037
1.9362797737121582,0.04206840693950653,0.0745459496974945,-0.05869162082672119,3.8993968963623047,0.5214956998825073,0.796209990978241,-0.4480126224955314,-3.0522040414790825,-2.7769873086673664
1.946286678314209,0.03599361330270767,0.060241758823394775,-0.06546342372894287,4.503773212432861,0.6755053997039795,0.8922735452651978,-0.49069311025477247,-3.0485590733058086,-2.7821335975240005
1.9564008712768555,0.0311497300863266,0.054310142993927,-0.05372786521911621,5.067763805389404,0.8409918546676636,0.983492910861969,-0.5393297644459946,-3.0436930721061355,-2.7876495114908124
1.966230869293213,0.02981419861316681,0.05753433704376221,-0.01708662509918213,5.595020294189453,0.979607343673706,1.0511583089828491,-0.5935069039368822,-3.0375937358057605,-2.793293815216436
1.977409839630127,0.027819722890853882,0.0750652551651001,0.03863048553466797,6.2326812744140625,1.1148487329483032,1.1588410139083862,-0.6534360545189032,-3.0304165910779095,-2.799014262667217
1.9861748218536377,0.0264255553483963,0.10200333595275879,0.10903388261795044,7.027950286865234,1.2315995693206787,1.28675377368927,-0.7206637430809165,-3.022410796280236,-2.804870002460241
1.9966988563537598,0.047322869300842285,0.14850980043411255,0.1730564832687378,7.993910789489746,1.3010245561599731,1.4322260618209839,-0.7968648681888656,-3.0137221743846556,-2.8107567622880567
2.00624680519104,0.05149829387664795,0.23214256763458252,0.22225284576416016,9.430145263671875,1.1922663450241089,1.4516059160232544,-0.8849282097441911,-3.004317320101887,-2.815127289333811
2.016343832015991,0.03778821974992752,0.27398407459259033,0.32542234659194946,11.0211181640625,1.0481350421905518,1.4009801149368286,-0.9882890641488669,-2.992578600485792,-2.8143254215729527
2.027376890182495,0.027326926589012146,0.29086554050445557,0.4110558032989502,12.60852336883545,0.8759008646011353,1.3561646938323975,-1.1074785349211262,-2.9740284053047263,-2.8042033309920655
2.036292791366577,0.00283157080411911,0.39141136407852173,0.4586312472820282,13.160545349121094,0.6358544230461121,1.138830542564392,-1.2375455682624064,-2.939616409250114,-2.774999710497337
2.0463578701019287,-0.03001509979367256,0.42159557342529297,0.5813339948654175,13.055145263671875,0.7557405829429626,0.6527617573738098,-1.3672687033405961,-2.8466993856220038,-2.685970991347593
2.0563368797302246,-0.12287301570177078,0.18416553735733032,0.7271672487258911,12.347697257995605,1.082545280456543,0.3375745117664337,-1.4842200865106956,-2.450412242600779,-2.2955102995589036
2.066403865814209,-0.16938012838363647,-0.14591556787490845,0.7004088163375854,11.543842315673828,1.4490716457366943,0.22024032473564148,-1.495992197483963,-0.7794103452156302,-0.6340034643009598
2.0770108699798584,-0.10572962462902069,-0.12777775526046753,0.6302920579910278,10.89380931854248,1.585764765739441,0.27924585342407227,-1.3976474453650196,-0.2845738228955517,-0.1514850284674897
2.086641788482666,-0.11611410975456238,0.0639047622680664,0.5302468538284302,10.460344314575195,1.6417951583862305,0.4073653221130371,-1.2939175962362357,-0.15266653924205825,-0.03299594166341744
2.096402883529663,-0.1289297640323639,0.18967950344085693,0.4880848824977875,10.246644973754883,1.7515612840652466,0.6163590550422668,-1.1917519334254103,-0.08490295138330994,0.020717784602459717
2.106393814086914,-0.12709200382232666,0.17763429880142212,0.4448922276496887,10.155913352966309,1.8491549491882324,0.893601655960083,-1.0901840075556128,-0.036607154108041356,0.05388198203115004
2.116431713104248,-0.12261433899402618,0.17855703830718994,0.3672707676887512,10.02299976348877,1.8614475727081299,0.9695214629173279,-0.9894242888450904,0.0011294274285514987,0.07606333641858916
2.1273698806762695,-0.1563880443572998,0.1739317774772644,0.38790470361709595,9.893412590026855,1.6277214288711548,0.9184179306030273,-0.8895162209742364,0.029588280670971114,0.08959661102999597
2.1363840103149414,-0.1561402678489685,0.02811872959136963,0.5104257464408875,9.702685356140137,1.4838471412658691,0.8508029580116272,-0.7910737151694226,0.050584615691720625,0.09688241476326552
2.146406888961792,-0.11563700437545776,-0.02435082197189331,0.5462058186531067,9.408796310424805,1.2795825004577637,0.7741117477416992,-0.6950110539232632,0.0668900677902518,0.10032050235473097
2.156536817550659,-0.09784457832574844,0.06573837995529175,0.5178909301757812,8.962709426879883,1.1277410984039307,0.6982985138893127,-0.602578835735221,0.07939536623414091,0.10104809780482883
2.1669418811798096,-0.07234541326761246,0.10204201936721802,0.5418642163276672,8.191661834716797,1.1192994117736816,0.7316905856132507,-0.5162069021418181,0.09043092149343701,0.10078054067374594
2.1784238815307617,-0.0686684176325798,0.026602834463119507,0.49423569440841675,7.155158996582031,1.1971957683563232,0.7817888855934143,-0.4388229389880963,0.10200714798225081,0.10094951467564683
2.1864709854125977,-0.08625305444002151,-0.05371439456939697,0.41272544860839844,5.9792656898498535,1.350549340248108,0.8348488807678223,-0.37262644201910194,0.11514355413924662,0.10197237864504008
2.196467876434326,-0.0941496342420578,-0.11952096223831177,0.3410450220108032,4.818436622619629,1.5357829332351685,0.8731818795204163,-0.3179349448151764,0.13031207152813742,0.10402221144681552
2.2064309120178223,-0.1051715612411499,-0.15700221061706543,0.2776619791984558,3.8593719005584717,1.7031787633895874,0.8268056511878967,-0.27395685061858355,0.14729416333467685,0.10661521247860495
2.2165846824645996,-0.11808328330516815,-0.15726810693740845,0.24270647764205933,3.3427748680114746,1.57206130027771,0.7487824559211731,-0.23740320236818088,0.16449365829909388,0.10897701015260773
2.2270116806030273,-0.08591052889823914,-0.17491014301776886,0.23550009727478027,3.1429851055145264,1.2751922607421875,0.6182403564453125,-0.20436000091482542,0.17910510604592475,0.11023539522878636
2.236515998840332,-0.007090464234352112,-0.12492057681083679,0.24544918537139893,2.9973716735839844,1.0244694948196411,0.48978036642074585,-0.1731012212059432,0.19049837151898105,0.11000426958273446
2.2465198040008545,0.046155884861946106,0.006866753101348877,0.1701170802116394,2.808579444885254,0.8315663933753967,0.4038430154323578,-0.1436819889058632,0.1996113893288754,0.10869479676241892
2.2564597129821777,0.07825763523578644,0.03030826896429062,0.06950598955154419,2.5133492946624756,0.6558672785758972,0.3137626647949219,-0.11679235016254562,0.2068396472865057,0.10680924292546241
2.266589879989624,0.1012011170387268,-0.002576582133769989,0.017522037029266357,2.0975379943847656,0.5270602703094482,0.2095828354358673,-0.09360980042293074,0.21250579479492834,0.1045352183726002
2.2769689559936523,0.11054590344429016,0.002543628215789795,0.0004208087921142578,1.5967624187469482,0.43613117933273315,0.11564888060092926,-0.07513318789998918,0.21706429532951738,0.10216167984462804
2.286782741546631,0.11222009360790253,-0.016067594289779663,-0.013248443603515625,1.0641119480133057,0.38863563537597656,0.041413482278585434,-0.061990419660899694,0.22103585514420207,0.10003706460617193
2.2977709770202637,0.10506145656108856,-0.050845179706811905,-0.027871370315551758,0.6390740871429443,0.3434516489505768,-0.028154142200946808,-0.053770209695372176,0.22461317172524664,0.09824155471945055
2.3066587448120117,0.09200070798397064,-0.06613954156637192,-0.03750735521316528,0.39661502838134766,0.26489168405532837,-0.07296422123908997,-0.048947120993472544,0.2275655241293275,0.09658380641716989
2.31670880317688,0.08486022055149078,-0.06283651292324066,-0.04155987501144409,0.3274223804473877,0.17062032222747803,-0.08930297940969467,-0.04571676781436063,0.2296779914451001,0.09498072294386843
2.3271148204803467,0.07911406457424164,-0.028680838644504547,-0.051951825618743896,0.4017503261566162,0.08694854378700256,-0.0656813308596611,-0.04239588061421491,0.23090779157632427,0.09337355992374578
2.336690902709961,0.0739184319972992,0.002797551453113556,-0.06835383176803589,0.4977612793445587,-0.014626285061240196,-0.029722265899181366,-0.03808990113812852,0.23117292791691213,0.09187996920984733
2.346773862838745,0.06957364082336426,0.010691072791814804,-0.07307147979736328,0.5023894309997559,-0.03453878313302994,-0.0030664727091789246,-0.033183986583892953,0.23086107597579367,0.0905419675655567
2.3567466735839844,0.056703343987464905,-0.004621200263500214,-0.0660778284072876,0.4057488739490509,0.0021899351850152016,0.02421415038406849,-0.028672931871235593,0.23063175912427772,0.08959255540687704
2.3668289184570312,0.03277982771396637,-0.036300722509622574,-0.06366825103759766,0.2520492374897003,0.029085731133818626,0.0313965380191803,-0.0253781040912324,0.23074963715703936,0.08911941494792529
2.377377986907959,0.019516631960868835,-0.06593623757362366,-0.04950129985809326,0.09386546164751053,0.05192500352859497,0.012646816670894623,-0.023656284128482634,0.23116644560932223,0.08894068599658447
2.388835906982422,0.015142276883125305,-0.07466500252485275,-0.029083967208862305,-0.03146997094154358,0.05182899162173271,0.008363441564142704,-0.023351763256187773,0.23172423870099879,0.08897168601360572
2.4010448455810547,0.014104321599006653,-0.06969364732503891,-0.02064669132232666,-0.11978279054164886,0.043422725051641464,-0.008338838815689087,-0.024102672136962093,0.23218362838322598,0.08915856990184617
2.406507968902588,0.013006716966629028,-0.070414237678051,-0.017400026321411133,-0.1571359485387802,0.04301215708255768,-0.013918695040047169,-0.025525596637175588,0.2326457938556578,0.08936996362087812
2.4170680046081543,0.013742923736572266,-0.06541618704795837,-0.023398160934448242,-0.11852730810642242,0.026690706610679626,0.005950617603957653,-0.026921460265367795,0.23302706233580098,0.08964252682592722
2.428496837615967,0.018103674054145813,-0.04393220692873001,-0.03103649616241455,-0.04050600901246071,-0.011170654557645321,0.044382963329553604,-0.027654553589930717,0.23311363253810732,0.09006416187951147
2.437128782272339,0.0257585346698761,-0.016528131440281868,-0.03679656982421875,0.046102121472358704,-0.06180240958929062,0.08526674658060074,-0.02745682115741239,0.23277239352701637,0.09068100291852513
2.446877956390381,0.03615483641624451,0.00359359011054039,-0.0419803261756897,0.07975100725889206,-0.0913621187210083,0.11145174503326416,-0.026576111515249076,0.2319929266574693,0.09149330795348899
2.456908702850342,0.03943943977355957,-0.004846854135394096,-0.035610198974609375,0.06396778672933578,-0.09406016767024994,0.13480420410633087,-0.025586290280600298,0.23107319278247368,0.09252515605024807
2.4669978618621826,0.03221476078033447,-0.024977710098028183,-0.027371466159820557,0.020210817456245422,-0.08404810726642609,0.14722050726413727,-0.02478182839805719,0.23022923758662117,0.09380477469471295
2.477435827255249,0.029840990900993347,-0.03058040514588356,-0.01775270700454712,-0.03516588732600212,-0.08432400971651077,0.15426163375377655,-0.02443349342909915,0.22943667888218747,0.09529129255151478
2.4868578910827637,0.032962456345558167,-0.026506885886192322,-0.0046228766441345215,-0.0937456414103508,-0.07274334132671356,0.14415785670280457,-0.024663021984797143,0.22870814139781503,0.09690689991834846
2.4970028400421143,0.03306965529918671,-0.02863367274403572,0.013317704200744629,-0.11194995045661926,-0.05967707186937332,0.12535247206687927,-0.025309907337211605,0.22811601150078206,0.09845451960799423
2.5069169998168945,0.027302131056785583,-0.03276868164539337,0.027596652507781982,-0.09640873223543167,-0.08563508093357086,0.1091705858707428,-0.025996655562830744,0.22744604387148337,0.0998429662316592
2.5175228118896484,0.02645343542098999,-0.022129656746983528,0.03956824541091919,-0.08582533150911331,-0.08649954199790955,0.1009368896484375,-0.026603567793325095,0.226660462262346,0.10106293405340584
2.528984785079956,0.025057196617126465,-0.0029529407620429993,0.04624748229980469,-0.08611813187599182,-0.07954731583595276,0.1154106929898262,-0.02718719793672303,0.22599842302432394,0.10230412922951411
2.5371689796447754,0.017249494791030884,0.025868387892842293,0.04735010862350464,-0.12071312963962555,-0.07156315445899963,0.1183289885520935,-0.027891892116595082,0.2254184840384641,0.10368748195584428
2.546945810317993,0.009404256939888,0.03555484861135483,0.0539972186088562,-0.15131564438343048,-0.06187262758612633,0.12105509638786316,-0.028886983118019734,0.22491044225250922,0.10516088625285047
2.556985855102539,0.00445730984210968,0.015047825872898102,0.06302750110626221,-0.1368618756532669,-0.071829654276371,0.12681472301483154,-0.029970037347566134,0.2243728498287641,0.10667882057821011
2.566922664642334,0.005302757024765015,0.014971183612942696,0.06636852025985718,-0.08987543731927872,-0.10934068262577057,0.12725402414798737,-0.03071841147412848,0.223588810106264,0.10817898567799616
2.5774106979370117,0.009873539209365845,0.03541964292526245,0.05778014659881592,-0.06927482038736343,-0.1340300440788269,0.11850634962320328,-0.03112891189214767,0.22248728628999775,0.10955288303380713
2.5867958068847656,0.015702083706855774,0.035356305539608,0.048028409481048584,-0.0899268388748169,-0.13394029438495636,0.11020155251026154,-0.0315586737519688,0.22125431068987966,0.11084007906028419
2.5968289375305176,0.012750014662742615,0.01599094644188881,0.037393391132354736,-0.1244155690073967,-0.11558925360441208,0.1062116026878357,-0.032293421629072866,0.22017164802358138,0.11212385357365293
2.606851816177368,0.00796690583229065,0.008236613124608994,0.03186386823654175,-0.16400133073329926,-0.09050733596086502,0.10925346612930298,-0.033456587662180355,0.21932709750802357,0.11348944357217887
2.6172568798065186,0.006409198045730591,0.016676049679517746,0.026812851428985596,-0.20304806530475616,-0.0558987557888031,0.10585580766201019,-0.03505837797788623,0.2187306511220859,0.11495146685850968
2.628145694732666,0.004044294357299805,0.021543141454458237,0.020648598670959473,-0.21104952692985535,-0.017757762223482132,0.10340436547994614,-0.0369368879554318,0.2184952174088626,0.11642874556256423
2.636931896209717,-0.0011199712753295898,0.02152860537171364,0.013355910778045654,-0.20424754917621613,0.0026798683684319258,0.09336984157562256,-0.03875326121910266,0.2185330833995635,0.11785095049285492
2.6469359397888184,-0.0045569539070129395,0.02425888553261757,0.011288642883300781,-0.19728818535804749,0.04911873862147331,0.08453480154275894,-0.040540988289062746,0.2188812168405039,0.11916014526905568
2.6569137573242188,-0.007193833589553833,0.02388324961066246,0.007645726203918457,-0.1767561137676239,0.06062182039022446,0.09164533764123917,-0.04221505869667772,0.21953519511020916,0.12043279561272396
2.667423725128174,-0.008089333772659302,0.023678317666053772,0.005913138389587402,-0.14605854451656342,0.062388740479946136,0.09423696249723434,-0.04364200397238375,0.22027951653857553,0.1216829886843844
2.6789438724517822,-0.005430370569229126,0.04015478864312172,0.01615583896636963,-0.12163683027029037,0.0412786602973938,0.08620620518922806,-0.04474473184140721,0.22088124503670345,0.12287474809157718
2.6870927810668945,-0.006403237581253052,0.04354226589202881,0.027564167976379395,-0.13607214391231537,0.045046012848615646,0.06611765921115875,-0.045798649212775794,0.22138916166569797,0.12390416767379855
2.6970629692077637,-0.01354166865348816,0.023438971489667892,0.037169039249420166,-0.17802438139915466,0.05924998223781586,0.035244960337877274,-0.04722673060401736,0.22196510125390653,0.12475592813007817
2.70697283744812,-0.023368433117866516,0.010368846356868744,0.03900426626205444,-0.2027241438627243,0.07126908749341965,0.0035743857733905315,-0.04908379015621874,0.22265889738137631,0.12536984674836707
2.717127799987793,-0.029165521264076233,-0.0007256194949150085,0.04479759931564331,-0.19033457338809967,0.0792042464017868,-0.019603904336690903,-0.05107125676389076,0.22341651009995797,0.12571815368334346
2.727461814880371,-0.0328240841627121,-0.0028959661722183228,0.04946136474609375,-0.15986064076423645,0.07788567245006561,-0.030305497348308563,-0.05286255596102768,0.22420193150053425,0.12585390528345192
2.737053871154785,-0.03538326919078827,0.014017011970281601,0.0462946891784668,-0.12087995558977127,0.07211007177829742,-0.045779526233673096,-0.0543385364982024,0.2249209473028896,0.12579415414289788
2.7470579147338867,-0.03475145995616913,0.020762581378221512,0.04290664196014404,-0.10166658461093903,0.07092256844043732,-0.06261123716831207,-0.05555989796746303,0.225588438882325,0.12550849208531337
2.7573609352111816,-0.03803300857543945,0.004734944552183151,0.04440206289291382,-0.09852112084627151,0.08539950847625732,-0.06505868583917618,-0.0567273176552022,0.22632581263689397,0.12511048328210705
2.767185688018799,-0.04167735576629639,-0.0038765445351600647,0.041074395179748535,-0.08225151151418686,0.09847980737686157,-0.054356932640075684,-0.05781801344055486,0.22721606480821202,0.12472732857045327
2.77738881111145,-0.04078729450702667,0.008859340101480484,0.03310304880142212,-0.05750461667776108,0.11547663807868958,-0.04193887859582901,-0.05863330913893207,0.2282574141162027,0.1244075956067333
2.7871437072753906,-0.038534387946128845,0.014842730015516281,0.011797010898590088,-0.042938437312841415,0.13992911577224731,-0.03721533715724945,-0.05921220109986887,0.22947938839787035,0.12414153980920051
2.7971408367156982,-0.03581249713897705,0.014277249574661255,-0.012065291404724121,-0.039740514010190964,0.16914504766464233,-0.03867688030004501,-0.059686971546268314,0.23095580999354812,0.12386038162098734
2.8071017265319824,-0.032634422183036804,0.008417550474405289,-0.02465665340423584,-0.04961942508816719,0.20662349462509155,-0.03955737128853798,-0.06020702451598564,0.23276507073245228,0.12358798714964112
2.8171939849853516,-0.030708134174346924,-0.005434975028038025,-0.02417623996734619,-0.06946291029453278,0.21737255156040192,-0.04725364223122597,-0.060907757048596856,0.23479852550375474,0.12330105666971919
2.8273978233337402,-0.027863293886184692,-0.011155892163515091,-0.014020383358001709,-0.0697532445192337,0.2035357803106308,-0.050104182213544846,-0.06176273343387684,0.2368324715306841,0.122972489810716
2.837148666381836,-0.019055113196372986,-0.01615089178085327,-0.0058152079582214355,-0.05863161385059357,0.16188021004199982,-0.0501776859164238,-0.06251724711849951,0.238538785103825,0.12261668732552594
2.8471899032592773,-0.006744354963302612,-0.017943985760211945,-0.002093493938446045,-0.03301546722650528,0.12251390516757965,-0.03118295595049858,-0.06306017936039703,0.23982496086629163,0.12231427577743424
2.857174873352051,-0.0013047903776168823,-0.004400752484798431,-0.006713926792144775,0.0012186684180051088,0.07391760498285294,-0.010296315886080265,-0.06328081890392158,0.240654978220895,0.1221493826508171
2.8674306869506836,-0.003997087478637695,0.004008039832115173,-0.01637202501296997,0.0238506942987442,0.024594666436314583,0.0012179141631349921,-0.06320317586018126,0.24092840059423715,0.12206175933846983
2.8778188228607178,-0.007752582430839539,-0.006623297929763794,-0.01772940158843994,0.02190924808382988,-0.00042067281901836395,0.01116455439478159,-0.06300037446762435,0.24078544459357307,0.12205225771022822
2.887260913848877,-0.00977616012096405,-0.0218789204955101,-0.02093881368637085,-0.006080090533941984,-0.005062606651335955,0.022033287212252617,-0.06290546293144356,0.24051033018983872,0.12217179658404308
2.8972597122192383,-0.014080777764320374,-0.025792501866817474,-0.031972646713256836,-0.049783095717430115,-0.010053636506199837,0.025458911433815956,-0.06308099057306753,0.2402156463168746,0.1224547424357543
2.907132863998413,-0.011299341917037964,-0.03413841873407364,-0.03385806083679199,-0.08373469114303589,-0.012194152921438217,0.033471137285232544,-0.06361547893201537,0.239920394645351,0.12289959198805539
2.917280673980713,-0.008907422423362732,-0.04516080766916275,-0.02748948335647583,-0.09483794122934341,-0.042268168181180954,0.03706693649291992,-0.06429379669698947,0.2395256031617226,0.12345191305359382
2.9287378787994385,-0.003781363368034363,-0.03954178839921951,-0.023547887802124023,-0.10187918692827225,-0.07476384192705154,0.0382203534245491,-0.06502395198457342,0.23892421742488867,0.12404957046853377
2.9374499320983887,0.002567663788795471,-0.03549637645483017,-0.022218167781829834,-0.12444707751274109,-0.1014079675078392,0.041124530136585236,-0.06598548806402381,0.23807260702133068,0.12470177278633209
2.9474568367004395,0.003669261932373047,-0.04235956817865372,-0.023569881916046143,-0.15086162090301514,-0.10280394554138184,0.04767334833741188,-0.06723622741614697,0.23705126967348747,0.12545260311485754
2.9575448036193848,0.004235714673995972,-0.04074511677026749,-0.02406531572341919,-0.15744894742965698,-0.1044822707772255,0.06280197203159332,-0.06858509108113005,0.23604886875022602,0.1263510733925213
2.967484951019287,0.003822892904281616,-0.0315331369638443,-0.031794071197509766,-0.14240942895412445,-0.1064433827996254,0.07696492969989777,-0.0697824570593239,0.23501572831056014,0.12738816538981518
2.978041887283325,0.0038248449563980103,-0.020327284932136536,-0.028431236743927002,-0.12126633524894714,-0.11659161746501923,0.08724046498537064,-0.07075551463777766,0.2339134691425702,0.1284817915761319
2.9874558448791504,0.0035074949264526367,-0.011215150356292725,-0.022046387195587158,-0.11342603713274002,-0.11321717500686646,0.09376372396945953,-0.07153304819779877,0.23279136920895319,0.1296387151386668
2.997886896133423,0.0028941482305526733,-0.00685158371925354,-0.009522199630737305,-0.12417588382959366,-0.10146597772836685,0.08729543536901474,-0.0723137196728243,0.23177021182475976,0.13080292152461928
3.0073418617248535,-0.005850017070770264,-0.008754849433898926,0.00047141313552856445,-0.1313183754682541,-0.08614076673984528,0.0694756954908371,-0.07322757556687395,0.23089086633748154,0.1318650378756219
3.0175068378448486,-0.012741148471832275,-0.007846280932426453,0.006304681301116943,-0.1212787851691246,-0.06366156041622162,0.060725606977939606,-0.07416787101866792,0.23024106565745434,0.1327759585334749
3.0277209281921387,-0.013693764805793762,-0.0005736872553825378,0.002764463424682617,-0.0913843885064125,-0.05245289206504822,0.046638552099466324,-0.07489290827908257,0.229741937758077,0.13354878614447566
3.037411689758301,-0.010989069938659668,0.015143848955631256,-0.001000046730041504,-0.05549056828022003,-0.05031250789761543,0.041593994945287704,-0.0753050722629037,0.22932089380278023,0.13414699385446588
3.0474467277526855,-0.0045485347509384155,0.024944722652435303,-0.0008164644241333008,-0.04110700264573097,-0.05257388949394226,0.03003198653459549,-0.07549925594678876,0.2288515613993672,0.1346138844191461
3.057480812072754,0.0019282996654510498,0.022917471826076508,0.005275309085845947,-0.060862064361572266,-0.04593649134039879,0.02316316030919552,-0.07581843749900928,0.22839423145590818,0.1349789938906911
3.067516803741455,0.002328813076019287,0.009092278778553009,0.015006184577941895,-0.08977919816970825,-0.02869349904358387,0.021514184772968292,-0.07644659973260828,0.22807155538624369,0.13536358734045267
3.0780386924743652,0.0022353529930114746,0.004742346704006195,0.017255544662475586,-0.08959730714559555,-0.02720586024224758,0.023531794548034668,-0.0772282789690675,0.2278518261209267,0.1357964482034261
3.0874667167663574,0.006600737571716309,0.0062510669231414795,0.009335756301879883,-0.08038027584552765,-0.027740798890590668,0.02325274981558323,-0.07794951336401268,0.22761204225445222,0.13620847625049176
3.097540855407715,0.010549426078796387,0.0027112290263175964,0.008133351802825928,-0.07698340713977814,-0.02588697522878647,0.029190000146627426,-0.0785921470477795,0.2273129271271143,0.1366399652342796
3.1076817512512207,0.009366288781166077,0.006732292473316193,0.006483674049377441,-0.08534488826990128,-0.024326849728822708,0.03268502652645111,-0.0792729062951637,0.227019626195017,0.1371204494644043
3.1184029579162598,0.0078715980052948,0.007998466491699219,0.004524946212768555,-0.09923140704631805,-0.012074178084731102,0.03243895247578621,-0.08017635648815434,0.22679995991214766,0.1376421667934511
3.127739906311035,0.005225449800491333,0.00036257505416870117,0.004446208477020264,-0.10175321996212006,-0.011509410105645657,0.03056887909770012,-0.08122385764960785,0.2267160885712532,0.13816677689351983
3.137551784515381,0.004141315817832947,4.349648952484131e-05,0.0016617178916931152,-0.09635685384273529,-0.013466301374137402,0.02672141045331955,-0.08224825700264421,0.22665766421438013,0.13868002391072576
3.1475977897644043,0.008753076195716858,0.008591882884502411,0.002789616584777832,-0.08877488225698471,-0.012827541679143906,0.024603717029094696,-0.08311751844349864,0.22662343086585962,0.13913448684939683
3.157615900039673,0.010045498609542847,0.008274376392364502,0.005553841590881348,-0.09188386052846909,-0.024071140214800835,0.014383570291101933,-0.08394142502994696,0.22651831228224337,0.13953026909796148
3.167660713195801,0.009150967001914978,0.0025882571935653687,0.012079000473022461,-0.11135582625865936,-0.019452420994639397,0.0038094893097877502,-0.08491605511091699,0.22638999305278068,0.139839640359998
3.1783456802368164,0.0092526376247406,0.0031547844409942627,0.018879950046539307,-0.1309758722782135,-0.004261749796569347,-0.00019697018433362246,-0.08607801941247646,0.22638679560641495,0.14014518252855687
3.187638759613037,0.0059460848569869995,0.005512252449989319,0.01642674207687378,-0.13266028463840485,0.014352946542203426,-0.0036164154298603535,-0.08737226698056183,0.22656516856447576,0.14042642818140746
3.1976099014282227,0.0044013261795043945,0.004478916525840759,0.011213064193725586,-0.12028910219669342,0.019776474684476852,-0.0068545532412827015,-0.08862406747494209,0.22681446174778513,0.14066794757059198
3.2076759338378906,0.003590717911720276,0.01564452052116394,0.010715842247009277,-0.09367331862449646,0.03241703659296036,-0.015896303579211235,-0.08965433474738105,0.22713641475935492,0.14079741627700795
3.217791795730591,0.0025023967027664185,0.022305913269519806,0.011278629302978516,-0.07367245107889175,0.03370067849755287,-0.033768776804208755,-0.09047306107078336,0.22750456738883626,0.1407462002848079
3.2277638912200928,0.0009976029396057129,0.01607602834701538,0.011625468730926514,-0.06518992781639099,0.03883059322834015,-0.05703654885292053,-0.0912588016034667,0.2278926369751191,0.14045446798301714
3.2376389503479004,-0.0006664097309112549,0.011517539620399475,0.012761116027832031,-0.058062516152858734,0.05268649011850357,-0.06908655911684036,-0.09200572909538299,0.2283813096982802,0.13998062169570366
3.2476508617401123,-0.0025551319122314453,0.011131785809993744,0.00817883014678955,-0.052028559148311615,0.05398770794272423,-0.0835365504026413,-0.09268428661129961,0.2289431431495857,0.13936974651322673
3.2574868202209473,-0.002883508801460266,0.006999872624874115,0.005452454090118408,-0.052809130400419235,0.0605715736746788,-0.09299609810113907,-0.09338601320400569,0.2295173901444739,0.13861716826648723
3.2675557136535645,-0.00023853778839111328,0.001180894672870636,0.004148364067077637,-0.038973208516836166,0.0713597759604454,-0.08719093352556229,-0.09405042718256809,0.23015623397019289,0.13783705585513845
3.277758836746216,0.0012602508068084717,0.0021428093314170837,-0.004590511322021484,-0.015162684954702854,0.06649124622344971,-0.0851709321141243,-0.0945096137396367,0.23082409907887982,0.13704913001353922
3.2875778675079346,0.005352690815925598,0.006927289068698883,-0.012022256851196289,-0.0027804006822407246,0.05322866141796112,-0.07848634570837021,-0.09483831131734842,0.2313636333391005,0.13626511991968254
3.297609806060791,0.008923083543777466,0.006959684193134308,-0.014180004596710205,-0.007114961743354797,0.045314546674489975,-0.07163403183221817,-0.09515830215514408,0.23179618912517347,0.13553912761116166
3.3076047897338867,0.010631963610649109,-0.001255728304386139,-0.012079238891601562,-0.028867926448583603,0.03243185952305794,-0.06822502613067627,-0.09556305743656737,0.23212045010271531,0.13490024954910818
3.317680835723877,0.01113860309123993,-0.012027092278003693,-0.007253408432006836,-0.054456911981105804,0.018807660788297653,-0.06067362800240517,-0.09617487608405431,0.23232019115773048,0.13436807361250674
3.3276538848876953,0.011410519480705261,-0.01383315771818161,-0.004658877849578857,-0.07100547850131989,0.010678140446543694,-0.051931750029325485,-0.09697760890824068,0.23238868626236764,0.13394725504006244
3.337568759918213,0.011424124240875244,-0.01268596202135086,-0.00739365816116333,-0.0637049525976181,0.0011370996944606304,-0.03921275958418846,-0.09777203865033586,0.23240875704980204,0.1336636443111069
3.34773588180542,0.010792404413223267,-0.009822435677051544,-0.013100087642669678,-0.03824944421648979,-0.018298251554369926,-0.02993691712617874,-0.09834449548400472,0.2323023430903701,0.13345206377345434
3.3576018810272217,0.009425550699234009,0.0021322667598724365,-0.014228463172912598,-0.01139945536851883,-0.03945333883166313,-0.01675080694258213,-0.09861337260897934,0.23198684941814846,0.13328587516507084
3.3681187629699707,0.012342646718025208,0.009500548243522644,-0.011857330799102783,-0.006264464929699898,-0.053359873592853546,-0.013690301217138767,-0.09872243906817436,0.2315140279126324,0.13315471527964462
3.378701686859131,0.011215582489967346,0.007474541664123535,-0.005052804946899414,-0.02305702678859234,-0.06005852669477463,-0.012920914217829704,-0.09888768107173049,0.23098013241891857,0.13306576600025727
3.3881187438964844,0.006804272532463074,0.005952939391136169,-0.0011499524116516113,-0.05073186382651329,-0.05941270664334297,-0.016799649223685265,-0.09925139597215371,0.2304388835664401,0.13300161376319894
3.3984408378601074,0.004830911755561829,0.0010860040783882141,0.005324423313140869,-0.06828741729259491,-0.0596633143723011,-0.017475293949246407,-0.09978749551637363,0.2299210637859999,0.13297495155070177
3.4081737995147705,0.00587095320224762,-0.0011368468403816223,0.006038546562194824,-0.06299380958080292,-0.07154886424541473,-0.0123911052942276,-0.1003652853814759,0.22934939127962398,0.1329921838966931
3.4182798862457275,0.011160030961036682,0.0068948715925216675,0.006935179233551025,-0.049020733684301376,-0.07701367139816284,-0.006873568054288626,-0.10083508825743923,0.22868921641882553,0.13303153966843512
3.42983078956604,0.01605142652988434,0.013783633708953857,0.010611474514007568,-0.04788008704781532,-0.07965566217899323,0.0030785580165684223,-0.10122675855140134,0.22798102421266456,0.13312338236891155
3.4379467964172363,0.0133868008852005,0.015312813222408295,0.012685716152191162,-0.051743801683187485,-0.06840567290782928,0.003762191627174616,-0.10168357113583164,0.22730896690328814,0.13327340244988709
3.4481358528137207,0.00897863507270813,0.012500658631324768,0.01592320203781128,-0.0568365640938282,-0.05760016292333603,0.008664006367325783,-0.1022249749673502,0.22678484040815147,0.13346390054084312
3.458099842071533,0.0027246028184890747,0.011918149888515472,0.020829439163208008,-0.06133144721388817,-0.03629513829946518,0.005298569332808256,-0.10281055505899403,0.22641878687108466,0.13368311993359455
3.468125820159912,-0.0017346441745758057,0.01329079270362854,0.02545994520187378,-0.05342896282672882,-0.027540575712919235,0.004779679235070944,-0.10337879976750872,0.22620001864105255,0.1338707054248815
3.4783177375793457,-0.0035687536001205444,0.013330698013305664,0.027684807777404785,-0.04151797667145729,-0.02508806809782982,-0.004299303516745567,-0.10382959540354551,0.22600930320018814,0.13397208510113578
3.488095760345459,-0.0003095567226409912,0.01293257623910904,0.030854523181915283,-0.03547804430127144,-0.017220692709088326,-0.012510521337389946,-0.10418385686823645,0.22586676955794716,0.13398833801839652
3.498159885406494,0.000940859317779541,0.012159936130046844,0.02946317195892334,-0.04041820764541626,-0.008098033256828785,-0.015114027075469494,-0.10459251524796213,0.22583021357483687,0.13395934148630845
3.508096694946289,0.0020644813776016235,0.008010931313037872,0.024477005004882812,-0.05106808617711067,-0.0008504181168973446,-0.010452643036842346,-0.10512812510093797,0.2259118409402686,0.13395721231094723
3.5181827545166016,0.011105090379714966,0.0055229514837265015,0.0157700777053833,-0.054693449288606644,0.0003093886189162731,-0.007365240715444088,-0.10574268460844438,0.22601361566982794,0.1340009944203027
3.5282888412475586,0.018808409571647644,0.00637209415435791,0.01169055700302124,-0.04418788105249405,-0.007779608014971018,-0.0001566498540341854,-0.10628514335160419,0.2260608306866653,0.13408230148846145
3.5380959510803223,0.02186068892478943,0.004372701048851013,0.010191261768341064,-0.038202956318855286,-0.013167183846235275,0.002194388769567013,-0.1067306597008923,0.22600825698122276,0.13418477859070255
3.548149824142456,0.023556247353553772,0.00042559951543807983,0.006718039512634277,-0.03209175169467926,-0.021525204181671143,0.008641795255243778,-0.1071093647411786,0.22587398248987642,0.1343241249907682
3.5581207275390625,0.021666958928108215,-0.00041828304529190063,0.005760133266448975,-0.0347469225525856,-0.02217581309378147,0.0116338562220335,-0.10746702558633796,0.22569098185077718,0.13449692076702421
3.5682108402252197,0.0156252384185791,-0.0024126023054122925,0.009063005447387695,-0.042040903121232986,-0.01701482944190502,0.015536506660282612,-0.10786145312596583,0.22554252089298105,0.13471706290764757
3.578293800354004,0.008482798933982849,-0.0074649378657341,0.010356485843658447,-0.04453948140144348,-0.006931036710739136,0.022510526701807976,-0.1082928946819058,0.225491627869854,0.13500047103487905
3.5880956649780273,0.006845399737358093,-0.009485848248004913,0.007939934730529785,-0.04013556241989136,0.000661059282720089,0.025755001232028008,-0.10868340464560543,0.2255377423214669,0.1353427992566913
3.5981578826904297,0.006575420498847961,-0.005926929414272308,0.004298567771911621,-0.028685301542282104,-0.001529124565422535,0.031651776283979416,-0.10897141110377716,0.22565038409319127,0.13571571285769257
3.6081418991088867,0.005997270345687866,-0.00442320853471756,0.005599319934844971,-0.026700647547841072,-0.007062107790261507,0.03700243681669235,-0.10916254993645176,0.22574793643348046,0.13612745139503607
3.6182427406311035,0.010908976197242737,-0.008122570812702179,0.005497336387634277,-0.03255853429436684,-0.009746041148900986,0.043095748871564865,-0.10936888099582884,0.22583357041920574,0.13660118928931594
3.628300666809082,0.015355557203292847,-0.0038583800196647644,0.0028265714645385742,-0.04524613544344902,-0.01434452272951603,0.042057063430547714,-0.10963815683820151,0.22591263808286727,0.13712469203446198
3.638145923614502,0.01592223346233368,-0.003855988383293152,1.52587890625e-05,-0.05308861285448074,-0.012728516012430191,0.034531235694885254,-0.11001954084049975,0.22595165131670164,0.1376312559839745
3.648221015930176,0.009673729538917542,-0.01021362841129303,-0.0005637407302856445,-0.051708295941352844,-0.005918191745877266,0.03637233376502991,-0.11044409179099882,0.22601761682319768,0.13811471049621465
3.6582188606262207,0.0024198293685913086,-0.00450848788022995,-0.0031278133392333984,-0.027057278901338577,-0.01418890431523323,0.03296241909265518,-0.11070673740842249,0.2260305019083571,0.1385585875902694
3.668247699737549,0.0004380941390991211,0.008709743618965149,-0.0045999884605407715,-0.005600272212177515,-0.01142476499080658,0.02698224037885666,-0.11073329937054395,0.22598193870273653,0.13889787606685694
3.6785788536071777,-0.004012435674667358,0.010701708495616913,-0.003929495811462402,0.0037780494894832373,-0.010715831071138382,0.02133953385055065,-0.11064816191165645,0.22595880725290257,0.13915009667731792
3.688248872756958,-0.007090404629707336,0.006823353469371796,-0.0067372918128967285,0.010760591365396976,-0.013789830729365349,0.00966615416109562,-0.1105126260328032,0.22588790256961774,0.13929712355348434
3.6985738277435303,-0.008372828364372253,0.010044686496257782,-0.0050508975982666016,0.01742781512439251,-0.01602129265666008,-0.0014914261410012841,-0.1103266520914678,0.2258050948948539,0.13931069192664589
3.7082886695861816,-0.010622620582580566,0.010237723588943481,-0.0015222430229187012,0.02069428190588951,-0.009103553369641304,-0.011046474799513817,-0.11013243448275815,0.22574411024313285,0.13921325617325828
3.7183828353881836,-0.01162131130695343,0.008169606328010559,-0.007646441459655762,0.03072987124323845,-0.007170099299401045,-0.015854012221097946,-0.10989504947152379,0.2257452011661059,0.1390319745722623
3.7283458709716797,-0.007553756237030029,0.008819043636322021,-0.014376461505889893,0.04552248492836952,-0.012223669327795506,-0.018209099769592285,-0.10950265532161774,0.22566329075499383,0.13878413650882454
3.7383546829223633,-0.0015579909086227417,0.009682714939117432,-0.00964343547821045,0.05388001725077629,-0.02448486164212227,-0.01769164763391018,-0.10903290773472782,0.22546343472136826,0.13848758810868417
3.7483348846435547,-0.0006586611270904541,0.006992071866989136,-0.0030278563499450684,0.04654545336961746,-0.03339007496833801,-0.02222280390560627,-0.10862359734923623,0.22513919201398744,0.13818883931277448
3.75830078125,0.0010417401790618896,0.00241842120885849,0.0011439919471740723,0.026769885793328285,-0.033928029239177704,-0.021575123071670532,-0.10837400206651326,0.2247481973840613,0.13788563206123325
3.768332004547119,0.0022819340229034424,-0.006622828543186188,0.0045357346534729,0.00032031768932938576,-0.03400344401597977,-0.023052113130688667,-0.10833603825019099,0.22433352673505227,0.1376265250172439
3.7783727645874023,0.0025887638330459595,-0.010998614132404327,0.00714951753616333,-0.016556134447455406,-0.03174695000052452,-0.018000628799200058,-0.10853207463681679,0.22394313513284517,0.13744049801545669
3.7883119583129883,0.00291365385055542,-0.008907757699489594,0.007991492748260498,-0.02308778651058674,-0.02935156784951687,-0.008073268458247185,-0.10882330179611997,0.22358369887914442,0.13735738274772247
3.7984509468078613,0.003328844904899597,-0.009055748581886292,0.010532021522521973,-0.02826683595776558,-0.022400449961423874,-0.001965042669326067,-0.10914102859342832,0.2232577132518509,0.13734856910689
3.8084468841552734,0.0023452043533325195,-0.008398078382015228,0.010921299457550049,-0.020287372171878815,-0.01791018433868885,0.006646128837019205,-0.10941578021225525,0.22302000037901354,0.137434403984011
3.818626880645752,0.002641543745994568,-0.004949897527694702,0.01092308759689331,-0.015239883214235306,-0.018975181505084038,0.012718935497105122,-0.10961565698982265,0.222845235616159,0.1375662587884179
3.829340934753418,0.005668804049491882,-0.004531010985374451,0.012724459171295166,-0.017069857567548752,-0.01597304455935955,0.02014595828950405,-0.10976221713107982,0.22270100742304524,0.13775787298562805
3.8384456634521484,0.006408587098121643,-0.004413791000843048,0.016950488090515137,-0.028769124299287796,-0.008495155721902847,0.02145942859351635,-0.10993596996061948,0.2226190729543075,0.13801680217850154
3.8487167358398438,0.007274031639099121,-0.007910870015621185,0.020517468452453613,-0.036979299038648605,0.004738403018563986,0.028754306957125664,-0.11016908203640885,0.22266082443651222,0.13834395726896295
3.858646869659424,0.010668367147445679,-0.007589034736156464,0.019641578197479248,-0.023564692586660385,0.010780315846204758,0.03930947929620743,-0.11033654147806937,0.2228153349743738,0.13874055258178697
3.868621826171875,0.00997278094291687,0.0005668178200721741,0.016552329063415527,-0.0018146219663321972,0.010384747758507729,0.04703531041741371,-0.11031348490642762,0.22299714244214017,0.13919540259064653
3.8788158893585205,0.013047546148300171,0.008989885449409485,0.013922393321990967,0.013392560184001923,0.015017583966255188,0.05113924294710159,-0.11008298593297765,0.2232037291060468,0.1396719742027368
3.8885579109191895,0.015018686652183533,0.012296885251998901,0.01178067922592163,0.008408620953559875,0.016707271337509155,0.04738413169980049,-0.10981084074184065,0.2234302208308662,0.14013938791022104
3.898850917816162,0.013646766543388367,0.011258475482463837,0.015512943267822266,-0.008791138418018818,0.026890132576227188,0.04293558746576309,-0.10968885453286702,0.22372485766710012,0.1405873411500906
3.9130218029022217,0.011796027421951294,0.005640774965286255,0.018149614334106445,-0.02110198326408863,0.023162195459008217,0.03273541480302811,-0.10973738166852803,0.22406126512704533,0.14100707490056794
3.9217238426208496,0.011277526617050171,0.007278747856616974,0.019033432006835938,-0.028248576447367668,0.018580758944153786,0.02522956021130085,-0.10990093603534831,0.224332736955081,0.14134880372293376
3.9332127571105957,0.01211114227771759,0.01095106452703476,0.020872533321380615,-0.03529747948050499,0.020014028996229172,0.020584847778081894,-0.11013628297149015,0.22459640621120025,0.14164378785087256
3.939574718475342,0.009929120540618896,0.014430530369281769,0.02082747220993042,-0.04808145388960838,0.02530652843415737,0.010293328203260899,-0.11048891853343257,0.2249045656083833,0.14189798570030665
3.9487128257751465,0.006651386618614197,0.011760920286178589,0.019695520401000977,-0.0532439723610878,0.02516675740480423,0.0037316717207431793,-0.1109795315632966,0.22522907111745552,0.14209094447423004
3.958716869354248,0.00373704731464386,0.011138565838336945,0.02171921730041504,-0.05095259100198746,0.03624098002910614,-0.0040532806888222694,-0.11152899228271235,0.2256053675839988,0.14220652697406444
3.968838691711426,0.0016396939754486084,0.013216815888881683,0.020972013473510742,-0.038224078714847565,0.039858441799879074,-0.006572683807462454,-0.11201726282553959,0.22605043855522133,0.14226222834099525
3.9787838459014893,0.0004521012306213379,0.01919766515493393,0.014737188816070557,-0.013224187307059765,0.039260562509298325,-0.007081880234181881,-0.11230961506032326,0.22649654474341507,0.14226460451841322
3.9887218475341797,0.002252236008644104,0.020182423293590546,0.012250840663909912,0.007273881230503321,0.0291510671377182,-0.009901529178023338,-0.11236279058062047,0.22687654724813686,0.14218354479137335
3.9989027976989746,0.0011375993490219116,0.01842603087425232,0.013090848922729492,0.006650701630860567,0.02191792242228985,-0.016185523942112923,-0.1123337180168189,0.22716025448684032,0.1420429112000044
4.0085837841033936,0.0009048581123352051,0.014330863952636719,0.014002323150634766,-0.013033688068389893,0.02053654193878174,-0.022784676402807236,-0.11243169961725684,0.22740320203302308,0.14187654495277657
4.018784999847412,-0.0008478760719299316,0.002349965274333954,0.012375831604003906,-0.0353483147919178,0.02980993315577507,-0.02829289250075817,-0.11278765340735156,0.22767837586306505,0.14167368506579883
4.028651714324951,-0.00480102002620697,-0.005784936249256134,0.011499941349029541,-0.039262112230062485,0.032271094620227814,-0.02783259190618992,-0.11328105262395942,0.22800780553983369,0.14148553121147456
4.038683891296387,-0.006803587079048157,0.0002949163317680359,0.004115879535675049,-0.022355299443006516,0.03375314176082611,-0.028608903288841248,-0.11370416550827542,0.22833811716222077,0.14128608986883637
4.048663854598999,-0.005791753530502319,0.0062297433614730835,0.0023970603942871094,0.0024520116858184338,0.02393326908349991,-0.02382725104689598,-0.1139046636533477,0.22862235136027984,0.14105645594590704
4.05876088142395,-0.008763015270233154,0.008730180561542511,0.0034735798835754395,0.010441761463880539,0.0213601216673851,-0.026610255241394043,-0.11396812514997104,0.2288247115784423,0.14078038809819912
4.06873083114624,-0.010070323944091797,0.0075135305523872375,0.0047914981842041016,0.0009327281732112169,0.023556476458907127,-0.029971538111567497,-0.11405619725434273,0.22902696003150613,0.140491094705135
4.078691005706787,-0.012028679251670837,-0.0005143210291862488,0.0022808313369750977,-0.0075552985072135925,0.023670459166169167,-0.03491649404168129,-0.11424224182908797,0.22924235820393438,0.1401740605125672
4.088651895523071,-0.010963916778564453,-0.006596580147743225,0.0020180344581604004,-0.009083287790417671,0.017301687970757484,-0.03748282417654991,-0.11448194014102767,0.2294099547183156,0.13984107145527086
4.0987207889556885,-0.010368362069129944,-0.005617901682853699,0.0018110871315002441,-0.002402481622993946,0.01071409322321415,-0.03457731381058693,-0.11463341014860502,0.22950820455492016,0.13948705338823222
4.108722686767578,-0.008012145757675171,0.00018761307001113892,-0.002595365047454834,0.004824954550713301,0.008219287730753422,-0.029007259756326675,-0.11465689705696298,0.2295495610584534,0.13917648983663178
4.1188249588012695,-0.006246715784072876,0.0030042752623558044,-0.009301185607910156,0.003225193824619055,0.010243290103971958,-0.027201369404792786,-0.11467852514920675,0.22957067464265696,0.1388766504688886
4.128750801086426,-0.007794022560119629,0.0014043226838111877,-0.01336747407913208,-0.002885745372623205,0.012948838993906975,-0.02939421683549881,-0.11476844463525133,0.22962680543134986,0.13858623711353726
4.138702869415283,-0.009146928787231445,-0.0030073747038841248,-0.014210343360900879,-0.0038418201729655266,0.005115684121847153,-0.03077826090157032,-0.114908605318119,0.22964105943294758,0.13828476214970317
4.148759841918945,-0.006859585642814636,-0.004187777638435364,-0.013080596923828125,-0.002086314372718334,-0.004691184498369694,-0.03209855034947395,-0.1150523627326589,0.22956758876350547,0.13797400355206496
