timestamp,accel_x,accel_y,accel_z,rotation_x,rotation_y,rotation_z, pitch,roll,yaw
0.040609121322631836,-0.002575799822807312,0.011571960523724556,0.001822829246520996,-0.007065681740641594,-0.0004892293363809586,-0.002425274346023798,0.02318597855206389,0.19899276255678872,-0.002314666962794137
0.053923845291137695,-0.0005608052015304565,0.010602304711937904,0.0016899704933166504,-0.002367332810536027,-0.0025832727551460266,-0.006613361649215221,0.023131843873147682,0.19897610534786198,-0.002355198706475174
0.06616711616516113,-0.0025349706411361694,0.006599521264433861,0.004855096340179443,-0.006843407638370991,-0.0010276315733790398,-0.00879060197621584,0.02306580798000434,0.19895056006931797,-0.002426258671633591
0.07498002052307129,-0.00471419095993042,0.0007187929004430771,0.005397796630859375,-0.007528905291110277,-0.004060172941535711,-0.007551433518528938,0.022983397626233592,0.1989161921859116,-0.002487881979155388
0.07701802253723145,-0.003296405076980591,0.0007613878697156906,0.0035310983657836914,-0.0018453531665727496,-0.005143369548022747,-0.005300423130393028,0.022934423470817582,0.19887056970466493,-0.0025431935439156296
0.08178997039794922,-0.002134948968887329,0.002954035997390747,0.002890467643737793,0.0044136084616184235,-0.008667796850204468,-5.5327313020825386e-05,0.022945066776635777,0.1987909366945485,-0.0025697849831153286
0.08856987953186035,-0.004668772220611572,0.0012090373784303665,0.0035059452056884766,0.0025200839154422283,-0.01136171817779541,0.003979734610766172,0.022985360666106684,0.19868303255812594,-0.0025583808303048226
0.09861397743225098,-0.006741508841514587,-0.0025500431656837463,0.005312979221343994,-0.0026115612126886845,-0.010311366990208626,0.0038851923309266567,0.02299520489848192,0.19857158389614338,-0.002530658083541767
0.1085808277130127,-0.00897902250289917,-0.005171226337552071,0.00783628225326538,-0.011070809327065945,-0.008987819775938988,0.0033245435915887356,0.02293747684452383,0.19847226181939312,-0.0024841891113134206
0.11864686012268066,-0.009610146284103394,-0.01019212044775486,0.009227395057678223,-0.020357253029942513,-0.0033347285352647305,0.009424247778952122,0.022784103267577075,0.19839933874870003,-0.0023953162426963524
0.12864398956298828,-0.009429141879081726,-0.009748954325914383,0.008894801139831543,-0.012224623933434486,0.0016079209744930267,0.01573364995419979,0.022632133797450847,0.198400785737363,-0.0022551341283695314
0.13865995407104492,-0.009554922580718994,-0.006829064339399338,0.005799472332000732,0.005252370610833168,-0.0019125118851661682,0.020269546657800674,0.022637595049762677,0.198389040201578,-0.0020647987729495317
0.1489551067352295,-0.007097303867340088,0.0023830197751522064,0.004447042942047119,0.016641994938254356,-0.0031984192319214344,0.02486323192715645,0.02280126023895899,0.19834210288495457,-0.0018578199214105142
0.15897583961486816,-0.0035496801137924194,0.006843795999884605,0.0010709166526794434,0.018680376932024956,0.002464260207489133,0.03010140359401703,0.02303541681894629,0.19833543716894755,-0.0016175097019642335
0.16882586479187012,-0.0032868534326553345,0.0017985701560974121,-0.0006452798843383789,0.010963402688503265,0.003535029012709856,0.029184795916080475,0.023239262071375087,0.1983484654916728,-0.001352911543248977
0.17899799346923828,-0.004350394010543823,0.000292263925075531,0.0009944438934326172,0.006165718659758568,0.0036628604866564274,0.02651098184287548,0.023365683857076488,0.19837552313971987,-0.0010967681921229865
0.18900084495544434,-0.0037156343460083008,0.001943107694387436,0.0009521245956420898,0.009443104267120361,-0.0016938215121626854,0.02567474916577339,0.023689102692656946,0.1980874982849538,-0.0008420157584613947
0.19898676872253418,-0.002036064863204956,0.007626401260495186,-0.0022097229957580566,0.01213902235031128,-0.010801564902067184,0.020743640139698982,0.02421507824453767,0.19773085852554037,-0.0006320199163503049
0.20889782905578613,-0.0012710094451904297,0.012381436303257942,-0.0010612010955810547,0.008642075583338737,-0.013743869960308075,0.013036718592047691,0.024682532583709064,0.1973418361007535,-0.00047823222061431743
0.2188279628753662,-0.00020128488540649414,0.009291768074035645,-0.0007103085517883301,0.0005335486494004726,-0.01792583242058754,0.005046437028795481,0.02493461555868062,0.19692119099834876,-0.00039299927549103634
0.22874093055725098,-0.0021838247776031494,0.006040466949343681,0.0007191300392150879,-0.0026511591859161854,-0.01642034761607647,-0.0019826036877930164,0.024765541062680287,0.19657682621074335,-0.00037737538806313344
0.23885703086853027,-0.00269491970539093,0.0038855597376823425,0.004875898361206055,-0.0006252926541492343,-0.01955781690776348,-0.0010204036952927709,0.024441589174278217,0.19634950007785118,-0.0003911004478526705
0.24885201454162598,-0.0023949891328811646,0.005775446072220802,0.007916450500488281,0.003317018039524555,-0.018031027168035507,-0.0008501744596287608,0.024347806765065566,0.19610539953659709,-0.00040553581059726287
0.2588388919830322,-0.001974835991859436,0.007377175614237785,0.007593512535095215,0.009622052311897278,-0.016108490526676178,0.0037046298384666443,0.024377884592162533,0.1958793690974323,-0.00039985338567547564
0.26898694038391113,-0.003319978713989258,0.004256870597600937,0.006881117820739746,0.008617174811661243,-0.01196266058832407,0.008187209255993366,0.02440090046715068,0.19569516903178605,-0.000345408945554491
0.27886509895324707,-0.005765169858932495,0.003435855731368065,0.008828580379486084,0.0022290500346571207,-0.00717509537935257,0.010813885368406773,0.024220698486365645,0.19558924040838332,-0.0002647914883920959
0.28905391693115234,-0.007027938961982727,-3.9715319871902466e-05,0.012674987316131592,-0.006961468607187271,-0.0018673711456358433,0.006312503945082426,0.023827287392300334,0.1955524594580301,-0.00016995157533834714
0.29900097846984863,-0.01135985553264618,-0.004479633644223213,0.018043875694274902,-0.02138940989971161,0.006825719494372606,0.002527619246393442,0.023430839073493127,0.1956112154729058,-9.969698405733665e-05
0.30907702445983887,-0.010959789156913757,-0.006729466840624809,0.018312573432922363,-0.02055732160806656,0.012755824252963066,0.0017435848712921143,0.0230729967762121,0.1956839561786452,-3.771828247782091e-05
0.3193628787994385,-0.007893890142440796,-0.0018169470131397247,0.015205025672912598,-0.012212307192385197,0.009568553417921066,0.0023414643947035074,0.02284324682658151,0.19576186135307444,7.03881694090607e-06
0.32906293869018555,-0.005015239119529724,0.00469188392162323,0.011439621448516846,-0.003996404819190502,0.010379264131188393,0.002915801480412483,0.02265342274565005,0.19584416018090917,4.644535453133991e-05
0.33915209770202637,-0.0007314532995223999,0.0073103513568639755,0.008315205574035645,-0.0037122457288205624,0.009359540417790413,0.003864686004817486,0.022464223614347224,0.19592515003563882,9.164163001607583e-05
0.34906601905822754,-0.0004760324954986572,0.0046127066016197205,0.0056591033935546875,-0.007889579981565475,0.010455075651407242,0.0017497099470347166,0.022345286571243666,0.19594423094283783,0.00013162105145378205
0.35919690132141113,-0.003228619694709778,0.0008766800165176392,0.005727708339691162,-0.008634999394416809,0.008529610000550747,-0.00013021542690694332,0.022225561173402495,0.1959187029769673,0.00015670837850339194
0.36928486824035645,-0.006174862384796143,0.0024815164506435394,0.004705309867858887,-0.0034086452797055244,0.005080993752926588,-0.00574261462315917,0.02221295942797543,0.19584215833326224,0.00014344202243019052
0.37902379035949707,-0.006173774600028992,0.006804263219237328,0.0009086132049560547,-0.0010168603621423244,0.002635679440572858,-0.01077998336404562,0.022354840308959418,0.1956549700516079,6.934700343152671e-05
0.3891160488128662,-0.007588133215904236,0.005910634994506836,-0.0008010268211364746,-0.0007081500953063369,0.0022720247507095337,-0.014117510057985783,0.022544633651791948,0.19547986814687074,-5.6463231182233944e-05
0.3992178440093994,-0.01092781126499176,0.003015214577317238,-0.0006150603294372559,-0.0023015195038169622,0.0017708179075270891,-0.017965512350201607,0.022563644268742827,0.19538454990668516,-0.000211035263449297
0.4091670513153076,-0.011720389127731323,-4.137307405471802e-05,-0.0002658367156982422,-0.002844105241820216,0.0012035644613206387,-0.018527599051594734,0.02237565827204383,0.19533613028653124,-0.00037641288262363153
0.41932082176208496,-0.008300185203552246,-0.0026058275252580643,0.00037157535552978516,0.002848401665687561,-0.0027432399801909924,-0.013545623049139977,0.022145741172611328,0.19537952554032778,-0.0005285142298430134
0.42925000190734863,-0.007849738001823425,-0.00471903569996357,7.843971252441406e-05,0.013714381493628025,0.0006998279131948948,-0.00456634908914566,0.022092458050180376,0.1954023031263222,-0.0006384591325655721
0.44097304344177246,-0.0038651973009109497,-0.0007449928671121597,-0.0030261874198913574,0.026148680597543716,-0.007130132522433996,0.003936058841645718,0.022282367513804174,0.19533887622149343,-0.0006706026237979322
0.44934582710266113,0.0005710721015930176,0.0017279013991355896,-0.006786048412322998,0.02801494114100933,-0.012340385466814041,0.0053305430337786674,0.022497011701242336,0.19511056494842854,-0.0006734160799995468
0.45918893814086914,-0.00027786195278167725,-0.0028879940509796143,-0.0037465691566467285,0.01104048453271389,-0.01040373370051384,0.006232023239135742,0.02251980328933455,0.19485609374825985,-0.0006499054817177606
0.46924495697021484,-0.0043371617794036865,-0.010056652128696442,-0.00033211708068847656,-0.011545434594154358,-0.00950860045850277,0.0021717145573347807,0.022370147586327098,0.19457588660974595,-0.0006021583690841399
0.47923898696899414,-0.0057669878005981445,-0.011811237782239914,0.0013634562492370605,-0.019604427739977837,-0.015075139701366425,-0.0010477809701114893,0.02214138084241169,0.19419695520747884,-0.000564764807070856
0.48926377296447754,-0.0022479742765426636,-0.011439135298132896,0.002402663230895996,-0.018415607511997223,-0.02289484813809395,-0.00047216523671522737,0.021948863376481588,0.19373535793110913,-0.0005456463079019513
0.49942994117736816,-0.0005861520767211914,-0.0043644290417432785,0.0012917518615722656,-0.013321779668331146,-0.025511668995022774,6.552704144269228e-05,0.021867174525802106,0.1933320633283053,-0.0005148226128182193
0.5093109607696533,0.00014340877532958984,0.0006897412240505219,0.0011388063430786133,-0.004283294081687927,-0.025054626166820526,0.00373861170373857,0.02191648089106179,0.19293085744475688,-0.0004760472449043201
0.5193197727203369,-0.0005317479372024536,-0.001100076362490654,0.0012700557708740234,0.0040859561413526535,-0.022347789257764816,0.0070827435702085495,0.021957726086405914,0.19263939300429633,-0.00042321112544200823
0.5293228626251221,-0.000610053539276123,0.0016617793589830399,0.002506077289581299,0.012602112255990505,-0.018571337684988976,0.00974356010556221,0.022034055556869755,0.19247074263751607,-0.0003513779982514246
0.5393269062042236,-0.0008670985698699951,0.004308629781007767,0.002928018569946289,0.008987137116491795,-0.02065419591963291,0.010140905156731606,0.022254806684371388,0.19231380260715614,-0.00027845378546691716
0.5492990016937256,-0.002246662974357605,0.00512782484292984,0.0056552886962890625,0.0019823580514639616,-0.01962807960808277,0.0012689027935266495,0.022585808882495895,0.1920573058491426,-0.00024345847701231615
0.5596020221710205,0.00017890334129333496,-0.0004655197262763977,0.010247588157653809,-0.014138287864625454,-0.016467440873384476,-0.004808430559933186,0.02280611929012626,0.1917945460971959,-0.0002536369918919381
0.5703990459442139,-0.003958657383918762,-0.002670392394065857,0.013968110084533691,-0.023409616202116013,-0.015464939177036285,-0.010053313337266445,0.022859559477236,0.19164178674616444,-0.000290230553981354
0.5792567729949951,-0.004855945706367493,0.0008503366261720657,0.012997567653656006,-0.014551145024597645,-0.01314212940633297,-0.013223273679614067,0.022733406951993478,0.19154491647664024,-0.0003749185396091199
0.5892598628997803,-0.0021588951349258423,0.001378428190946579,0.013289570808410645,-0.00477872509509325,-0.010964062064886093,-0.008073465898633003,0.02259006915050347,0.19147036451510832,-0.00045658033574746834
0.5992538928985596,-0.0018897652626037598,0.00843869335949421,0.012174248695373535,0.003128200303763151,-0.008338186889886856,-0.0032526119612157345,0.022585517214210697,0.19139824533860783,-0.0005037026679840591
0.6096150875091553,-0.0004208683967590332,0.011071013286709785,0.010136425495147705,0.005024287384003401,-0.0026510506868362427,-0.004936208948493004,0.022578061816523286,0.19136299351042624,-0.0005506878740831166
0.619438886642456,-0.00099867582321167,0.004260646179318428,0.009901285171508789,-0.0005350613500922918,0.005287566222250462,-0.00028606358682736754,0.022481538786146588,0.19140715024579835,-0.0005850810371606728
0.6294310092926025,-0.0059776753187179565,0.0010345149785280228,0.011423647403717041,-0.004293464124202728,0.005580292083323002,-0.004680811893194914,0.02233764856293648,0.1914423397494051,-0.0005807570581363496
0.639427900314331,-0.00515766441822052,0.003030385822057724,0.010166287422180176,0.0015939860604703426,0.005638881586492062,-0.007195634767413139,0.02233461418765774,0.1915551966128504,-0.0006441593216182537
0.6493508815765381,-0.0020371824502944946,0.004184866324067116,0.00974130630493164,0.006509899161756039,0.01260344684123993,-0.004215451423078775,0.022451530557197463,0.19161005798589575,-0.0007058901531448664
0.6594388484954834,-0.002949655055999756,0.003826059401035309,0.007424056529998779,0.012157131917774677,0.009981032460927963,-0.00212220661342144,0.022535249670791534,0.1916694881310696,-0.0007507591017986796
0.6694347858428955,-0.004437834024429321,0.0032820235937833786,0.005820810794830322,0.01754668727517128,0.003517851699143648,-0.0027448534965515137,0.022662629480988936,0.19174045228143,-0.0007966011338346584
0.6794331073760986,-0.0012574046850204468,8.791685104370117e-05,0.0072247982025146484,0.006917213089764118,0.0001542791724205017,-0.0028569726273417473,0.022581299552955097,0.19174893157581718,-0.0008401470146008743
0.6896097660064697,-0.00016447901725769043,-0.003304198384284973,0.007651031017303467,-0.006198805756866932,0.0015988219529390335,-0.001596338814124465,0.022317164175771044,0.1917847030568806,-0.0008676759414083306
0.6995360851287842,-0.004610136151313782,-0.00836256891489029,0.0058196187019348145,-0.004614757839590311,-0.003218303434550762,-0.00012973602861166,0.022156824408756437,0.1918050067663804,-0.0008654612592643498
0.7097039222717285,-0.004372641444206238,-0.006696745753288269,0.002924799919128418,0.0033306835684925318,-0.012766091153025627,-0.0008437827927991748,0.02212892166729048,0.1916250808201149,-0.0008641398202412966
0.7195308208465576,-0.0013311952352523804,0.003446470946073532,0.002833247184753418,0.004019643180072308,-0.01747136563062668,-0.0014642993919551373,0.022109777780871136,0.19138676893629022,-0.0008834294287507969
0.7294938564300537,-0.0017800480127334595,0.005458023399114609,0.0039013028144836426,-0.005365585908293724,-0.011691106483340263,-0.0033230260014533997,0.022015594519957975,0.19123735695045257,-0.0009074932811913719
0.7395250797271729,-0.006878778338432312,-0.0016650501638650894,0.004031658172607422,-0.007695852313190699,-0.006837761495262384,-0.005376855842769146,0.021865748352602406,0.19113024728731073,-0.0009304908240003393
0.7502529621124268,-0.007078155875205994,-0.0035021156072616577,0.005833864212036133,-0.004875614307820797,-0.010585229843854904,-0.0096927210688591,0.021737639775669344,0.1909752937377466,-0.0009848978245119585
0.7595479488372803,-0.0057920366525650024,0.002563970163464546,0.005667150020599365,-0.0052908011712133884,-0.00904991663992405,-0.010593135841190815,0.02170019806358115,0.19089293575617394,-0.0010720537547439753
0.7696399688720703,-0.005165010690689087,0.0033520981669425964,0.005358397960662842,-0.0008833194151520729,0.000993263442069292,-0.006179425865411758,0.021740656357215123,0.19090720431142297,-0.0011553226350598065
0.7795708179473877,-0.006990343332290649,0.0007829908281564713,0.0022071003913879395,0.012303588911890984,-0.002274169120937586,-0.0031663256231695414,0.021994488811240987,0.19084026920220554,-0.001201136609096951
0.7896568775177002,-0.005921691656112671,0.004894476383924484,0.0009900331497192383,0.025128323584794998,-0.011655021458864212,-0.008069843985140324,0.02233713792356166,0.19070130459590875,-0.0012958637372556892
0.8012509346008301,-0.0011577010154724121,0.005863364785909653,0.005180180072784424,0.01720568723976612,-0.014520581811666489,-0.007498063612729311,0.022451562471339358,0.1905585779555025,-0.0014167214243653305
0.8097939491271973,-0.0014876872301101685,0.00215301476418972,0.006735503673553467,-0.004319080151617527,-0.014659510925412178,-0.014487529173493385,0.02237277814242817,0.19041252599564173,-0.0015406263321253557
0.8220539093017578,-0.004583314061164856,-0.005914302542805672,0.006752431392669678,-0.02235027775168419,-0.00853397324681282,-0.01993848755955696,0.022239998973419647,0.19017686102433123,-0.0016929985919572762
0.8297097682952881,-0.005834460258483887,-0.010593531653285027,0.0058515071868896484,-0.018155667930841446,-0.013853281736373901,-0.02098633535206318,0.022062074539148303,0.18995845140078807,-0.0018598584824451594
0.8396928310394287,-0.0037576109170913696,-0.0036402344703674316,0.00411832332611084,-0.0029863014351576567,-0.017555074766278267,-0.02038206346333027,0.021843688966944868,0.18970717794116096,-0.0020339597123978843
0.8513009548187256,7.0914626121521e-05,0.004362465813755989,0.004584908485412598,0.013572984375059605,-0.011753778904676437,-0.009775065816938877,0.021774471363458867,0.1895063152424697,-0.0021948141587948625
0.859752893447876,-0.0018069148063659668,0.005627397447824478,0.0009868144989013672,0.023767298087477684,-0.018345102667808533,-0.004756339360028505,0.021940806995507108,0.18922830461098414,-0.0022834011238132197
0.8697030544281006,-0.0011049062013626099,0.004405185580253601,-0.00043076276779174805,0.020220549777150154,-0.015800142660737038,-0.007972478866577148,0.022046133823207966,0.18896446501160932,-0.0023890542133534675
0.879767894744873,0.0004953145980834961,-0.0006219334900379181,0.0032213926315307617,0.0037563564255833626,-0.012872794643044472,-0.012248983606696129,0.022023891420765357,0.18885759077938155,-0.0025049484900753383
0.8899447917938232,-0.0028555095195770264,-0.005377072840929031,0.0065236687660217285,-0.01704416424036026,-0.01596667803823948,-0.01698637381196022,0.021892139729750553,0.1887575731630318,-0.0026310647410517944
0.9011509418487549,-0.0046651363372802734,-0.007798131555318832,0.009604394435882568,-0.024171847850084305,-0.023097293451428413,-0.026993999257683754,0.02179038579685602,0.18853331890665864,-0.002810225273039956
0.9098958969116211,0.0008447170257568359,-0.006240513175725937,0.011844098567962646,-0.009865894913673401,-0.02475009486079216,-0.021117575466632843,0.021822137899422334,0.18822126617985624,-0.0030161396942818683
0.9199478626251221,0.002264663577079773,-0.002101706340909004,0.00873035192489624,0.008400460705161095,-0.034394729882478714,-0.012535006739199162,0.021871603714734296,0.18789432045743637,-0.0031763041068504512
0.9299309253692627,0.0005940645933151245,0.008343631401658058,0.005029499530792236,0.023933131247758865,-0.035863421857357025,-0.00941575225442648,0.021910452064472175,0.18760683323123553,-0.0033223583329959963
0.9401648044586182,0.00620153546333313,0.008842144161462784,0.0017480850219726562,0.01752849481999874,-0.03220130875706673,-0.007947019301354885,0.021996997919939483,0.18727333156876425,-0.003443497602633227
0.9523508548736572,0.004113897681236267,0.001948971301317215,0.0009743571281433105,0.00014497688971459866,-0.029563890770077705,-0.007260137237608433,0.021970273697615703,0.187006293965051,-0.0035379401440357523
0.9598269462585449,0.0006995946168899536,-0.004850570112466812,0.005430400371551514,-0.020489461719989777,-0.032262735068798065,-0.014059719629585743,0.02186931624272226,0.18676913089783623,-0.0036253240721931105
0.9698808193206787,0.0037001371383666992,-0.01252032071352005,0.010533571243286133,-0.05956772342324257,-0.0562431737780571,-0.024062447249889374,0.021584755534776175,0.18635412949543503,-0.0037460999155813244
0.9798591136932373,0.007168233394622803,-0.017111657187342644,0.017315030097961426,-0.1300661265850067,-0.07817723602056503,-0.03385089337825775,0.02080794406992453,0.18566329485650673,-0.003860206677070128
0.989858865737915,0.009135812520980835,-0.030452964827418327,0.028020918369293213,-0.19707703590393066,-0.09518919140100479,-0.042247362434864044,0.019307151501557027,0.1849441967467336,-0.003920542391080016
1.001600980758667,0.007286518812179565,-0.03528652340173721,0.03165322542190552,-0.30875295400619507,-0.12288394570350647,-0.10289473086595535,0.01691460633154918,0.1840076593951101,-0.004130909086552918
1.0099170207977295,0.005119457840919495,-0.041230276226997375,0.03553074598312378,-0.5838860273361206,-0.1462850570678711,-0.20136164128780365,0.012328396385730512,0.18276939984786886,-0.004835815282337669
1.0198938846588135,0.00040675699710845947,-0.09936140477657318,0.05568647384643555,-0.9966539144515991,-0.06853965669870377,-0.2734222710132599,0.004230530757525483,0.1817927172505679,-0.005801244766202612
1.029958963394165,-0.010733380913734436,-0.15321408212184906,0.08673584461212158,-1.5016752481460571,-0.1674427092075348,-0.40171557664871216,-0.008759233530870974,0.18071342022572667,-0.0068133643350453054
1.039928913116455,-0.01442737877368927,-0.13280966877937317,0.12732046842575073,-2.12162184715271,-0.3186796307563782,-0.656368613243103,-0.027344314318755364,0.17820084799121538,-0.008748844999426873
1.0516068935394287,-0.003971070051193237,-0.21862541139125824,0.1584445834159851,-3.020782709121704,-0.3869893550872803,-0.9340408444404602,-0.05391762834585794,0.1745109204495612,-0.01203273951989383
1.0599279403686523,-0.015337690711021423,-0.33098646998405457,0.1634926199913025,-4.006991386413574,-0.4154241681098938,-1.2710598707199097,-0.09054003707918885,0.17018739963717813,-0.01694768560480972
1.069969892501831,-0.032863736152648926,-0.3268500864505768,0.17441868782043457,-4.77004337310791,-0.4379253685474396,-1.4675211906433105,-0.13636963728160365,0.1650976960563299,-0.023255489163724764
1.0799269676208496,-0.020293891429901123,-0.2856547236442566,0.15538936853408813,-5.212431907653809,-0.5230882167816162,-1.592197299003601,-0.18831602677908468,0.15926832242897046,-0.03035531216381895
1.0900280475616455,0.02187618613243103,-0.11832146346569061,0.10939377546310425,-5.416774749755859,-0.7213072180747986,-1.749619722366333,-0.24360262907149724,0.15122295229268964,-0.03887317343233959
1.1013689041137695,0.042265281081199646,0.03408670425415039,0.07471758127212524,-5.549163341522217,-0.9512339234352112,-1.8169529438018799,-0.30047725380559115,0.1401734554948201,-0.0489330921965346
1.1100099086761475,0.05604580044746399,0.05612057447433472,0.02912747859954834,-6.039443492889404,-1.2537381649017334,-2.045294761657715,-0.36018644961214735,0.12515787564627381,-0.060909097373428506
1.1200149059295654,0.039058834314346313,0.030455052852630615,0.05051666498184204,-6.892271518707275,-1.3589868545532227,-2.265362501144409,-0.4267968612556288,0.10610820856093298,-0.07622851140388232
1.1300990581512451,-0.007401078939437866,-0.11279970407485962,0.08417046070098877,-8.09167766571045,-1.4407984018325806,-2.4269421100616455,-0.503442550698257,0.08402993396126342,-0.0943621452406884
1.1400189399719238,-0.027961403131484985,-0.24930286407470703,0.11388427019119263,-9.885878562927246,-1.5654656887054443,-2.8624136447906494,-0.5947384241617386,0.05650216885096986,-0.11786182249832548
1.1511869430541992,-0.06854966282844543,-0.3366955518722534,0.24705898761749268,-12.100297927856445,-1.5472475290298462,-3.008924961090088,-0.7055636643910335,0.02171944064550248,-0.14968866315931334
1.1600329875946045,-0.09257226437330246,-0.4491007328033447,0.3081809878349304,-14.765385627746582,-1.461490273475647,-3.0942492485046387,-0.8399159315477812,-0.02341355848720925,-0.19233673659530126
1.170102834701538,-0.08083774149417877,-0.4546022415161133,0.3417191505432129,-17.489456176757812,-1.037808895111084,-3.1864428520202637,-0.9993554212487094,-0.08950385789120556,-0.2592899800088312
1.1799848079681396,-0.10804926604032516,-0.4318265914916992,0.329265296459198,-19.675798416137695,-0.5168882012367249,-3.243973731994629,-1.1795676802947623,-0.2124294134659391,-0.3886969555813293
1.190148115158081,-0.13367311656475067,-0.24069231748580933,0.33721017837524414,-20.69182777404785,-0.2056848108768463,-3.582087278366089,-1.3572233401123643,-0.5663959371620277,-0.7540698860608644
1.2014729976654053,-0.17896109819412231,0.06717896461486816,0.4065486192703247,-20.071897506713867,0.0038657488767057657,-4.21373176574707,-1.4160959299975484,-1.7247427258493553,-1.9266159256470203
1.2101690769195557,-0.21869541704654694,0.3368837237358093,0.367404967546463,-18.738296508789062,-0.4283379912376404,-4.832240581512451,-1.276532243810117,-2.397319345300662,-2.6116529799482735
1.2202670574188232,-0.20271798968315125,0.47731441259384155,0.23970553278923035,-17.087581634521484,-0.7527501583099365,-4.631099700927734,-1.1036985553500553,-2.5819514079740964,-2.8035466822192108
1.2309839725494385,-0.05714687705039978,0.6892597079277039,0.16404247283935547,-14.269121170043945,-1.1264883279800415,-4.234251499176025,-0.9449723033964774,-2.657867609132036,-2.880887651682121
1.240278959274292,0.04325464367866516,1.1166279315948486,-0.08246088027954102,-10.532332420349121,-1.5223349332809448,-3.886229991912842,-0.8154104907332913,-2.6942368316373098,-2.9113104622879398
1.2511699199676514,0.04816436767578125,1.2863744497299194,-0.3566797971725464,-6.77099609375,-1.8087166547775269,-3.207523822784424,-0.7221274892629945,-2.715314118199409,-2.917777304612021
1.260329008102417,0.11525657773017883,1.1882410049438477,-0.42997807264328003,-3.378830671310425,-2.167154312133789,-2.8475117683410645,-0.663872749546027,-2.72951173268387,-2.908444877603183
1.2702558040618896,0.12441900372505188,0.9784398078918457,-0.4013475179672241,-1.362941026687622,-1.8875346183776855,-2.4505271911621094,-0.6324339733741213,-2.7386748907723826,-2.8893191378487093
1.2801508903503418,0.12316510081291199,0.43057113885879517,-0.36438578367233276,-0.6220242977142334,-1.2683523893356323,-1.9885883331298828,-0.6152714181946759,-2.742324220810629,-2.8684248989111585
1.290360927581787,-0.017913728952407837,-0.04844808578491211,-0.26307880878448486,-0.7820939421653748,-0.6482598781585693,-1.4946287870407104,-0.6023810222087601,-2.7424962310830407,-2.852046220753318
1.3016607761383057,-0.03893333673477173,-0.18332135677337646,-0.05430644750595093,-1.178815245628357,-0.13787677884101868,-1.060112714767456,-0.5883569775046634,-2.7409395574416506,-2.84246881773656
1.3103899955749512,0.047266632318496704,-0.11672419309616089,0.12402892112731934,-1.4076977968215942,0.1455543041229248,-0.7172312140464783,-0.5728173967167024,-2.7388615470540887,-2.838936881807455
1.320950984954834,0.0741654634475708,-0.09657597541809082,0.232449471950531,-1.189606785774231,0.20113714039325714,-0.48094332218170166,-0.5583507814029175,-2.736852147194226,-2.8386262497656567
1.3303720951080322,0.07180947065353394,-0.12250816822052002,0.25217390060424805,-0.6416340470314026,0.11625536531209946,-0.3220113217830658,-0.5482445239109941,-2.7351488083103397,-2.8386159052636746
1.3403639793395996,0.07125839591026306,-0.09466934204101562,0.19623428583145142,-0.11520782113075256,0.015427552163600922,-0.19293376803398132,-0.5438262054424535,-2.733975207805216,-2.837548971917189
1.351668119430542,0.06683146953582764,-0.03322124481201172,0.13829362392425537,0.21426600217819214,-0.01190655492246151,-0.0354963019490242,-0.5440391658073108,-2.7332031078181536,-2.8359937171972986
1.3603029251098633,0.059415966272354126,-0.012504160404205322,0.09932923316955566,0.19485501945018768,0.05011073872447014,0.07252630591392517,-0.5462033535310611,-2.7327122379919415,-2.8352325403171585
1.3703489303588867,0.04784291982650757,-0.029369771480560303,0.07422465085983276,0.045935049653053284,0.14682166278362274,0.16917194426059723,-0.5478885284764445,-2.7320812692165064,-2.835925279993582
1.3803880214691162,0.028768718242645264,-0.07365250587463379,0.051013171672821045,-0.1716310828924179,0.25820812582969666,0.23477305471897125,-0.5481050639190999,-2.731362032884941,-2.8384348259058343
1.3904829025268555,0.009911537170410156,-0.0876154899597168,0.030376434326171875,-0.20734630525112152,0.30796390771865845,0.28483468294143677,-0.5473199294441993,-2.7304170016751628,-2.8421713489439884
1.401216983795166,-0.00098341703414917,-0.037762999534606934,0.000400543212890625,-0.122610904276371,0.3055657148361206,0.3116130232810974,-0.5469600281959742,-2.7294016119864484,-2.8461994208620727
1.4105260372161865,0.0017964541912078857,0.03934699296951294,-0.010841727256774902,0.04053622484207153,0.2427016645669937,0.3017703890800476,-0.5478450774500083,-2.728440143554692,-2.849703411161478
1.42051100730896,0.0032961368560791016,0.09914112091064453,-0.01832294464111328,0.0892944410443306,0.1905612349510193,0.2497306615114212,-0.5496216477680606,-2.727723664122149,-2.8523448019738913
1.430633783340454,-0.004986584186553955,0.09768128395080566,-0.01119905710220337,0.0903078243136406,0.1845739632844925,0.23651273548603058,-0.5514778860186409,-2.7269843898426807,-2.8544852660486497
1.4408857822418213,-0.02192610502243042,0.0662568211555481,-0.006422638893127441,0.06777322292327881,0.15817058086395264,0.2212059497833252,-0.5531345762983901,-2.726322065376084,-2.8566014518007106
1.4516160488128662,-0.032511502504348755,0.06903970241546631,0.0035390257835388184,0.06301821768283844,0.08336123824119568,0.14634747803211212,-0.5545629183651478,-2.726064349689393,-2.8583492872145295
1.4605779647827148,-0.02541285753250122,0.09685683250427246,0.022640109062194824,0.08682634681463242,0.034353483468294144,0.040098268538713455,-0.5555498824839237,-2.725770202899408,-2.8589228707321035
1.4705398082733154,-0.02859559655189514,0.06364822387695312,0.0031847357749938965,0.062155500054359436,0.04890015721321106,-0.008270327001810074,-0.5563830092318541,-2.725297760981928,-2.8587107558243807
1.4804418087005615,-0.045063287019729614,0.0021735429763793945,-0.017489135265350342,0.08607015758752823,0.04687695577740669,-0.04300700128078461,-0.5569184636300816,-2.7244471568781727,-2.8581068341590687
1.4906349182128906,-0.03855219483375549,0.03963887691497803,-0.007823944091796875,0.19722400605678558,0.015498081222176552,-0.05935199558734894,-0.5579735780806899,-2.723472530891024,-2.856870011716186
1.5019137859344482,-0.007570207118988037,0.08496028184890747,0.0015333890914916992,0.31559857726097107,-0.014885656535625458,-0.03518141061067581,-0.5605264140148403,-2.7225362829233073,-2.855094141724128
1.5105860233306885,4.32133674621582e-06,0.06825655698776245,-0.0005864500999450684,0.38362929224967957,-0.018595440313220024,-0.008147449232637882,-0.5636586037095291,-2.7216880090159767,-2.8531659655880444
1.5205128192901611,-0.00790223479270935,0.04259580373764038,-0.00629734992980957,0.36415785551071167,-0.011541791260242462,0.014667320065200329,-0.5672132330338958,-2.720900855122814,-2.85136398608522
1.5305709838867188,-0.011922001838684082,0.00480961799621582,-0.005517363548278809,0.32237952947616577,0.009637618437409401,0.04224472492933273,-0.5704797156866157,-2.72015285084165,-2.849982468199743
1.5405778884887695,-0.01334485411643982,-0.030329406261444092,-0.0015344619750976562,0.2655559480190277,0.04435618221759796,0.07936492562294006,-0.5734535654180455,-2.719497770970234,-2.8492440116000766
1.5517728328704834,-0.01575535535812378,-0.041245877742767334,-0.007206559181213379,0.27510884404182434,0.0587252676486969,0.06984423846006393,-0.5762248226079136,-2.718690181654574,-2.8487692483381286
1.561086893081665,-0.019115567207336426,-0.039768755435943604,-0.00569683313369751,0.33902737498283386,0.08345352113246918,0.08056798577308655,-0.5793433409833646,-2.717618243151523,-2.848077718466558
1.5712940692901611,-0.017897695302963257,-0.04851144552230835,-0.027385950088500977,0.4907580018043518,0.15898817777633667,0.11749308556318283,-0.5834505659113731,-2.7159399969952953,-2.8471469085943064
1.5805509090423584,-0.018887042999267578,-0.03593534231185913,-0.04663968086242676,0.8210885524749756,0.21019624173641205,0.19314603507518768,-0.5900437165796534,-2.713177094115642,-2.8455853400367292
1.590730905532837,-0.013764351606369019,0.012610137462615967,-0.04296201467514038,1.3375290632247925,0.26358145475387573,0.27422165870666504,-0.6007613866416099,-2.7092005538408026,-2.842766692434245
1.6015660762786865,0.006762564182281494,0.06142145395278931,-0.04341626167297363,1.9690934419631958,0.31053218245506287,0.3695433735847473,-0.6170962615950875,-2.703509049700942,-2.8378143877131303
1.610719919204712,0.017793864011764526,0.06858104467391968,-0.06131714582443237,2.837998151779175,0.4137236773967743,0.5347727537155151,-0.6407169403889471,-2.6952699369259108,-2.8301316777395127
1.6206181049346924,0.013438582420349121,0.07070237398147583,-0.05571967363357544,3.6230509281158447,0.3812791705131531,0.7070356011390686,-0.6726213843033443,-2.6846995634082895,-2.8193840429275077
1.6306629180908203,0.019395679235458374,0.12207794189453125,0.02703535556793213,4.441774845123291,0.42496392130851746,0.8563429713249207,-0.7121935462570462,-2.671589085673416,-2.8050165609540314
1.640733003616333,0.030841857194900513,0.13560062646865845,0.08482784032821655,5.349812030792236,0.5874905586242676,1.1111347675323486,-0.7601920264902952,-2.653971257193785,-2.786281746974236
1.6517140865325928,0.00025331974029541016,0.0785527229309082,0.05460900068283081,6.397252559661865,0.755155622959137,1.4323228597640991,-0.8178462909221498,-2.6301643486504958,-2.762238894961733
1.660649061203003,-0.01946619153022766,0.1196935772895813,0.04951071739196777,7.78214168548584,0.8878716230392456,1.783059000968933,-0.8870618275014711,-2.5969744959518226,-2.729162384769861
1.6707890033721924,-0.010903477668762207,0.2344985008239746,0.06969323754310608,9.628307342529297,0.9548513293266296,2.2151505947113037,-0.9710584578244811,-2.547470803182045,-2.6790078891064457
1.6806869506835938,-0.0077619850635528564,0.3619622588157654,0.12856432795524597,11.752062797546387,0.7600660920143127,2.732705593109131,-1.0721085246989663,-2.4673502755321954,-2.595628992609084
1.6908018589019775,-0.01703113317489624,0.5268080234527588,0.3056957423686981,13.813276290893555,0.3107764720916748,3.187716007232666,-1.1869126223870357,-2.3232620704769658,-2.4426870469938406
1.7016808986663818,-0.012461930513381958,0.6981267333030701,0.592760443687439,15.339462280273438,-0.2641259729862213,3.46571946144104,-1.2987370199249493,-2.02236565372816,-2.125773270576292
1.711648941040039,-0.03694126009941101,0.7022486329078674,0.8588249683380127,16.784189224243164,-0.4473302662372589,3.2394282817840576,-1.3571092150100765,-1.3886868660655287,-1.4707260328715872
1.7215378284454346,-0.16775043308734894,0.42594999074935913,1.0465365648269653,16.80641746520996,-0.1612340807914734,2.721663236618042,-1.2965522039296613,-0.7269377123263651,-0.7871534925535167
1.7309589385986328,-0.3705674409866333,-0.0320659875869751,1.1165640354156494,15.98852252960205,0.37572169303894043,2.5627057552337646,-1.1703974179191452,-0.4085925242012589,-0.4521066187554089
1.7415039539337158,-0.4366843104362488,-0.07045954465866089,1.107280969619751,15.024408340454102,0.7416959404945374,2.4884471893310547,-1.0314147391277733,-0.25552085076157294,-0.2871630547647303
1.7516248226165771,-0.42222726345062256,0.07477045059204102,1.0218093395233154,14.06914234161377,1.2777129411697388,2.320514440536499,-0.894026215463592,-0.16765263697063068,-0.19257397389777606
1.7607879638671875,-0.3636566698551178,0.05247342586517334,0.920110285282135,12.80010986328125,1.4614633321762085,2.2347309589385986,-0.7635624633621374,-0.10868885569910607,-0.1315929366401825
1.7710888385772705,-0.27968350052833557,0.0009956955909729004,0.8494829535484314,11.19092845916748,1.7149500846862793,2.0131163597106934,-0.6458137169408387,-0.06601671253752583,-0.08988755155272851
1.7808430194854736,-0.24090617895126343,-0.05068486928939819,0.8285548686981201,9.410021781921387,2.137472629547119,1.7921932935714722,-0.5436556507635255,-0.03049235106067412,-0.060976836990260665
1.7911088466644287,-0.28574472665786743,-0.1832461655139923,0.6735813021659851,7.584035873413086,2.466498613357544,1.6736639738082886,-0.4589552521218601,0.0028350771808983936,-0.039807287513584616
1.8014609813690186,-0.2776344418525696,-0.2514607012271881,0.5713373422622681,5.866995811462402,2.534467935562134,1.404781699180603,-0.39139771191011685,0.03437547985903056,-0.024113753767765037
1.8113019466400146,-0.22318777441978455,-0.33123722672462463,0.51375412940979,4.3915019035339355,2.5519392490386963,1.1290136575698853,-0.33973374675808016,0.06382105836739355,-0.013287218362625091
1.8210680484771729,-0.15799462795257568,-0.4298335015773773,0.4255743622779846,3.299531936645508,2.3698344230651855,0.9819051027297974,-0.3007563838295746,0.09114631101585699,-0.005313221172054105
1.8310821056365967,-0.05617400258779526,-0.37660232186317444,0.3070194721221924,2.599524974822998,2.0912833213806152,0.8246277570724487,-0.2707678477912944,0.11518126007494627,0.0008845188496396271
1.840954065322876,0.020739197731018066,-0.1975231021642685,0.22139251232147217,2.3340675830841064,1.8085012435913086,0.8335205912590027,-0.24541997871178592,0.13612135403842693,0.0060885554492050445
1.851991891860962,0.06945127248764038,-0.05431124567985535,0.08653366565704346,2.210911273956299,1.4233745336532593,0.8481460213661194,-0.2217115353988394,0.15350633033038794,0.011371910094904203
1.8606607913970947,0.11475484073162079,0.028640523552894592,-0.007325708866119385,2.105177402496338,1.0771353244781494,0.7513542175292969,-0.1990662444349334,0.1669187503274728,0.01594057769821855
1.8711049556732178,0.12681567668914795,-0.004223063588142395,-0.0530627965927124,1.8906960487365723,0.842197597026825,0.6685529947280884,-0.17807529171499611,0.17712746100104496,0.01955607874784307
1.8809998035430908,0.11946837604045868,-0.075649693608284,-0.09802913665771484,1.5444004535675049,0.6804592609405518,0.5968418121337891,-0.15993350238500612,0.18525555052025405,0.022726244743321956
1.8911919593811035,0.08815273642539978,-0.08792677521705627,-0.11369234323501587,1.1378999948501587,0.6310164332389832,0.5179571509361267,-0.14572343417983077,0.19222982051327123,0.025695172510269364
1.9014999866485596,0.04641085863113403,-0.11123150587081909,-0.1252121925354004,0.7369619607925415,0.5303705334663391,0.4584149718284607,-0.135572164891908,0.19845871982171256,0.028731397199284622
1.911010980606079,0.022387683391571045,-0.13559550046920776,-0.13676941394805908,0.5176423788070679,0.5347625017166138,0.39746764302253723,-0.12879486037150753,0.20406227003084418,0.031683182527863764
1.921025037765503,0.009597688913345337,-0.11812867224216461,-0.13939684629440308,0.554459273815155,0.37838274240493774,0.44312623143196106,-0.12273957373362124,0.20915369016517235,0.03476248937637617
1.9311909675598145,0.009252965450286865,-0.03980472683906555,-0.15934652090072632,0.6611782312393188,0.21407033503055573,0.4158004820346832,-0.11590018827372305,0.21242935999633392,0.03775835592297296
1.9411289691925049,0.019915178418159485,0.05312337726354599,-0.12858688831329346,0.7471080422401428,0.1367340087890625,0.41092315316200256,-0.10809773709908183,0.21445829037524958,0.04028287934066972
1.9518859386444092,0.01972299814224243,0.05015096068382263,-0.13227826356887817,0.7563014626502991,0.11816347390413284,0.40923455357551575,-0.0998561879399881,0.21594425903080822,0.04271251082557386
1.9611599445343018,-0.0018471628427505493,0.027058623731136322,-0.1199607253074646,0.7517362833023071,0.10947544872760773,0.40726566314697266,-0.09158433480075724,0.21739588998310844,0.045086297228729755
1.9713499546051025,-0.01503153145313263,0.00779975950717926,-0.1028098464012146,0.7027302980422974,0.08497591316699982,0.3443676233291626,-0.08366741965774831,0.2184820582414476,0.04722569276276766
1.9810969829559326,-0.011714011430740356,0.008850492537021637,-0.061320364475250244,0.6990165114402771,0.13290323317050934,0.30401062965393066,-0.0761840931917382,0.21969079312680484,0.048819883861618896
1.9911620616912842,-0.013786956667900085,0.006721198558807373,-0.046799302101135254,0.7236831188201904,0.09162423014640808,0.29095789790153503,-0.06854301016215439,0.22092840206377773,0.05022178027025411
2.001929998397827,-0.01107168197631836,0.022849176079034805,-0.02872854471206665,0.6684014797210693,0.08766650408506393,0.19551396369934082,-0.06115804034566898,0.2218557177219283,0.0510690556754463
2.0111000537872314,-0.013240888714790344,0.01086554303765297,0.0011845231056213379,0.508513331413269,0.1015048697590828,0.10486379265785217,-0.05503440605383729,0.22278064716473986,0.05123333049205738
2.021146059036255,-0.013835445046424866,-0.04832492768764496,-0.0003884434700012207,0.31467220187187195,0.16564230620861053,0.010528501123189926,-0.050910375854571074,0.22409367492575621,0.050875775617765524
2.031136989593506,-0.016004323959350586,-0.08572658896446228,0.002602696418762207,0.16964003443717957,0.20431482791900635,-0.04766508564352989,-0.0486363626982971,0.22588796227819094,0.05013165039520196
2.0411789417266846,-0.02571485936641693,-0.08359275013208389,0.009710252285003662,0.17255432903766632,0.2392144799232483,-0.04933701455593109,-0.04720278980457231,0.22816727567489525,0.04924061972283786
2.0515589714050293,-0.014884009957313538,-0.04648711532354355,-0.0010772943496704102,0.27909398078918457,0.1763896644115448,-0.038399893790483475,-0.045144390920852595,0.23018712462393548,0.04832714747534066
2.061440944671631,0.013946294784545898,0.009774446487426758,-0.005419135093688965,0.42139628529548645,0.10834456980228424,-0.033644821494817734,-0.04181242715362325,0.23157417804210234,0.04714959794396812
2.0727028846740723,0.02986729145050049,0.03600278124213219,-0.011944770812988281,0.5057773590087891,0.07341886311769485,-0.01638849452137947,-0.03730907473422394,0.23237312758160858,0.04582964268373121
2.0811707973480225,0.03042013943195343,0.019412774592638016,-0.02008521556854248,0.5025288462638855,0.07391314208507538,-0.011175623163580894,-0.03236592637789795,0.23306615326944427,0.044518817882954
2.0911929607391357,0.01753273606300354,-0.011051887646317482,-0.023605287075042725,0.3942554295063019,0.08360003679990768,-0.03873055428266525,-0.02800805058455791,0.23379730170004442,0.04324567916413863
2.1022989749908447,0.006449401378631592,-0.051606323570013046,-0.01565498113632202,0.2314835637807846,0.1095711886882782,-0.08141729980707169,-0.025104426687995597,0.2347103777350282,0.04192636062513055
2.1112239360809326,0.007982447743415833,-0.08577887713909149,-0.009765386581420898,0.07237356901168823,0.1443711519241333,-0.10892374813556671,-0.023860956368369175,0.23595137966950408,0.04064356719905278
2.1214420795440674,0.01105409860610962,-0.08257894963026047,-0.01407843828201294,-0.047365348786115646,0.14685215055942535,-0.13031239807605743,-0.024048532156317193,0.23740787694211002,0.03946029556122323
2.1312530040740967,0.022237151861190796,-0.06173573434352875,-0.017159998416900635,-0.1304166465997696,0.13365232944488525,-0.15730567276477814,-0.025285161215041974,0.2387677149024286,0.038274556759148495
2.141291856765747,0.041572704911231995,-0.05029768496751785,-0.01720792055130005,-0.14769390225410461,0.1315883845090866,-0.1544259935617447,-0.027077103354516924,0.24006483129303288,0.03706142357344593
2.1518828868865967,0.05281907320022583,-0.03288542106747627,-0.02365654706954956,-0.0717935636639595,0.09876682609319687,-0.10616929829120636,-0.028525260265792125,0.24122143005880856,0.036054606707546843
2.1612679958343506,0.06463144719600677,-0.00023253262042999268,-0.02885878086090088,0.07080193608999252,0.05147761106491089,-0.048376038670539856,-0.028724622077746224,0.24195963183671962,0.03531103732746548
2.1713109016418457,0.07788535952568054,0.02447069250047207,-0.0261344313621521,0.1902732402086258,-0.00017342297360301018,0.0038629285991191864,-0.02748893184529634,0.242193054359104,0.03477593838307563
2.181368112564087,0.07834140956401825,0.040670499205589294,-0.025361239910125732,0.25178882479667664,-0.0329635925590992,0.04750068858265877,-0.025250139477472292,0.2420072874999622,0.03449198849900357
2.1914827823638916,0.07161715626716614,0.0291142538189888,-0.024090826511383057,0.2517412304878235,-0.043009527027606964,0.06487488001585007,-0.02261495082254986,0.24160939787220795,0.034444015827731524
2.2015609741210938,0.0580277144908905,0.0015574656426906586,-0.013054072856903076,0.1800936907529831,-0.03339791297912598,0.04852520301938057,-0.020340281833036686,0.24121382309940065,0.034484708644306826
2.212878942489624,0.037244394421577454,-0.02337144874036312,0.002375304698944092,0.07710043340921402,-0.025851577520370483,0.015945104882121086,-0.019008566192650227,0.24092536661551822,0.03449257613568397
2.22278094291687,0.02635936439037323,-0.04482341930270195,0.015592396259307861,-0.005424009170383215,-0.0097074955701828,-0.01414675172418356,-0.018060470660881272,0.241303911191248,0.034413903216149705
2.231339931488037,0.027284592390060425,-0.04936309903860092,0.018172919750213623,-0.04633111134171486,-0.0210967268794775,-0.030454350635409355,-0.01800724355482181,0.2419381196331279,0.03428145214114798
2.241426944732666,0.03321416676044464,-0.029107671231031418,0.012350320816040039,-0.043427735567092896,-0.05068923905491829,-0.03228021413087845,-0.018702253482286015,0.24262353983767912,0.03409204506687884
2.2518959045410156,0.04218323528766632,-0.00556364469230175,0.010158181190490723,-0.013814298436045647,-0.07508090883493423,-0.007637453731149435,-0.019633496497314436,0.2432915373645873,0.03397533106611545
2.261359930038452,0.049410656094551086,0.008581563830375671,0.0071860551834106445,0.028573373332619667,-0.08958368748426437,0.02011827751994133,-0.02036575243728974,0.2437251757576909,0.03404052291063376
2.2717020511627197,0.04339773952960968,0.02038956992328167,0.007940232753753662,0.06982235610485077,-0.10064881294965744,0.04255935177206993,-0.020429091824885632,0.24407247300392715,0.0342533957652781
2.2813498973846436,0.02887745201587677,0.01690812222659588,0.01110219955444336,0.0764235332608223,-0.1017199382185936,0.049029234796762466,-0.019607399655898968,0.24437668742795884,0.03455199995043089
2.291404962539673,0.011533170938491821,0.009537555277347565,0.014798521995544434,0.05984720587730408,-0.07779822498559952,0.057169560343027115,-0.018112344700594418,0.24453755807538885,0.03490682533355493
2.30207896232605,-0.0023445487022399902,0.0019050221890211105,0.013728678226470947,0.03797546401619911,-0.0769374892115593,0.05557965114712715,-0.01593316565360082,0.2446932944700627,0.03537749189584033
2.3114349842071533,-0.011829838156700134,-0.004829191602766514,0.019409537315368652,-0.004690741188824177,-0.08425620943307877,0.0338546484708786,-0.014000166328461383,0.24491616560656626,0.03578838658290489
2.3215179443359375,-0.023650363087654114,-0.017928555607795715,0.03394800424575806,-0.05851881951093674,-0.08745812624692917,0.01458960771560669,-0.013503899218873761,0.24508228516197847,0.03610934343832956
2.3316490650177,-0.03206789493560791,-0.029714424163103104,0.04077798128128052,-0.09891720861196518,-0.07990416139364243,0.004156355280429125,-0.014273001507609627,0.24537836774097682,0.03639319208702884
2.343498945236206,-0.03885984420776367,-0.03216756880283356,0.03835934400558472,-0.12251041829586029,-0.08348318189382553,-0.0017143168952316046,-0.015719228720003083,0.24576322739881812,0.03669532353555598
2.353766918182373,-0.041064172983169556,-0.02835633046925068,0.029930830001831055,-0.11617821455001831,-0.08072574436664581,0.0105231748893857,-0.01749294656629483,0.2459824384403314,0.03703321215142819
2.3614161014556885,-0.041362613439559937,-0.01854565367102623,0.013536214828491211,-0.05829335004091263,-0.0752609446644783,0.03920381888747215,-0.018760366289802863,0.24591833384175368,0.037490671885402796
2.371501922607422,-0.038646236062049866,0.0029013920575380325,0.0013887286186218262,0.01047665998339653,-0.10368911921977997,0.06449852138757706,-0.01905714538817835,0.24533726768073907,0.03806167957613263
2.3814327716827393,-0.03822691738605499,0.022910527884960175,-0.003121674060821533,0.035838209092617035,-0.12523914873600006,0.07178306579589844,-0.01862496063073735,0.24421082229423074,0.038669577983325897
2.3917148113250732,-0.03598923981189728,0.019150476902723312,0.0013761520385742188,0.009968262165784836,-0.13022193312644958,0.06612598150968552,-0.018020893352339647,0.24281403512227062,0.03928648978751253
2.401489019393921,-0.03567864000797272,-0.0015349946916103363,0.0058896541595458984,-0.0550716407597065,-0.10356763750314713,0.061957284808158875,-0.017618654297578938,0.24139192308003238,0.03994988257448627
2.4115660190582275,-0.04534359276294708,-0.01414158008992672,0.00915825366973877,-0.0954587459564209,-0.07720287144184113,0.060761526226997375,-0.017468868838075267,0.24010901140978785,0.04073176488189331
2.4215757846832275,-0.054744869470596313,-0.009647252038121223,0.006256520748138428,-0.08380555361509323,-0.07519378513097763,0.06561913341283798,-0.01739958150156145,0.2388381694970996,0.04155427145222053
2.431864023208618,-0.04934431612491608,0.010646728798747063,-0.0019747018814086914,-0.03712925687432289,-0.09853639453649521,0.07003486901521683,-0.017186136046008955,0.23739358708733616,0.04235417193067665
2.4417738914489746,-0.03661376237869263,0.04106595367193222,-0.0059798359870910645,-0.007390537299215794,-0.11495504528284073,0.06741085648536682,-0.016826669435619626,0.23569185971790055,0.043075877416031715
2.452378034591675,-0.03523567318916321,0.048172514885663986,-0.009120285511016846,-0.033611953258514404,-0.11710944771766663,0.048413459211587906,-0.016968051055085483,0.23389864912010527,0.04368767045648286
2.4617388248443604,-0.044446587562561035,0.02713080868124962,-0.0053713321685791016,-0.11498191207647324,-0.11057405173778534,0.004975437186658382,-0.01818878252503304,0.23211011107419097,0.0441091630414035
2.4717390537261963,-0.052197039127349854,0.005225097760558128,0.004110872745513916,-0.19609186053276062,-0.09191510826349258,-0.041388917714357376,-0.020212663052105558,0.23051893952039737,0.04427187631300612
2.481726884841919,-0.05107825994491577,-0.004827301949262619,0.00825345516204834,-0.2061852514743805,-0.07817000150680542,-0.06624633818864822,-0.022224134410146375,0.22909755257460643,0.044171605448217244
2.491602897644043,-0.04675212502479553,0.017952678725123405,0.0028042197227478027,-0.14106668531894684,-0.09007259458303452,-0.07358158379793167,-0.023492336596570546,0.227294243511534,0.04386051393759468
2.501955986022949,-0.03853106498718262,0.06095483526587486,-0.005444645881652832,-0.03635996952652931,-0.11553667485713959,-0.0678376778960228,-0.024008391052577426,0.22496697192121973,0.04334198454340548
2.511600971221924,-0.026314273476600647,0.09188933670520782,-0.013060927391052246,0.04767642915248871,-0.12886318564414978,-0.06641965359449387,-0.024140822205836476,0.22296960006816666,0.04266089156549186
2.52167010307312,-0.021477192640304565,0.09249918162822723,-0.012991547584533691,0.06289186328649521,-0.12004251778125763,-0.0700940191745758,-0.02424817543230931,0.2213271118305389,0.04184756320175247
2.5318779945373535,-0.02946534752845764,0.06468934565782547,-0.007744789123535156,0.04275953024625778,-0.08660493791103363,-0.0889037624001503,-0.024515975916589813,0.21991312230760468,0.04094968885052417
2.541780948638916,-0.03426016867160797,0.03609273210167885,0.00017970800399780273,0.019601214677095413,-0.07724179327487946,-0.09775184839963913,-0.02471603955068789,0.2186042888900483,0.03995337366524647
2.552266836166382,-0.03179571032524109,0.025304017588496208,0.005147755146026611,0.00600098492577672,-0.08192292600870132,-0.10853050649166107,-0.024854164133742182,0.2172057206741998,0.03891192632749396
2.561807870864868,-0.017695486545562744,0.026808001101017,0.006273448467254639,0.0035372949205338955,-0.09171510487794876,-0.11672744899988174,-0.024937118409133017,0.21572035830390537,0.03777549643366873
2.5720419883728027,-0.0038832128047943115,0.02347305230796337,-0.000882267951965332,0.0020049121230840683,-0.10079212486743927,-0.11712873727083206,-0.025479881628214397,0.2140797914944343,0.036609466300314
2.5817019939422607,0.0010943412780761719,0.020195772871375084,-0.006638228893280029,0.005410562269389629,-0.1087198257446289,-0.10746679455041885,-0.026987663973874466,0.2123983815667454,0.035492002620412404
2.5918238162994385,0.007831677794456482,0.01653924398124218,-0.010168254375457764,0.009556038305163383,-0.11500124633312225,-0.10044381767511368,-0.029195480328798606,0.21082638353439784,0.03444779672470648
2.602186918258667,0.015131190419197083,0.017430095002055168,-0.0114670991897583,0.018909327685832977,-0.12831784784793854,-0.08224990218877792,-0.03121998238830256,0.20930380611732852,0.03351630492662195
2.61199688911438,0.01918184757232666,0.01254233717918396,-0.012645542621612549,0.021912606433033943,-0.13889184594154358,-0.0777013823390007,-0.03246151196156678,0.20751045502640764,0.032672303868490155
2.6219160556793213,0.01777583360671997,0.010122112929821014,-0.0021164417266845703,0.017710404470562935,-0.13399909436702728,-0.07235269248485565,-0.033050999381605384,0.2056293308760895,0.03187159532419504
2.6319730281829834,0.01576264202594757,-0.00177055224776268,0.0051667094230651855,0.0036880464758723974,-0.1259719282388687,-0.06303578615188599,-0.03348454860280571,0.20388490674039572,0.03117498609347102
2.64184308052063,0.009314045310020447,-0.005322705954313278,0.009906172752380371,0.009737683460116386,-0.10427434742450714,-0.047442443668842316,-0.03400050083564742,0.20261986205221255,0.030605158098524265
2.6520750522613525,0.002908468246459961,-0.0044950395822525024,0.008181750774383545,0.05003056302666664,-0.0899619460105896,-0.017740048468112946,-0.03413421944501887,0.2018383441680343,0.03022274162268465
2.661884069442749,0.0029610097408294678,0.005966898053884506,0.0031243562698364258,0.09293222427368164,-0.09130151569843292,0.012103600427508354,-0.03374286072629586,0.2011742495307337,0.03006136355359945
2.672409772872925,0.000954553484916687,0.0177527517080307,0.005478322505950928,0.1170230433344841,-0.09385593235492706,0.03490462526679039,-0.033080289963091744,0.20080349704326217,0.03009748542348552
2.681792974472046,0.000314369797706604,0.015389814972877502,0.009137570858001709,0.11422912031412125,-0.09293927252292633,0.04141765087842941,-0.0324521631505624,0.20068953153401364,0.030271176546153
2.6917879581451416,-0.0006414949893951416,0.005488350987434387,0.01533496379852295,0.08379210531711578,-0.08316764235496521,0.02910921722650528,-0.03185527412325051,0.2006956617745355,0.030456291653147397
2.7017369270324707,-0.007040649652481079,-0.008308056741952896,0.021965742111206055,0.036548689007759094,-0.06937193125486374,0.006895256694406271,-0.031644011948778784,0.20076246363579325,0.03054022909800816
2.7117929458618164,-0.012066870927810669,-0.018202070146799088,0.028965115547180176,-0.013042747043073177,-0.05375591292977333,-0.019787274301052094,-0.03154346643394094,0.20087706863709087,0.030475247617611573
2.721735954284668,-0.01671987771987915,-0.020008351653814316,0.03116297721862793,-0.044530633836984634,-0.03388899937272072,-0.03470630198717117,-0.03180874499476893,0.2009090102649514,0.03027178207506176
2.7317159175872803,-0.013390719890594482,-0.010783474892377853,0.026054322719573975,-0.054615724831819534,-0.024877304211258888,-0.039731476455926895,-0.03230396994883245,0.20081596073562089,0.030008698330870238
2.741787910461426,-0.005943119525909424,-0.001054268330335617,0.01784992218017578,-0.03435439616441727,-0.015593258664011955,-0.04103269428014755,-0.033088489562533706,0.2007419554744598,0.029705253385233527
2.752599000930786,0.0014907270669937134,0.006571590900421143,0.012375116348266602,-0.00016453233547508717,-0.011697585694491863,-0.029729919508099556,-0.033916459700664064,0.2006668218557105,0.029388989215133908
2.761807918548584,0.0069786012172698975,0.011748399585485458,0.009539365768432617,0.02220335602760315,-0.01432799082249403,-0.0229596309363842,-0.03426353573043426,0.20059670756544762,0.029118584891490107
2.771791934967041,0.012312620878219604,0.012486115097999573,0.011696219444274902,0.023427195847034454,-0.011024383828043938,-0.02411070093512535,-0.034166632730554425,0.20050926512607503,0.028835577410687423
2.7818119525909424,0.01653265953063965,-0.004127610474824905,0.013461172580718994,0.024195784702897072,0.008259298279881477,-0.015888724476099014,-0.033751311871482496,0.20045087314296622,0.028576220891785967
2.7921619415283203,0.011974111199378967,-0.014607943594455719,0.012518465518951416,0.038730185478925705,0.022268857806921005,-0.0021988525986671448,-0.033046562527518065,0.20047332640802246,0.02842670053137616
2.8030738830566406,0.0026293396949768066,-0.006082877516746521,0.01108253002166748,0.07551722973585129,0.02152024209499359,0.013212860561907291,-0.03204355028326244,0.20048879678666046,0.02836715097109055
2.8122689723968506,0.00474432110786438,0.0007710456848144531,0.012132823467254639,0.10001083463430405,0.019737744703888893,0.019904745742678642,-0.03094164064943489,0.20051902132422034,0.028351707387382297
2.822321891784668,0.005021601915359497,-0.0012743566185235977,0.013215839862823486,0.09606003761291504,0.03351347893476486,0.02314847521483898,-0.02996534952698585,0.20074395483459714,0.02836069867068526
2.8327767848968506,0.0006057918071746826,-0.011963745579123497,0.014944136142730713,0.06402334570884705,0.04292367026209831,0.02044968120753765,-0.02933243374764753,0.20119807083103639,0.028424753027833934
2.841897964477539,-0.002601131796836853,-0.026069486513733864,0.017901957035064697,0.020317938178777695,0.05451188236474991,0.008420448750257492,-0.029201673807123938,0.20183874289080325,0.028479386100536956
2.8521509170532227,-0.0012858062982559204,-0.03816821053624153,0.02159714698791504,-0.001683949027210474,0.05517629534006119,0.005893268622457981,-0.029413893916986747,0.20263160948290027,0.028524067071607533
2.8627419471740723,-6.695091724395752e-05,-0.03543616831302643,0.01941204071044922,-0.0014445307897403836,0.056557148694992065,0.002592547098174691,-0.02944370587080412,0.2034752948530733,0.028565219822926226
2.871886968612671,-0.0015323907136917114,-0.024345874786376953,0.01444101333618164,0.015333750285208225,0.05875078961253166,0.011506306938827038,-0.029156512121652635,0.204253583665517,0.028623383280923557
2.8819668292999268,-0.007805168628692627,-0.017215246334671974,0.006017208099365234,0.032566267997026443,0.05326787382364273,0.01847872883081436,-0.028831163619871175,0.2048299059303328,0.028720189996936735
2.8918778896331787,-0.011768549680709839,-0.010829122737050056,0.0011888742446899414,0.04096442833542824,0.053061436861753464,0.02014480158686638,-0.028502640538574472,0.2054320428210675,0.02882989972087396
2.9020819664001465,-0.01557210087776184,-0.010944908484816551,0.0001563429832458496,0.032828204333782196,0.05600156635046005,0.02110700123012066,-0.02811473563810525,0.20605768614384096,0.0289588492162058
2.9125540256500244,-0.019067049026489258,-0.014238225296139717,-0.0007926821708679199,0.029741453006863594,0.059091322124004364,0.015405122190713882,-0.027501565664382995,0.2066006659225859,0.0290754035866126
2.9221460819244385,-0.01762714982032776,-0.012975029647350311,-0.0018701553344726562,0.03505712002515793,0.05726519227027893,0.007430552039295435,-0.026497399732135805,0.2070727872558895,0.02911734566946444
2.9322988986968994,-0.017545372247695923,-0.00647452287375927,-0.005993545055389404,0.04002171754837036,0.04816392809152603,0.0033018002286553383,-0.025092865352721358,0.20755869639616045,0.029089804045070312
2.942291021347046,-0.019291579723358154,0.0019143987447023392,-0.010940790176391602,0.04736218973994255,0.047890421003103256,0.004805953707545996,-0.023753099502574756,0.2080265975198098,0.029027205957367845
2.95271897315979,-0.022233277559280396,0.006857255473732948,-0.01739633083343506,0.04942468926310539,0.04961717128753662,0.005851510912179947,-0.022731477759260557,0.20843945182011042,0.028981752616659886
2.962301015853882,-0.0262286514043808,0.014596283435821533,-0.018703222274780273,0.06094259396195412,0.04979800060391426,0.009526140987873077,-0.02187395250269095,0.20865134258659204,0.02893750558446447
2.9722278118133545,-0.026882663369178772,0.01796204410493374,-0.019333481788635254,0.0676879808306694,0.03807849436998367,0.0025717744138091803,-0.021117270592009376,0.20867693412183427,0.028858780462465806
2.9823200702667236,-0.023450583219528198,0.017649516463279724,-0.018239319324493408,0.0640285313129425,0.03907904401421547,-0.017834164202213287,-0.020376780230618872,0.20855004980599612,0.028640174736933307
2.992647886276245,-0.0217265784740448,0.016163501888513565,-0.01597684621810913,0.05404048413038254,0.04382435232400894,-0.030978888273239136,-0.01966538865304343,0.20837570026409324,0.028260528213783713
3.002763032913208,-0.023499608039855957,0.011475270614027977,-0.017161786556243896,0.03809880092740059,0.03744954243302345,-0.05216566473245621,-0.019135012833336185,0.20825179323874993,0.02774639817844574
3.0122320652008057,-0.022422045469284058,0.0071873776614665985,-0.015584409236907959,0.03317401558160782,0.023716773837804794,-0.0731908455491066,-0.018906267856867897,0.20802285523599187,0.027050009087056428
3.0223729610443115,-0.01995059847831726,0.004919441416859627,-0.012603938579559326,0.013080200180411339,0.01376241073012352,-0.09409932047128677,-0.01902273328312837,0.20761828096439663,0.026167534719683253
3.0321590900421143,-0.01831376552581787,-0.0015346258878707886,-0.01217043399810791,-0.005676243919879198,0.018109489232301712,-0.1012801080942154,-0.019480179546267587,0.20710124307539604,0.025174092734408626
3.0423269271850586,-0.016931459307670593,-0.0034935176372528076,-0.01272660493850708,-0.0025355780962854624,0.022092245519161224,-0.09479611366987228,-0.020172722851678787,0.20654910227786344,0.024207296649955648
3.052716016769409,-0.017418548464775085,0.00119757279753685,-0.01110607385635376,0.026741933077573776,0.00780824851244688,-0.07994424551725388,-0.020730779251383617,0.20595775220370405,0.023303848778011185
3.062314987182617,-0.015710413455963135,0.006353622302412987,-0.007447540760040283,0.07357015460729599,0.0034878021106123924,-0.06471895426511765,-0.02083903399525486,0.20536665156907782,0.022486911772209364
3.0725109577178955,-0.009356513619422913,0.00969536229968071,-0.003755629062652588,0.11026572436094284,0.0007760827429592609,-0.04046591743826866,-0.020411632399382065,0.20481284244378917,0.02177527514571396
3.0823400020599365,-0.010405763983726501,0.010279655456542969,0.0006331801414489746,0.1220664530992508,0.004934342578053474,-0.026599906384944916,-0.019583031471012823,0.20424459651251478,0.02119860416380311
3.0923688411712646,-0.015579193830490112,-0.000542864203453064,0.00655287504196167,0.10603497177362442,0.018140824511647224,-0.020764067769050598,-0.0186713742302813,0.20380531892210504,0.020725674935704576
3.1031367778778076,-0.017185494303703308,-0.019231541082262993,0.01119697093963623,0.07815726846456528,0.021199466660618782,-0.010321812704205513,-0.017935494313207272,0.20354184837298409,0.020381912506675842
3.112333059310913,-0.011098161339759827,-0.026904435828328133,0.015365898609161377,0.05156945064663887,0.013578608632087708,-0.01223689317703247,-0.017322767921509007,0.2032756705737944,0.020134737761893617
3.1242599487304688,-0.0009103566408157349,-0.0266516525298357,0.020783603191375732,0.02052977681159973,0.012122659012675285,-0.011187341064214706,-0.016963117962028627,0.20299908792578686,0.01993551744909984
3.1324198246002197,0.002382636070251465,-0.03205722197890282,0.023838043212890625,-0.005396145861595869,0.02034139633178711,-0.001406775088980794,-0.017028124710851533,0.2027530131389168,0.01986599257682999
3.1424601078033447,-0.00024628639221191406,-0.031451813876628876,0.021908581256866455,-0.022466741502285004,0.020915571600198746,0.0015123158227652311,-0.017414594947854033,0.20260307765486119,0.019902992649432082
3.152772903442383,-0.0015978217124938965,-0.02733587473630905,0.021188318729400635,-0.027825621888041496,0.024641335010528564,0.0010054097510874271,-0.017983193246427838,0.2026452498244031,0.01995488676915446
3.162540912628174,-0.003579765558242798,-0.02297438681125641,0.019935905933380127,-0.028660522773861885,0.022825591266155243,0.008610332384705544,-0.018550386020588387,0.20267679079059533,0.020048658834730653
3.172761917114258,-0.002542540431022644,-0.018880121409893036,0.01709049940109253,-0.028287414461374283,0.014670193195343018,0.005334378220140934,-0.018804925456617664,0.2025379456171838,0.020165232455868477
3.1828179359436035,0.0044085681438446045,-0.012649809941649437,0.015413463115692139,-0.02749592252075672,0.012333535589277744,0.015460781753063202,-0.018556009518048262,0.20232590339636866,0.020310271730613814
3.1961729526519775,0.01058150827884674,-0.015034394338726997,0.012676894664764404,-0.028924042358994484,-0.00034142425283789635,0.02727067656815052,-0.018132910005962115,0.20223786560571366,0.020587277010376184
3.205850839614868,0.016782015562057495,-0.01119396835565567,0.008558213710784912,-0.032528895884752274,-0.013994918204843998,0.027490386739373207,-0.017786690885506058,0.20226219996520436,0.020909444888558885
3.2129127979278564,0.02707432210445404,-0.008148742839694023,0.009879112243652344,-0.037390630692243576,-0.02171258069574833,0.037751175463199615,-0.017396431020414296,0.20225274965306358,0.021302397773075205
3.2226428985595703,0.024415478110313416,-0.011157382279634476,0.010118722915649414,-0.04747096076607704,-0.03247920796275139,0.045573145151138306,-0.017139657621651948,0.20206878659100747,0.021805796701143538
3.232491970062256,0.015846624970436096,-0.009279394522309303,0.013855338096618652,-0.050040047615766525,-0.04084792733192444,0.05018584430217743,-0.01704693310415058,0.20178133818758034,0.02236407226301321
3.2425849437713623,0.011527106165885925,-0.005771240219473839,0.01654118299484253,-0.06090494617819786,-0.04266313835978508,0.055568624287843704,-0.01710934108136175,0.20139345251168536,0.023003929972570704
3.2529289722442627,0.008068710565567017,-0.0024121012538671494,0.01770198345184326,-0.06570980697870255,-0.030621610581874847,0.058495815843343735,-0.017351315257497047,0.20106177214881174,0.023689434740024277
3.262568950653076,-0.0005277097225189209,0.00016714073717594147,0.014403700828552246,-0.05064217001199722,-0.01913353055715561,0.06872154772281647,-0.017610248014839815,0.20097508703055073,0.02444021228467724
3.2725679874420166,-0.006893634796142578,0.0016484446823596954,0.008214235305786133,-0.02136663906276226,-0.005441776942461729,0.06945259124040604,-0.01757851898565166,0.2011026402668316,0.025203203483092754
3.2825729846954346,-0.009501174092292786,0.011778874322772026,0.008869707584381104,0.02617504633963108,0.0008344948291778564,0.0776338204741478,-0.017213657733208647,0.20144225789016865,0.025921240195388055
3.2925150394439697,-0.00973038375377655,0.02031460776925087,0.006322920322418213,0.06308216601610184,0.0021148535888642073,0.08083057403564453,-0.01644454128500532,0.20203184096261473,0.026622349753533083
3.3028128147125244,-0.009593456983566284,0.024585936218500137,0.004591643810272217,0.07534362375736237,-0.0006255391053855419,0.0798254981637001,-0.01537742244807197,0.20260519221490494,0.027274826499530475
3.312541961669922,-0.009090051054954529,0.02369992434978485,0.004720747470855713,0.06478038430213928,0.0007526027038693428,0.06794891506433487,-0.014355973637316116,0.2030228673137671,0.02787553242531997
3.32265305519104,-0.0029338300228118896,0.014085987582802773,0.0051988959312438965,0.027375217527151108,0.01247344072908163,0.050473254173994064,-0.01371594592498699,0.20341904472905378,0.028362226549274734
3.3326098918914795,-0.0022584199905395508,0.0011763758957386017,0.004078328609466553,-0.0179392509162426,0.023924101144075394,0.03134286031126976,-0.013625058696485762,0.2038354035196584,0.02875823621409316
3.3426859378814697,-0.004399776458740234,-0.006915534846484661,0.003329038619995117,-0.03636965528130531,0.032067783176898956,0.023671094328165054,-0.013965538182169739,0.20412209098319065,0.02908060381065289
3.352848768234253,-0.0013234317302703857,-0.007144914008677006,0.0005715489387512207,-0.026646491140127182,0.02708056941628456,0.02062630094587803,-0.014378060023135124,0.20422286391748876,0.02935819409835669
3.3626620769500732,0.00633607804775238,0.00642681960016489,-0.0016990900039672852,0.0022067297250032425,0.013579940423369408,0.028292743489146233,-0.01481394147385099,0.2041778442427862,0.029606687195567433
3.37273907661438,0.01206304132938385,0.014985579997301102,-0.00388491153717041,0.01905440352857113,0.005019608419388533,0.0329725556075573,-0.015196874353097134,0.20401817564892602,0.029882567770947558
3.3828070163726807,0.013783395290374756,0.007120114751160145,-0.0026838183403015137,0.021988673135638237,-0.0019070073030889034,0.03895960748195648,-0.015524534506726754,0.20378942229763114,0.03019077101866569
3.3928909301757812,0.014486253261566162,0.0004244837909936905,0.0004044771194458008,0.009641244076192379,-0.012405499815940857,0.03652238845825195,-0.015842037547828536,0.20350900563217503,0.030525879108801435
3.402867078781128,0.013373136520385742,-0.009860742837190628,0.008278071880340576,-0.018204236403107643,-0.013110971078276634,0.031143339350819588,-0.01610227193811003,0.2033376514742263,0.030864131605388305
3.412738084793091,0.012708589434623718,-0.020258599892258644,0.013370037078857422,-0.045016493648290634,-0.013617636635899544,0.027181778103113174,-0.016322540720586413,0.2031911768815958,0.031204272036536945
3.4227919578552246,0.010904312133789062,-0.025257347151637077,0.016039609909057617,-0.05903191119432449,-0.00943887047469616,0.026005994528532028,-0.01656057833058454,0.20302441310219785,0.03157401087732865
3.432651996612549,0.008082449436187744,-0.023187482729554176,0.019684672355651855,-0.06294654309749603,-0.009943140670657158,0.026957860216498375,-0.016886390394040128,0.20293102303304203,0.03195296478808682
3.4428107738494873,0.008070304989814758,-0.023050891235470772,0.02398502826690674,-0.06359875202178955,-0.004739057272672653,0.026524564251303673,-0.017558615282268004,0.20303928474885918,0.032349313984822194
3.4529199600219727,0.005306929349899292,-0.022045938298106194,0.02973806858062744,-0.062378738075494766,0.007849039509892464,0.028128214180469513,-0.018415374406080237,0.20334008057001224,0.03274582329149292
3.4628970623016357,-0.003604888916015625,-0.023258477449417114,0.03360152244567871,-0.06371591240167618,0.02237658202648163,0.02829599380493164,-0.019063448802066032,0.20379518908411495,0.033156318546674314
3.4729039669036865,-0.007263362407684326,-0.02209840528666973,0.029736816883087158,-0.06244390457868576,0.040999047458171844,0.03002779185771942,-0.019551418424370477,0.20444802067535062,0.03357850147097173
3.4829280376434326,-0.010121539235115051,-0.0200906191021204,0.02181190252304077,-0.05665925145149231,0.04806680977344513,0.02762189321219921,-0.01980198589323663,0.2052021385902599,0.03398972615471784
3.4930269718170166,-0.01068715751171112,-0.015267683193087578,0.01687532663345337,-0.03801582753658295,0.04340681433677673,0.02442418411374092,-0.019739776651055942,0.20592008404496545,0.03435639250948658
3.503272771835327,-0.00733068585395813,-0.010896686464548111,0.01607799530029297,-0.025438779965043068,0.044260621070861816,0.022116022184491158,-0.019488605476544366,0.20655879602422214,0.034651050347057004
3.512850046157837,-0.006077930331230164,-0.003988618031144142,0.01495903730392456,-0.01102049183100462,0.04039007052779198,0.035147082060575485,-0.01917227339516441,0.2071329220817235,0.03496593692114581
3.5228939056396484,-0.0083656907081604,0.003735361620783806,0.007751047611236572,0.005578991025686264,0.03222455456852913,0.030992550775408745,-0.01874191289951153,0.2076447762974759,0.03531218555549305
3.532902956008911,-0.00912119448184967,0.0086850356310606,0.00024455785751342773,0.018692977726459503,0.028515612706542015,0.030047552660107613,-0.01821720134477001,0.20805627510609334,0.035580955629331314
3.542991876602173,-0.012689098715782166,0.00962517224252224,-0.0051386356353759766,0.02739139460027218,0.024305688217282295,0.030075782909989357,-0.01758214113702098,0.20831632513414905,0.0358313230257502
3.5530951023101807,-0.015359818935394287,0.01268789917230606,-0.00525742769241333,0.021063026040792465,0.013748561963438988,0.020387044176459312,-0.01697598782541083,0.20842374414009926,0.03603040910754397
3.562894105911255,-0.01857517659664154,0.013577112928032875,0.0016786456108093262,0.008545368909835815,0.010198835283517838,0.010942675173282623,-0.01652921262025913,0.20841781081321759,0.036150213644866556
3.572993040084839,-0.02114512026309967,0.013510623946785927,0.006290555000305176,0.00415301788598299,0.006286118645220995,-0.0034293392673134804,-0.016275240650591088,0.20834554542567407,0.036179421252994545
3.582953929901123,-0.0226498544216156,0.017897002398967743,0.004350244998931885,-0.0017789072589948773,0.0032312064431607723,-0.01819070801138878,-0.016161307298625346,0.20829235372939434,0.03606873575654005
3.592935800552368,-0.02693977952003479,0.021454941481351852,0.0010859370231628418,-0.011772185564041138,0.009382842108607292,-0.030460210517048836,-0.016265482883293728,0.20827934706853482,0.035845143364854004
3.6031148433685303,-0.032246366143226624,0.026439029723405838,-0.0004444718360900879,-0.013607902452349663,0.01840589940547943,-0.03615910932421684,-0.01657623847386194,0.20827689808696728,0.03552156852645788
3.6129229068756104,-0.0365472286939621,0.029433632269501686,-0.002026677131652832,-0.014833140186965466,0.023332789540290833,-0.046238161623477936,-0.017030190278113116,0.20829195065170156,0.03514586349672796
3.6230390071868896,-0.03417883813381195,0.034772343933582306,-0.0056798458099365234,-0.002821751404553652,0.028630083426833153,-0.053986094892024994,-0.017474629036603358,0.2082122151361779,0.03467535527392409
3.6329920291900635,-0.02911388874053955,0.04051951318979263,-0.007323026657104492,0.02557455375790596,0.02534298785030842,-0.06030742824077606,-0.01778523910534829,0.20808958341947562,0.03408328341729543
3.643187999725342,-0.025923877954483032,0.04408779367804527,-0.005692839622497559,0.040228597819805145,0.02109311707317829,-0.07012464106082916,-0.01789434778605352,0.20787068013844553,0.03336521889180803
3.653247117996216,-0.022809922695159912,0.04425426572561264,-0.003573000431060791,0.03429623693227768,0.018913231790065765,-0.09059412032365799,-0.017972030560116224,0.20757345522965467,0.03249436937579744
