timestamp,accel_x,accel_y,accel_z,rotation_x,rotation_y,rotation_z, pitch,roll,yaw
0.04271411895751953,-0.007521584630012512,0.004193998873233795,0.005129814147949219,-0.040764838457107544,0.03413918986916542,-0.03352236747741699,0.024490631974196486,0.07954392715274153,-0.000974603182557228
0.05625414848327637,-0.0037190765142440796,0.006067205220460892,0.004009604454040527,-0.035488586872816086,0.037537913769483566,-0.03529683127999306,0.023754373434750457,0.07984566202842105,-0.001290411584988914
0.0688321590423584,-0.0023992806673049927,0.00779707171022892,0.0013141036033630371,-0.030233168974518776,0.038663897663354874,-0.036816537380218506,0.022981585787334453,0.08000507811698959,-0.0016222461220118123
0.07543325424194336,-0.0045251622796058655,0.0059701018035411835,-0.0025492310523986816,-0.02423173561692238,0.04466772824525833,-0.036144621670246124,0.022146226198930013,0.08008505665618906,-0.00197029823830301
0.07748913764953613,-0.0038275420665740967,0.0027728676795959473,-0.0061893463134765625,-0.025005750358104706,0.050965216010808945,-0.03571084514260292,0.02131390598689526,0.08022570604362524,-0.0023026835089542627
0.08266806602478027,-0.004332639276981354,0.001415269449353218,-0.006773769855499268,-0.019480222836136818,0.03421260416507721,-0.02950568124651909,0.020627543048008058,0.08027203312595688,-0.0026046223045568203
0.0913991928100586,-0.004894718527793884,-0.0024419743567705154,-0.0012714266777038574,-0.024755379185080528,0.038219597190618515,-0.04347976669669151,0.02006608331723329,0.0802992425470339,-0.002935313362766699
0.09980201721191406,-0.0004863813519477844,-0.004391055554151535,0.0025866031646728516,-0.03836919367313385,0.04701894521713257,-0.05006523057818413,0.019627535611830664,0.0804377966283352,-0.003382559700779773
0.10998106002807617,-0.001523233950138092,-0.0071805138140916824,0.004985153675079346,-0.04551868140697479,0.05595482885837555,-0.0522942952811718,0.01918784651489985,0.08069665561842461,-0.003849595786382551
0.1223301887512207,-0.009318165481090546,-0.008223311975598335,0.008386433124542236,-0.039566781371831894,0.07086533308029175,-0.059423577040433884,0.01866375305501151,0.08121412552978866,-0.004378940616086609
0.12987327575683594,-0.014335647225379944,-0.005580328404903412,0.0068277716636657715,-0.01219747681170702,0.08533153682947159,-0.05604301393032074,0.018239649466481295,0.08189986935101493,-0.004925335000980392
0.1400599479675293,-0.015160873532295227,0.003245539963245392,0.0029075145721435547,0.02688254788517952,0.09870752692222595,-0.0527779795229435,0.018200155262329203,0.08263609904047446,-0.005466341320348053
0.14999818801879883,-0.017809003591537476,0.015529101714491844,-0.002343118190765381,0.0602826327085495,0.10986240208148956,-0.049465809017419815,0.018597185201658886,0.08348737755589683,-0.00600568789040877
0.16023707389831543,-0.019388727843761444,0.014720506966114044,-0.006417989730834961,0.08674938976764679,0.12109481543302536,-0.04462604597210884,0.01929933733198178,0.08443083702108896,-0.006542309933934498
0.17120814323425293,-0.01601828634738922,0.01314019039273262,-0.010959744453430176,0.11290403455495834,0.11938896775245667,-0.040439341217279434,0.02034373866052933,0.08538400886803921,-0.0070458588763347724
0.18033909797668457,-0.012741617858409882,0.012221140787005424,-0.017234325408935547,0.12606830894947052,0.10069304704666138,-0.0345204658806324,0.021622235029263616,0.08635537970514048,-0.007522736112796875
0.19020509719848633,-0.003173917531967163,0.008532147854566574,-0.0204850435256958,0.12825237214565277,0.07518378645181656,-0.029470793902873993,0.023014765621820605,0.08706236163561816,-0.007954527423734505
0.20014095306396484,0.009912610054016113,0.003910409286618233,-0.02195185422897339,0.11477330327033997,0.04224900156259537,-0.018046896904706955,0.024329066523978562,0.0872544740528113,-0.008291873220567542
0.21013593673706055,0.023136742413043976,-0.002142496407032013,-0.023327350616455078,0.08673150092363358,0.012780813500285149,-0.013564158231019974,0.02531076119260344,0.08700138922209287,-0.008525111856421082
0.2209920883178711,0.03029952198266983,-0.010642988607287407,-0.022142529487609863,0.05335729569196701,-0.023344967514276505,-0.004176516085863113,0.02572153839202425,0.08641366204787479,-0.008662433467546133
0.23008108139038086,0.0364384651184082,-0.018466591835021973,-0.018893778324127197,0.018227575346827507,-0.057071857154369354,0.0025421069003641605,0.02545094760743001,0.08544295833821233,-0.008691667610087593
0.2399582862854004,0.042192354798316956,-0.022576339542865753,-0.015216588973999023,-0.009202186018228531,-0.08846866339445114,0.015969764441251755,0.02494211249381421,0.08415376779673352,-0.008591282963555658
0.25000905990600586,0.044695205986499786,-0.02345925010740757,-0.009658098220825195,-0.02998248301446438,-0.11399368196725845,0.02833503484725952,0.02437946158613377,0.08280431085545677,-0.008347833365623879
0.2599780559539795,0.043602295219898224,-0.02090488187968731,-0.0037437081336975098,-0.0454956591129303,-0.1270626187324524,0.042069222778081894,0.02374456173569574,0.0813883502275488,-0.007965297151550196
0.2709360122680664,0.03982122987508774,-0.015864398330450058,0.0028473734855651855,-0.05665350705385208,-0.13260039687156677,0.057479869574308395,0.02310859803266298,0.08006711271317478,-0.007424923355498543
0.28013014793395996,0.03371024876832962,-0.010188350453972816,0.008316576480865479,-0.06122029572725296,-0.1315271407365799,0.06570664793252945,0.022513132062823762,0.07900175040011262,-0.006758124326613069
0.29024815559387207,0.02832178771495819,-0.005555218085646629,0.01137608289718628,-0.05468970909714699,-0.13076986372470856,0.0665845274925232,0.022064976350317848,0.07825289568303538,-0.006064932637105997
0.300199031829834,0.022828809916973114,-0.0007948707789182663,0.018178820610046387,-0.05155996233224869,-0.12959247827529907,0.06685324013233185,0.02189669340778919,0.07774722348113897,-0.005378419384908557
0.3103489875793457,0.01885409653186798,0.004990069195628166,0.028229892253875732,-0.05799344554543495,-0.12093591690063477,0.061667587608098984,0.021974864058382445,0.07758640547046203,-0.00472065261850196
0.3216819763183594,0.01752457767724991,0.01153930276632309,0.03052729368209839,-0.06678826361894608,-0.11033760756254196,0.05094863101840019,0.022054393496634087,0.0776497980761969,-0.004145165249586907
0.33032798767089844,0.016508817672729492,0.013470888137817383,0.03013014793395996,-0.07750426232814789,-0.10124646872282028,0.039824873208999634,0.02203284649448406,0.07785747869117281,-0.003662914350922337
0.3402440547943115,0.012822560966014862,0.012583887204527855,0.03183788061141968,-0.08464792370796204,-0.08579134196043015,0.024978013709187508,0.021832440830511602,0.07812629847632543,-0.003307485781611328
0.3502659797668457,0.010561645030975342,0.011711640283465385,0.03342777490615845,-0.08377673476934433,-0.07211831957101822,0.013333768583834171,0.021448387393052083,0.078388537394074,-0.003070069147622322
0.36035919189453125,0.010754801332950592,0.010905250906944275,0.032503604888916016,-0.07914762943983078,-0.055434681475162506,0.0003199651837348938,0.020931798294836823,0.07863784672676842,-0.0029529007316009526
0.3731560707092285,0.006069600582122803,0.01122998259961605,0.03487330675125122,-0.0749811977148056,-0.036433249711990356,-0.009079980663955212,0.020340877539741897,0.07892852036279857,-0.0029574827322179364
0.3802800178527832,0.0020780786871910095,0.008692340925335884,0.03365123271942139,-0.05943313241004944,-0.01714370772242546,-0.023983830586075783,0.019710457211652873,0.07910493486195466,-0.0030878326678970332
0.3904752731323242,-0.001886703073978424,0.007539868354797363,0.031489014625549316,-0.039437904953956604,0.01061331108212471,-0.029452789574861526,0.019152976577268003,0.07937713731673386,-0.00332155990626988
0.4003441333770752,-0.005040228366851807,0.010353820398449898,0.028363168239593506,-0.0012865220196545124,0.03203870728611946,-0.03454102575778961,0.01880829459741067,0.07981554679885736,-0.003621413663108169
0.41052913665771484,-0.005410149693489075,0.0123085156083107,0.019681692123413086,0.03477552533149719,0.04129732400178909,-0.040696922689676285,0.01884038899465974,0.08037050177694686,-0.004007016037734424
0.4221491813659668,-0.003350302577018738,0.015897296369075775,0.011130452156066895,0.05574312433600426,0.04704442620277405,-0.048651520162820816,0.019179108542708937,0.08093762612909759,-0.004481806051891441
0.43091297149658203,-0.0025015324354171753,0.016128527000546455,0.009392797946929932,0.04691964015364647,0.05584989860653877,-0.05532550439238548,0.01957825843532474,0.08157180155235061,-0.005047530452669922
0.44098711013793945,-0.0026095137000083923,0.004678063094615936,0.009435653686523438,0.029916953295469284,0.062251873314380646,-0.06364229321479797,0.019831335426623818,0.08229309487280435,-0.005686135168695392
0.45023393630981445,-0.005105912685394287,-0.008258059620857239,0.006508052349090576,0.01577789895236492,0.06337395310401917,-0.07003872841596603,0.01989571479404315,0.08299158584890551,-0.006370254521301399
0.46056699752807617,-0.0061171650886535645,-0.014464285224676132,0.003940224647521973,0.014514761045575142,0.05135803297162056,-0.07368139922618866,0.019899816677092452,0.08359306245574498,-0.00711608338779316
0.47179508209228516,-0.0022637546062469482,-0.014062892645597458,0.0006675124168395996,0.017168669030070305,0.042723797261714935,-0.07110148668289185,0.019904484346911982,0.08404431441880543,-0.007854686716320301
0.4805901050567627,0.0005949586629867554,-0.015486709773540497,-0.0032786130905151367,0.017423532903194427,0.03414442390203476,-0.059964682906866074,0.019869206625600946,0.08434523275349193,-0.00851981600424219
0.49073314666748047,-0.002653248608112335,-0.013075290247797966,-0.006729423999786377,0.03026719205081463,0.03070717304944992,-0.05001010373234749,0.01985447648887598,0.08455770891413439,-0.009090893414858208
0.5005879402160645,-0.004231318831443787,-0.013546241447329521,-0.009765446186065674,0.04905792325735092,0.018650243058800697,-0.03282232582569122,0.019917596939082516,0.0847174263800342,-0.00953241196760907
0.5106801986694336,-0.004439041018486023,-0.009082989767193794,-0.015477240085601807,0.06029443070292473,0.009790971875190735,-0.0204445943236351,0.020062637677546503,0.08474238449425882,-0.009843216333024388
0.5212869644165039,-0.004699192941188812,-0.0025457385927438736,-0.016412675380706787,0.05063860863447189,0.005146951414644718,-0.007551433518528938,0.02048119998867921,0.08469790203154527,-0.010029791167985644
0.530540943145752,-0.005173027515411377,-0.00575973279774189,-0.01461249589920044,0.033079423010349274,-0.000953196082264185,-0.0018474216340109706,0.02111255830004008,0.0845466735390531,-0.01010007731334802
0.5405371189117432,-0.007981732487678528,-0.010627701878547668,-0.010806560516357422,0.012618890032172203,-0.008653726428747177,0.006007571704685688,0.021707374505701007,0.0843190887214999,-0.0100997918193388
0.5506610870361328,-0.009048864245414734,-0.013417156413197517,-0.006940603256225586,0.001816443633288145,-0.011562786996364594,0.013593213632702827,0.022107100307126683,0.08415035993624927,-0.010010414781777647
0.5619001388549805,-0.007242530584335327,-0.014073008671402931,-0.004280745983123779,0.0019863531924784184,-0.023836763575673103,0.024537740275263786,0.022488939793244057,0.0839920836117502,-0.009817529390737406
0.571782112121582,-0.006298348307609558,-0.010989116504788399,-0.002747178077697754,0.004588893614709377,-0.031592242419719696,0.03164982050657272,0.022826337044075568,0.08362700079555432,-0.009541157063172108
0.5805110931396484,-0.0053929537534713745,-0.005514837801456451,-3.4809112548828125e-05,0.0038314908742904663,-0.02914586290717125,0.037850722670555115,0.023173756713309946,0.083208990221643,-0.009196208091293102
0.5908081531524658,-0.007032610476016998,-0.002869177609682083,0.001841723918914795,0.001791326329112053,-0.030756231397390366,0.040437400341033936,0.023378062507295974,0.08278753844841702,-0.00879550492113922
0.600520133972168,-0.009885512292385101,-0.0029487591236829758,0.004119515419006348,0.00015028659254312515,-0.028291743248701096,0.037419237196445465,0.023405302155114577,0.0823582769570402,-0.008405032789331088
0.6108641624450684,-0.010664016008377075,-0.001368226483464241,0.009504377841949463,-0.0014634724939242005,-0.0274346936494112,0.042603880167007446,0.023505759686477418,0.08197591292673116,-0.00800320478113711
0.6228179931640625,-0.009340800344944,0.0006842445582151413,0.00877368450164795,-0.007350123953074217,-0.028173187747597694,0.03811006247997284,0.023711973020545493,0.08152120402618661,-0.0075874249206202985
0.6308801174163818,-0.008003465831279755,0.005524957552552223,0.010238826274871826,-0.020579243078827858,-0.021760739386081696,0.033703435212373734,0.02391407249266027,0.08108294387083886,-0.007207742852505779
0.6406221389770508,-0.006602227687835693,0.0013707000762224197,0.012322306632995605,-0.04244885593652725,-0.012561649084091187,0.03162563964724541,0.023955991603582968,0.08077934196630503,-0.006854927690005767
0.6507701873779297,-0.007401920855045319,-0.004621479660272598,0.017058730125427246,-0.07279734313488007,-0.0018989737145602703,0.03476720675826073,0.02365526054054594,0.080601273379796,-0.006470253632079332
0.660966157913208,-0.009680286049842834,-0.0069345515221357346,0.02139723300933838,-0.10103137791156769,0.008491615764796734,0.03128725290298462,0.022928903529940935,0.08055879145483628,-0.006077586177766098
0.6722321510314941,-0.009450457990169525,-0.011391734704375267,0.023496150970458984,-0.1190091222524643,0.01395504642277956,0.025147125124931335,0.021935216072035073,0.08054072180350258,-0.005700220126498334
0.6807489395141602,-0.008261442184448242,-0.013685444369912148,0.02753525972366333,-0.12451627850532532,0.018367372453212738,0.014932038262486458,0.02083143631998396,0.08050936663615539,-0.005399551937401676
0.6914310455322266,-0.00732363760471344,-0.011330902576446533,0.030333638191223145,-0.1104033887386322,0.025581076741218567,0.015922466292977333,0.01975252820452396,0.08051586859513948,-0.00515368362735026
0.7007150650024414,-0.00951819121837616,-0.005508830770850182,0.0325855016708374,-0.08146148175001144,0.02793610841035843,0.015369327738881111,0.018860569111075785,0.080618948341776,-0.004919084037785429
0.7109980583190918,-0.010706402361392975,-0.002334408462047577,0.0297238826751709,-0.03943881765007973,0.048359137028455734,0.021184606477618217,0.018250707307080165,0.08086103196632012,-0.004702228534792376
0.7213902473449707,-0.012287057936191559,0.004137294366955757,0.026457607746124268,-0.01135418564081192,0.05356482043862343,0.03749726712703705,0.018100069525585377,0.08128324614803163,-0.004369043312602001
0.7308320999145508,-0.014651164412498474,0.009026573970913887,0.019212841987609863,0.022687504068017006,0.05996900796890259,0.03597292676568031,0.018320198302188163,0.08175724633616217,-0.004013846742097585
0.740623950958252,-0.01416555792093277,0.014047125354409218,0.013943910598754883,0.032298583537340164,0.06599467992782593,0.044477466493844986,0.018793711851276818,0.08226597745983576,-0.003629677111688168
0.7507052421569824,-0.013378411531448364,0.005175380036234856,0.012002527713775635,0.034472789615392685,0.08435025066137314,0.042599406093358994,0.01936726140648959,0.08291639613808532,-0.00323386874443772
0.7606141567230225,-0.014743953943252563,0.005290068686008453,0.010588526725769043,0.018090354278683662,0.08554227650165558,0.0441320538520813,0.019848254007613312,0.08365983433476695,-0.0028123310795480673
0.7720670700073242,-0.01310933381319046,0.004330972209572792,0.0035758614540100098,0.016965435817837715,0.0817403495311737,0.040128789842128754,0.02020148452827637,0.08440897059681807,-0.0024117381343089234
0.7806911468505859,-0.005524434149265289,0.004931854084134102,-0.0036240220069885254,0.021100258454680443,0.07026798278093338,0.033633872866630554,0.020481987664362124,0.08503615857349033,-0.002061430051039544
0.793032169342041,-0.0018483102321624756,0.006170392036437988,-0.005544841289520264,0.028399983420968056,0.054608866572380066,0.026529358699917793,0.020774542919234022,0.08548213682626706,-0.0017820587378136884
0.8022880554199219,-0.0015722066164016724,0.014058267697691917,-0.005065262317657471,0.028311217203736305,0.03761386126279831,0.021211877465248108,0.020987295834372404,0.08571083920056384,-0.0015608603485268264
0.8131852149963379,0.0035990923643112183,0.01764976978302002,-0.006183266639709473,0.02079802379012108,0.027404852211475372,0.014815605245530605,0.02105403041037571,0.08574302713614985,-0.001412662486602996
0.8220551013946533,0.003701247274875641,0.017164437100291252,-0.010796725749969482,0.01961131952702999,0.022139515727758408,0.013699473813176155,0.020934884260741436,0.08565558403014516,-0.0012946098399513415
0.8308801651000977,0.0025382041931152344,0.016068117693066597,-0.015922248363494873,0.025271335616707802,0.012569802813231945,0.009004746563732624,0.02099824807128716,0.08544463120644762,-0.001189836280090507
0.8408851623535156,0.002659149467945099,0.022190479561686516,-0.016857624053955078,0.03319850191473961,0.0022338086273521185,0.0020477708894759417,0.021123929868967134,0.08510899791314278,-0.0011460498342166676
0.8508491516113281,0.0022589638829231262,0.02696417272090912,-0.01482003927230835,0.05287238582968712,-0.0005560745485126972,-0.000968898122664541,0.02141160627923773,0.084760682399009,-0.0011732487019015861
0.8609011173248291,0.002436526119709015,0.024708321318030357,-0.01190119981765747,0.091786228120327,-0.010166358202695847,-0.0017880864907056093,0.021963499246328816,0.08456813430473757,-0.0012463224465801433
0.8728451728820801,0.0018675550818443298,0.026806093752384186,-0.007374405860900879,0.13954928517341614,-0.024118836969137192,-0.0013639514800161123,0.022917102561638474,0.08437524592750224,-0.0013535243658236774
0.8809299468994141,0.002131648361682892,0.03381573036313057,-0.007419705390930176,0.1821385622024536,-0.038875143975019455,-0.005264417268335819,0.0241134742201292,0.0840359290496038,-0.0015266321773816111
0.8908960819244385,0.006454132497310638,0.03914295881986618,-0.00422513484954834,0.21117226779460907,-0.04497853294014931,-0.004166182596236467,0.025550152824528233,0.08372831848663671,-0.0017407343672710812
0.9009411334991455,0.007461845874786377,0.03632102906703949,-0.002131938934326172,0.23522166907787323,-0.05714252218604088,0.0018898454727604985,0.027230152529133578,0.08334845799870104,-0.0019460984862518793
0.9110321998596191,0.00530899316072464,0.02871447242796421,0.004783153533935547,0.2730879783630371,-0.06450904905796051,-0.0014007030986249447,0.029191638740215593,0.08283363146049233,-0.0021574125941121354
0.9219732284545898,0.006968960165977478,0.02936643362045288,0.011802256107330322,0.32092955708503723,-0.07446074485778809,0.005522716790437698,0.031385739194688775,0.08221434578792061,-0.002394249604652026
0.9311122894287109,0.008705437183380127,0.029410533607006073,0.0115739107131958,0.387349396944046,-0.08601979911327362,0.02327641472220421,0.03400998232186715,0.08153510250353979,-0.0025421292977574252
0.9410171508789062,0.00927712768316269,0.03134562075138092,0.005835115909576416,0.4467453360557556,-0.10179769992828369,0.027221620082855225,0.037289925219654074,0.08067961116406522,-0.0026279219779891507
0.9513592720031738,0.012122869491577148,0.04121527075767517,0.004455864429473877,0.4684612452983856,-0.11215353012084961,0.035027455538511276,0.04092151120333472,0.07974889530052884,-0.0026791520581980334
0.9611761569976807,0.011991642415523529,0.038628723472356796,0.0085371732711792,0.4234868586063385,-0.12793835997581482,0.018991494551301003,0.04418202895627384,0.07868133145639188,-0.002756374350515027
0.9717590808868408,0.004285931587219238,0.0181875079870224,0.01738560199737549,0.3555862307548523,-0.1328675001859665,0.004398542921990156,0.04664680238533697,0.07766360576446196,-0.002969814749802552
0.9811861515045166,-0.0022551119327545166,-0.014529351145029068,0.040332674980163574,0.3172726631164551,-0.16727128624916077,-0.006280466448515654,0.04860012728676044,0.07648603882227054,-0.003240664456256303
0.9911971092224121,-0.0044173672795295715,-0.025990672409534454,0.056360721588134766,0.3343992233276367,-0.21838511526584625,-0.01360021810978651,0.051073143631970144,0.07477484565803319,-0.0035906890715937754
1.0012240409851074,0.0016501769423484802,-0.0001338869333267212,0.06104922294616699,0.307293564081192,-0.25582942366600037,-0.036889296025037766,0.05429035555085514,0.07241800997800572,-0.004084929632579592
1.0113749504089355,0.008535020053386688,-0.0003890804946422577,0.04970121383666992,0.23285867273807526,-0.26965123414993286,-0.05028403922915459,0.05699956183798476,0.0698056916872746,-0.004713304670117526
1.0215339660644531,0.010759331285953522,-0.01887959986925125,0.03613513708114624,0.11031439155340195,-0.2906196117401123,-0.08717174082994461,0.05869926291234957,0.06704296551186724,-0.005505227361770903
1.0310680866241455,0.002904169261455536,-0.044287826865911484,0.027171313762664795,-0.07553626596927643,-0.3339534401893616,-0.13435959815979004,0.05883448309290182,0.06399207182936102,-0.00661470864244241
1.0411319732666016,-0.0036225467920303345,-0.07468625903129578,0.04469859600067139,-0.2975679934024811,-0.3819819688796997,-0.1776743233203888,0.05689044460239751,0.060474082002938565,-0.008078762401614788
1.0512661933898926,-0.003349069505929947,-0.10202748328447342,0.08112764358520508,-0.5307812690734863,-0.4339110553264618,-0.2203473299741745,0.05262937561053317,0.0565121469680896,-0.009811858156280155
1.0611882209777832,-0.0020501911640167236,-0.11263475567102432,0.11431163549423218,-0.8280382752418518,-0.5312328338623047,-0.3080785274505615,0.045767446555074705,0.05181019830105547,-0.012069888006522566
1.0734939575195312,0.0032255128026008606,-0.11597226560115814,0.13124239444732666,-1.212868094444275,-0.6309030055999756,-0.39337506890296936,0.03546338641814933,0.046136243851738507,-0.015103037476603279
1.081007957458496,0.01049390435218811,-0.1581771969795227,0.14006006717681885,-1.7979449033737183,-0.7789856791496277,-0.5998204350471497,0.020397826365532633,0.039222166580548584,-0.019266625708223892
1.091088056564331,0.02242906391620636,-0.2121933400630951,0.14325380325317383,-2.7051494121551514,-0.9770914316177368,-0.9177660942077637,-0.0022171480193730175,0.03053900171860871,-0.02610712647196667
1.1011810302734375,0.018243327736854553,-0.2550666034221649,0.18421566486358643,-3.919569969177246,-1.2446917295455933,-1.3009971380233765,-0.035423733810148905,0.01924550742198167,-0.03628255774998411
1.1115202903747559,0.020828483626246452,-0.3675915598869324,0.24933350086212158,-5.49025297164917,-1.529508352279663,-1.8495522737503052,-0.0825289332963983,0.004378681341120752,-0.051548318789203365
1.1224701404571533,0.017709912732243538,-0.4692288041114807,0.3476863503456116,-7.06821870803833,-1.831583857536316,-2.2272109985351562,-0.14544603180580937,-0.01475343405186679,-0.07256980167354321
1.1312942504882812,-0.013831760734319687,-0.4877842962741852,0.44371330738067627,-8.725900650024414,-2.1407177448272705,-2.4871861934661865,-0.22373120483960382,-0.039328127149490015,-0.09869860330492353
1.1412620544433594,-0.0013887956738471985,-0.46080276370048523,0.472137987613678,-10.28589916229248,-2.4702236652374268,-2.4978079795837402,-0.3173445323565719,-0.07093527596903917,-0.13034498374851425
1.1511471271514893,-0.020099379122257233,-0.33013418316841125,0.47796982526779175,-11.615249633789062,-2.6682262420654297,-2.303499937057495,-0.4244945502859309,-0.11004824903414243,-0.1666337442991199
1.1614151000976562,-0.02150525152683258,-0.1583985686302185,0.407143771648407,-12.867968559265137,-2.706083297729492,-2.1075403690338135,-0.5431766085598094,-0.15709973906438043,-0.2098774946582425
1.1745471954345703,0.006888881325721741,-0.023038029670715332,0.26194846630096436,-14.017353057861328,-2.708355665206909,-1.8498517274856567,-0.6716534539347344,-0.21508969943164424,-0.2639051405180067
1.1835780143737793,-0.020757541060447693,0.1006355881690979,0.1462613344192505,-15.36279582977295,-2.869215250015259,-1.6088511943817139,-0.8096871600091464,-0.2920801556243357,-0.3365500187968711
1.1949000358581543,-0.00827394425868988,0.26574867963790894,0.07514309883117676,-16.595918655395508,-2.8799097537994385,-1.2055957317352295,-0.9557123616004696,-0.40400836833175285,-0.4435394017470232
1.20166015625,-0.012621968984603882,0.306418776512146,0.05929285287857056,-17.933958053588867,-2.715693950653076,-0.9358910322189331,-1.1033877009431126,-0.5844314293085986,-0.6207364502687257
1.2115192413330078,-0.024843990802764893,0.21892601251602173,0.03524996340274811,-18.484560012817383,-2.422147512435913,-0.9211072325706482,-1.2322215795938738,-0.9214964919462552,-0.9577755916564159
1.2221789360046387,-0.10692811012268066,0.3571425676345825,0.041185975074768066,-17.990238189697266,-2.188081979751587,-1.0982567071914673,-1.289780579055611,-1.5005237923554817,-1.5398593595504206
1.231431007385254,-0.16427728533744812,0.610137403011322,-0.06874871253967285,-16.77826690673828,-2.1399526596069336,-1.3675986528396606,-1.2394897878611384,-2.0611130765286996,-2.1034796092806896
1.2414541244506836,-0.16239041090011597,0.7607595324516296,-0.29394614696502686,-15.632206916809082,-2.1612164974212646,-1.5519179105758667,-1.1284398027265863,-2.3794474478879337,-2.422797314914083
1.2513411045074463,-0.1381126344203949,0.6664846539497375,-0.479214608669281,-14.629776000976562,-1.9217878580093384,-1.598876714706421,-0.9998194671319562,-2.5496955681299274,-2.5933301070347574
1.2613770961761475,-0.1558515429496765,0.5020062327384949,-0.5435675382614136,-13.331439971923828,-1.8015892505645752,-1.6202243566513062,-0.8713131017431106,-2.648104262886031,-2.692115370460092
1.2718191146850586,-0.12409520149230957,0.5457867383956909,-0.5457720756530762,-11.084202766418457,-1.8616206645965576,-1.6873890161514282,-0.7539788759757279,-2.708486641732795,-2.7501187739505153
1.2813692092895508,-0.051077425479888916,0.645618736743927,-0.4666061997413635,-7.980216026306152,-1.8675403594970703,-1.6274665594100952,-0.6595654028024089,-2.747152712841341,-2.781421530734889
1.2914209365844727,0.02469491958618164,0.6009962558746338,-0.4357936382293701,-4.6160078048706055,-1.9484083652496338,-1.608551263809204,-0.5954533613689713,-2.7723578691166715,-2.7915164373954955
1.3016462326049805,0.012513518333435059,0.7463892698287964,-0.544014036655426,-2.3509955406188965,-1.7119196653366089,-1.477418303489685,-0.558052657935241,-2.7892701715567774,-2.7885973355856435
1.311509132385254,0.05919507145881653,0.6362721920013428,-0.507509708404541,-1.3757405281066895,-1.2974755764007568,-1.2267495393753052,-0.5367270587653737,-2.8002898353982477,-2.7807329963284824
1.3218622207641602,0.04535973072052002,0.26519832015037537,-0.3132137060165405,-1.2901228666305542,-0.8886170983314514,-0.9390900731086731,-0.5208163635870188,-2.8076686131923787,-2.773874652156169
1.3313980102539062,0.035915642976760864,0.013751775026321411,-0.04412907361984253,-1.3904234170913696,-0.655577540397644,-0.6849098801612854,-0.5054701975999171,-2.813399157242141,-2.770130686044044
1.341494083404541,0.06902185082435608,-0.05960947275161743,0.1801580786705017,-1.3289823532104492,-0.5358647108078003,-0.5329618453979492,-0.4904952576537984,-2.8186107819506736,-2.768625973793162
1.3516221046447754,0.07869350910186768,-0.09275749325752258,0.29260778427124023,-1.0731393098831177,-0.42224153876304626,-0.4020552635192871,-0.47752090053432594,-2.8230958322303734,-2.767889638663685
1.3615291118621826,0.0765572190284729,-0.12077713012695312,0.2963164448738098,-0.7127673029899597,-0.2590624690055847,-0.27478599548339844,-0.46799666520810257,-2.8263345789900813,-2.767427533086026
1.373204231262207,0.057224273681640625,-0.09401047229766846,0.2013896107673645,-0.420853853225708,-0.09971359372138977,-0.16759702563285828,-0.4620186440668028,-2.827938449974188,-2.767007684998044
1.3815202713012695,0.046646952629089355,-0.044188112020492554,0.08017683029174805,-0.2584036886692047,0.00301704416051507,-0.04900353401899338,-0.45860966657108637,-2.8283466173981733,-2.7669841576169802
1.3917200565338135,0.03759801387786865,-0.069355309009552,0.039173781871795654,-0.2603820562362671,0.05211929976940155,0.04978157952427864,-0.45616665406974294,-2.8283969730450647,-2.7678617354273403
1.4015491008758545,0.04780465364456177,-0.10124409198760986,0.07450354099273682,-0.32387712597846985,0.0637059137225151,0.14435681700706482,-0.45376930057294607,-2.8287247407191547,-2.7698942084663476
1.4118480682373047,0.049222588539123535,-0.10221999883651733,0.08764338493347168,-0.3163256049156189,0.054422978311777115,0.22355204820632935,-0.4511896569262407,-2.8294165317459363,-2.772980978339905
1.4219722747802734,0.03850170969963074,-0.09959942102432251,0.06327664852142334,-0.20853416621685028,-0.007706440053880215,0.2598109543323517,-0.4494654049809351,-2.8306928415197294,-2.7764482224464087
1.4317669868469238,0.028901606798171997,-0.08691242337226868,0.028751015663146973,-0.11399964243173599,-0.04009287804365158,0.27888166904449463,-0.4488140137093402,-2.832414763310187,-2.7798231176082475
1.4416589736938477,0.025106698274612427,-0.05557069182395935,0.01573193073272705,-0.09451009333133698,-0.02534855157136917,0.3188580870628357,-0.44876300962955135,-2.834247974038791,-2.7833345764229565
1.4525279998779297,0.012806415557861328,-0.023204386234283447,-0.01052480936050415,-0.05567488074302673,-0.023768942803144455,0.3268571197986603,-0.4490144160373031,-2.8360769042105822,-2.787038538415818
1.461536169052124,-0.005643725395202637,-0.005849301815032959,-0.030543267726898193,0.011811752803623676,-0.03250037878751755,0.3155408203601837,-0.4498209702219905,-2.8378751421561135,-2.7905382853737755
1.4721691608428955,-0.0077446699142456055,0.03493332862854004,-0.023625969886779785,-0.0033005375880748034,0.011679019778966904,0.2835468351840973,-0.45075777903843056,-2.8393616630620335,-2.7936929162393476
1.4817242622375488,-0.021682292222976685,0.0633668303489685,-0.03158390522003174,0.042793456465005875,0.027575695887207985,0.24656377732753754,-0.4517001445618051,-2.8403456873405935,-2.796478635148507
1.492295265197754,-0.034071385860443115,0.07585293054580688,-0.04270249605178833,0.14165927469730377,0.03336203470826149,0.17561796307563782,-0.45322231753450126,-2.840878701388599,-2.798420060401435
1.5018081665039062,-0.033472418785095215,0.09120392799377441,-0.047298550605773926,0.2424956113100052,0.037124812602996826,0.12121596932411194,-0.45553094169230696,-2.8409155862211573,-2.799345113613927
1.5119531154632568,-0.03137043118476868,0.10252106189727783,-0.052931368350982666,0.30811193585395813,0.009695986285805702,0.07975684106349945,-0.45851210447679125,-2.840714488811173,-2.799485367286671
1.5218582153320312,-0.029623448848724365,0.10386082530021667,-0.053142428398132324,0.33806610107421875,-0.025669727474451065,0.02837034873664379,-0.46176822147269325,-2.8405614231466436,-2.7989991278524005
1.5325701236724854,-0.021189391613006592,0.07948794960975647,-0.03017103672027588,0.3696669340133667,-0.061500877141952515,-0.006188587285578251,-0.4652532639753341,-2.84050763724902,-2.7978919930255106
1.5428130626678467,-0.00543859601020813,0.04810786247253418,-0.011606395244598389,0.3354482352733612,-0.04300948232412338,-0.001142962253652513,-0.4686286367643114,-2.8404758360974314,-2.796641965976388
1.5516471862792969,-0.00402069091796875,0.03542435169219971,-0.023891925811767578,0.3326013684272766,-0.02404848486185074,0.03589441999793053,-0.4718675911203877,-2.8403601182420113,-2.7957019057537313
1.5618371963500977,-0.005697965621948242,0.031969815492630005,-0.03867834806442261,0.41461023688316345,-0.02200371026992798,0.06095210090279579,-0.4755096573813702,-2.8402454473490173,-2.794988109432944
1.5724740028381348,0.004887372255325317,0.022690147161483765,-0.03816878795623779,0.5850285291671753,-0.014026610180735588,0.10555285960435867,-0.4805474207075385,-2.8400508366921944,-2.794199654665029
1.5817852020263672,0.015988558530807495,0.018184423446655273,-0.03175455331802368,0.6999455094337463,0.03290015086531639,0.1595737487077713,-0.48713703875033304,-2.8396133478466052,-2.79342281598916
1.5916991233825684,0.0230865478515625,0.03303450345993042,-0.038337886333465576,0.7877969145774841,0.09368312358856201,0.21600720286369324,-0.49485038998364794,-2.838740393662323,-2.792951412501342
1.6017670631408691,0.024511277675628662,0.05136248469352722,-0.03247249126434326,0.8596183657646179,0.13222359120845795,0.24772332608699799,-0.5033808673679221,-2.8374593522292444,-2.792698288566516
1.6125102043151855,0.027049213647842407,0.01772412657737732,-0.009261012077331543,1.1019468307495117,0.12308761477470398,0.2562587559223175,-0.5134344009074852,-2.8358731988608046,-2.7921015789313075
1.6236920356750488,0.03221851587295532,-0.02114713191986084,0.02439337968826294,1.4981952905654907,0.1454043686389923,0.2697031795978546,-0.5265417910443451,-2.833795294563249,-2.790492609661134
1.6317660808563232,0.040990620851516724,-0.0030918121337890625,0.036479949951171875,2.1573662757873535,0.1869046688079834,0.3259577751159668,-0.5447961749124738,-2.830444602809114,-2.787314466599462
1.6419572830200195,0.04141366481781006,0.05721014738082886,0.014421463012695312,2.887639045715332,0.2666005790233612,0.3953528106212616,-0.569915620834616,-2.825542321253879,-2.782182152894481
1.6517250537872314,0.03725883364677429,0.08955579996109009,-0.010512709617614746,3.720247983932495,0.3930399417877197,0.5149673819541931,-0.6027473889881265,-2.81815264148243,-2.774837931941461
1.6617851257324219,0.03199020028114319,0.09797239303588867,-0.025865793228149414,4.547074794769287,0.535723865032196,0.6454873085021973,-0.643819290932035,-2.8078518272732826,-2.7651604411691317
1.6718940734863281,0.014913231134414673,0.08587807416915894,-0.04073357582092285,5.414068222045898,0.6610583066940308,0.7774114608764648,-0.6931852303617859,-2.793947272257604,-2.7524715093778
1.681859016418457,0.006629526615142822,0.0786510705947876,-0.026944279670715332,6.242243766784668,0.775425374507904,0.9237353801727295,-0.750952286569644,-2.775804857606033,-2.7359085092414044
1.6926140785217285,0.003478109836578369,0.0754508376121521,0.00676196813583374,7.058685779571533,0.9458076357841492,1.073501467704773,-0.8164478414834063,-2.7519998708974795,-2.714387131562235
1.7018852233886719,0.006413668394088745,0.10814821720123291,0.05034017562866211,8.051512718200684,1.082026481628418,1.2443437576293945,-0.8904903425838278,-2.7198453991077707,-2.6852497560547417
1.7120351791381836,-0.007960528135299683,0.13940930366516113,0.08041316270828247,9.16938591003418,1.1643434762954712,1.4083667993545532,-0.9740053167005208,-2.674720476717595,-2.643172502600348
1.7220001220703125,-0.005642145872116089,0.16735869646072388,0.12113898992538452,10.414056777954102,1.1648873090744019,1.6348377466201782,-1.067360749071007,-2.6080778672047495,-2.57882732490211
1.731863021850586,0.0017541944980621338,0.2635233998298645,0.20718833804130554,11.835542678833008,1.104812502861023,1.7974261045455933,-1.1697815283611468,-2.498742403258816,-2.4702055070873885
1.7420539855957031,0.006952807307243347,0.3986895680427551,0.30380597710609436,13.008967399597168,1.0863314867019653,1.8745789527893066,-1.274251889715595,-2.291981763582666,-2.262162651052737
1.7518420219421387,-0.019159391522407532,0.47793900966644287,0.4049011468887329,14.08907699584961,1.0129454135894775,1.8158820867538452,-1.3580003825774514,-1.8537608637669096,-1.8210733441487679
1.7621240615844727,-0.04957263171672821,0.5062137246131897,0.5234206914901733,14.603121757507324,1.2245701551437378,1.541240930557251,-1.3649757652117827,-1.1443673228114397,-1.108566204455518
1.7729971408843994,-0.08899940550327301,0.45568597316741943,0.6152417659759521,14.740862846374512,1.5369954109191895,1.3617994785308838,-1.2807267586041398,-0.6358281435880703,-0.5994974523385789
1.782048225402832,-0.1624344140291214,0.3842903971672058,0.6456570625305176,14.626616477966309,1.784233570098877,1.3015880584716797,-1.158190380756913,-0.38956468138539596,-0.35561342985918726
1.7920680046081543,-0.20229925215244293,0.4213584065437317,0.6416550278663635,14.469072341918945,1.8215981721878052,1.2893470525741577,-1.0237755369660417,-0.25816985843584367,-0.2285526002232097
1.8020000457763672,-0.20926475524902344,0.5127620697021484,0.6640502214431763,14.119775772094727,1.7790565490722656,1.3755799531936646,-0.8867204756024148,-0.17791306052648,-0.15240646320427279
1.8123970031738281,-0.19257140159606934,0.5259822010993958,0.7157886028289795,13.413224220275879,1.824638843536377,1.4416378736495972,-0.7522619468159448,-0.12289095640443162,-0.10165712716433715
1.8228812217712402,-0.1411009579896927,0.48499900102615356,0.7420036196708679,12.362560272216797,1.9561532735824585,1.4281028509140015,-0.6250596112252138,-0.08118443294132074,-0.0660430456668664
1.8320801258087158,-0.19168178737163544,0.41667553782463074,0.7145392298698425,10.888070106506348,2.125304698944092,1.4461668729782104,-0.5095728312185575,-0.04686123856096504,-0.040175129307788875
1.8422391414642334,-0.2497251033782959,0.3125301003456116,0.7021364569664001,9.201797485351562,2.3146283626556396,1.4256112575531006,-0.40929739836950707,-0.015851834263324656,-0.02053482052337475
1.852250099182129,-0.2383366972208023,0.14654195308685303,0.6995106935501099,7.246731281280518,2.4318461418151855,1.3561391830444336,-0.3268845705776313,0.013383525961575481,-0.005386223304636441
1.8620610237121582,-0.22095778584480286,-0.039920032024383545,0.6668947339057922,5.274333477020264,2.45566987991333,1.2251837253570557,-0.2638888742035109,0.041212842701368754,0.006385659782360319
1.8731491565704346,-0.1742149144411087,-0.2097913771867752,0.6279767155647278,3.483912706375122,2.5766148567199707,1.0374157428741455,-0.21970278573806715,0.06863269727038293,0.015614464773360898
1.8821592330932617,-0.1279584765434265,-0.3695808947086334,0.5376682877540588,2.15045428276062,2.5401902198791504,0.8352505564689636,-0.1911001757318955,0.09585078868996609,0.022838886363685335
1.8921501636505127,-0.107241190969944,-0.4562753736972809,0.4060084819793701,1.3480486869812012,2.3306703567504883,0.607977569103241,-0.173297478721982,0.12128285133120137,0.028269114362087375
1.902235984802246,-0.0641542375087738,-0.4502292275428772,0.3149915337562561,1.1135445833206177,1.977091670036316,0.45187899470329285,-0.16068230842299253,0.14356194376716774,0.03191370836123808
1.9128742218017578,0.015444830060005188,-0.33690345287323,0.2344510555267334,1.2790364027023315,1.5966733694076538,0.4503946602344513,-0.1483756188155493,0.1618357709348452,0.03451340587072987
1.9228529930114746,0.10065928101539612,-0.1150829941034317,0.14617973566055298,1.5976433753967285,1.1245195865631104,0.5609283447265625,-0.1333304463065226,0.17581476764144766,0.03704811564446556
1.932347059249878,0.17274853587150574,0.13275165855884552,0.0676649808883667,1.8145759105682373,0.8251757025718689,0.6760927438735962,-0.1152756942254231,0.185807034292957,0.04008448413065827
1.942535161972046,0.21849244832992554,0.25754687190055847,0.042500972747802734,1.8406192064285278,0.6170579195022583,0.742741584777832,-0.09585606407032063,0.19336724062106692,0.04363695883649113
1.9521169662475586,0.2047637701034546,0.2283683717250824,0.02602463960647583,1.7029203176498413,0.45266827940940857,0.7440450191497803,-0.07689844136193501,0.19901764514696552,0.04753368245343934
1.9621620178222656,0.13335640728473663,0.12349511682987213,0.02318704128265381,1.4138418436050415,0.34261608123779297,0.6510987877845764,-0.0601042999986889,0.2032120774709805,0.05131103152915503
1.972372055053711,0.06796593964099884,0.025601059198379517,0.04098612070083618,1.0488260984420776,0.3352397084236145,0.5201817750930786,-0.04684954860033079,0.20673908973050442,0.05453531331083291
1.9822580814361572,0.021713972091674805,-0.03155764192342758,0.03163045644760132,0.7130934596061707,0.3171246349811554,0.39843112230300903,-0.03731886395853191,0.2101223320169019,0.057233470742365525
1.9924049377441406,-0.004093915224075317,-0.041641246527433395,0.007482409477233887,0.4665878415107727,0.28686442971229553,0.27670493721961975,-0.030888714079173867,0.21321945219716432,0.059319514953013006
2.0023951530456543,-0.01654157042503357,-0.03146383911371231,-0.009222686290740967,0.3485669195652008,0.29156410694122314,0.19422632455825806,-0.02653836242085957,0.21614151877870447,0.0607242051960867
2.0125041007995605,-0.017501220107078552,-0.006958728656172752,-0.022025585174560547,0.37011778354644775,0.26687633991241455,0.17837576568126678,-0.02267722741712985,0.21897945776554326,0.06176181583766209
2.0225610733032227,-0.01985800266265869,0.03944932669401169,-0.039481520652770996,0.4612319767475128,0.20131012797355652,0.18636365234851837,-0.018214644631793165,0.22134334858779525,0.06263488538682513
2.032504081726074,-0.02796664834022522,0.0859668180346489,-0.04379767179489136,0.5299821496009827,0.14898774027824402,0.18727733194828033,-0.012925754535419835,0.22308339980071223,0.06335706006162685
2.042941093444824,-0.031790927052497864,0.09256409108638763,-0.03711080551147461,0.5456827878952026,0.13377229869365692,0.20079554617404938,-0.007228458582634176,0.22448866130077463,0.06403782591470855
2.052302122116089,-0.04185909032821655,0.06523662060499191,-0.03371691703796387,0.5448229908943176,0.14589576423168182,0.23517903685569763,-0.0013985174757514586,0.2259360338178853,0.06492738114405865
2.062375068664551,-0.05500100553035736,0.03528730943799019,-0.0401768684387207,0.501847505569458,0.14131033420562744,0.24746499955654144,0.0042661983975402955,0.22735145345571822,0.0661163852944821
2.0729331970214844,-0.059137046337127686,0.01906256005167961,-0.049622535705566406,0.4302942454814911,0.14496685564517975,0.25525787472724915,0.009403879738496983,0.22875468645337377,0.06751024364231951
2.0823731422424316,-0.05300116539001465,0.005177230574190617,-0.050103843212127686,0.338580846786499,0.15728318691253662,0.2601434588432312,0.013737837923481835,0.23025324679133904,0.06915793056886291
2.092360019683838,-0.051092520356178284,-0.014355212450027466,-0.04969829320907593,0.25607624650001526,0.14924398064613342,0.24786163866519928,0.017216066751086688,0.2317852560610293,0.07095596047287592
2.1026992797851562,-0.05404698848724365,-0.023991351947188377,-0.038927435874938965,0.177710622549057,0.11904240399599075,0.22004252672195435,0.01987897309433306,0.23310843964915992,0.07275594068184878
2.112384080886841,-0.051680341362953186,-0.02666357532143593,-0.028257310390472412,0.10014507919549942,0.09949386864900589,0.1701897531747818,0.02167796258468685,0.234119812942324,0.07435624122221592
2.1235151290893555,-0.044747576117515564,-0.02594243548810482,-0.020730018615722656,0.05975264683365822,0.07419809699058533,0.14723969995975494,0.022796104897797365,0.2350461748054011,0.07569364470172242
2.1324851512908936,-0.04401114583015442,-0.038386620581150055,-0.023951053619384766,0.03758709132671356,0.031145617365837097,0.11890099197626114,0.023566244454081064,0.23550150780262524,0.07690202901594538
2.142545223236084,-0.04068589210510254,-0.03860411047935486,-0.0370715856552124,0.07300873100757599,0.02200937643647194,0.12486568093299866,0.024340793574559844,0.23574259582844198,0.0779204455852006
2.152405261993408,-0.026175543665885925,-0.019407281652092934,-0.04930788278579712,0.14226298034191132,-0.03356577828526497,0.15946349501609802,0.025731052152047833,0.23565756141603705,0.0790589484589487
2.1625142097473145,-0.01734323799610138,0.010743984952569008,-0.07292711734771729,0.20516525208950043,-0.0718415230512619,0.16760344803333282,0.02780689238350027,0.23509269458153612,0.08024624713671144
2.1724791526794434,-0.014886051416397095,0.03439030796289444,-0.0746382474899292,0.22404249012470245,-0.1164257749915123,0.17112542688846588,0.030320847312064154,0.2340737421407731,0.08140788648400517
2.182487964630127,-0.016834348440170288,0.018307603895664215,-0.07243543863296509,0.18990209698677063,-0.14290346205234528,0.14209617674350739,0.03274827206056847,0.23273749886068473,0.08246222898810111
2.1925110816955566,-0.027793750166893005,-0.006817664951086044,-0.057621657848358154,0.10704677551984787,-0.1972874253988266,0.06276901811361313,0.03444890549327455,0.23104476082244774,0.08315355103470629
2.2024941444396973,-0.039161473512649536,-0.032842762768268585,-0.028226196765899658,0.010356718674302101,-0.2618483006954193,-0.044186994433403015,0.0350507525559255,0.22871319982430086,0.08309614874386477
2.2125940322875977,-0.04448871314525604,-0.0779803991317749,0.01627415418624878,-0.07363352924585342,-0.285892128944397,-0.09238168597221375,0.0345600410229336,0.22598440831156322,0.08244883350895812
2.2226850986480713,-0.03711922466754913,-0.09905045479536057,0.041652679443359375,-0.10569825023412704,-0.3078690767288208,-0.08469820022583008,0.03346310947533549,0.2230478392759775,0.08177999020989037
2.232579231262207,-0.02734360098838806,-0.05798323452472687,0.03918886184692383,-0.10272879153490067,-0.3249063789844513,-0.07417040318250656,0.03224756636945044,0.21985182545665555,0.08122768460521
2.2426750659942627,-0.016711071133613586,-0.021724943071603775,0.017928361892700195,-0.06313184648752213,-0.28825676441192627,-0.018241096287965775,0.031304453128660474,0.21676746092396168,0.08092667181228956
2.2525620460510254,-0.006456896662712097,-0.020019344985485077,-0.00860452651977539,0.011065601371228695,-0.2196923792362213,0.07044249027967453,0.031087340038122066,0.214218389949691,0.08122949692549244
2.2626731395721436,-0.009307116270065308,-0.01208474114537239,-0.03507286310195923,0.09362412989139557,-0.19053369760513306,0.15861335396766663,0.03145376435920116,0.21182788365883476,0.08226713462858387
2.2730021476745605,-0.007117182016372681,0.009994704276323318,-0.05492985248565674,0.14297375082969666,-0.13670282065868378,0.2143826186656952,0.03319415149131264,0.20969291529051365,0.08385894869876387
2.2825710773468018,0.01034882664680481,0.013545390218496323,-0.04964113235473633,0.14850673079490662,-0.09322059154510498,0.26721280813217163,0.03581561426356888,0.20796955142842613,0.0859568235992841
2.2926361560821533,0.0066729336977005005,-0.007386054843664169,-0.033217430114746094,0.14040914177894592,-0.08686935156583786,0.27610310912132263,0.037819484337140066,0.20700053010476274,0.088345984547343
2.302664279937744,-0.006292566657066345,-0.027955658733844757,-0.0031251907348632812,0.09791388362646103,-0.07603907585144043,0.2622637450695038,0.03955953789200905,0.20607396687551335,0.0907425248194996
2.3127851486206055,-0.0036762654781341553,-0.04174512252211571,0.026260435581207275,0.04068511351943016,-0.05578937008976936,0.2621712386608124,0.040785705143804474,0.20532823116493212,0.09315909207119483
2.3229732513427734,0.0020575523376464844,-0.04635412618517876,0.028356075286865234,-0.007362574338912964,-0.031293611973524094,0.2588851749897003,0.04147208483009744,0.20479173783930982,0.09568475561687285
2.332965135574341,0.01252351701259613,-0.046904776245355606,0.00905609130859375,-0.04039018228650093,-0.0218849778175354,0.25250309705734253,0.041760921725181525,0.20442149527084688,0.09823626540185618
2.3426899909973145,0.026226580142974854,-0.03403756022453308,-0.00866156816482544,-0.04019444063305855,0.015833640471100807,0.26384231448173523,0.04184134311993921,0.20426554442610118,0.10084002980949394
2.35262393951416,0.039611220359802246,-0.017642803490161896,-0.025476038455963135,-0.004598395898938179,0.03945525735616684,0.2888595759868622,0.0421688753745357,0.20442161224592695,0.10360469958857381
2.3627281188964844,0.049036890268325806,-0.011631011962890625,-0.042294204235076904,0.05287288501858711,0.028537362813949585,0.30537569522857666,0.043023975625960005,0.20463631668428203,0.10648951385316606
2.373471260070801,0.05654974281787872,0.008790437132120132,-0.04337358474731445,0.09209350496530533,0.02939441055059433,0.30034399032592773,0.044373231728353654,0.20478329251876068,0.10931810326989638
2.382725238800049,0.062375396490097046,0.024452049285173416,-0.03522980213165283,0.08581430464982986,0.019847244024276733,0.28778478503227234,0.045891491065204106,0.20492562348925822,0.11202311225108527
2.392763137817383,0.06126472353935242,0.011585503816604614,-0.021751224994659424,0.02817373163998127,0.00869832094758749,0.24135228991508484,0.04701847211810923,0.20494882544054063,0.11450732258467199
2.402801990509033,0.05857342481613159,-0.011604558676481247,-0.0009953975677490234,-0.06213246285915375,0.014693096280097961,0.18976552784442902,0.047296733767329825,0.20494182671773617,0.11666882899389247
2.412767171859741,0.05978098511695862,-0.032277509570121765,0.02389979362487793,-0.13187837600708008,0.019797267392277718,0.15452498197555542,0.04667314183961637,0.2050427891931908,0.11856027163125965
2.423326015472412,0.05620253086090088,-0.03824208676815033,0.03511917591094971,-0.16213561594486237,0.03136976808309555,0.11716562509536743,0.04548330188040713,0.20521107447195694,0.12019402999269961
2.432816982269287,0.04575216770172119,-0.023854974657297134,0.0421452522277832,-0.13770605623722076,0.040958698838949203,0.09688986092805862,0.044213622580135774,0.2055248978181197,0.12154443631152655
2.4438552856445312,0.033001720905303955,0.0012530423700809479,0.03993487358093262,-0.06976907700300217,0.044209353625774384,0.08087201416492462,0.043365625959238104,0.205916776137181,0.12263364933168727
2.4531540870666504,0.02544495463371277,0.026859942823648453,0.032755494117736816,-0.006290168967097998,0.061482615768909454,0.057818733155727386,0.042803185996346735,0.20792858753423096,0.12332861828793955
2.4628500938415527,0.014276266098022461,0.0485430546104908,0.038098156452178955,0.05914822593331337,0.099584199488163,0.0398477204144001,0.04246755228543626,0.21026669897190703,0.12368742038857983
2.473203182220459,-0.008003205060958862,0.05470643565058708,0.041714608669281006,0.12646326422691345,0.139250248670578,0.016781814396381378,0.04319947716233259,0.21288384725060525,0.12371227993428625
2.4827799797058105,-0.022364020347595215,0.054752886295318604,0.040198326110839844,0.2115888148546219,0.16012969613075256,0.00246093375608325,0.045277380435931526,0.2157198559022589,0.12337239713913047
2.4929661750793457,-0.028383851051330566,0.059505823999643326,0.03244704008102417,0.26726219058036804,0.16268514096736908,-0.016320370137691498,0.04850798900515786,0.2187179343121836,0.12272536275005344
2.5030622482299805,-0.020531252026557922,0.053831979632377625,0.022719264030456543,0.27763253450393677,0.15761686861515045,-0.0388009138405323,0.052070214816551885,0.2216602789123567,0.12178031691233307
2.5132100582122803,-0.01337587833404541,0.036173392087221146,0.02529597282409668,0.23762600123882294,0.14939743280410767,-0.06698604673147202,0.054984651007186296,0.22429770941204158,0.12063391730070554
2.523297071456909,-0.021171271800994873,0.00576501339673996,0.03532218933105469,0.17038650810718536,0.15695440769195557,-0.09378223866224289,0.056484737064510085,0.2265257574852583,0.11934610802022833
2.533064126968384,-0.033080652356147766,-0.03011474385857582,0.0491337776184082,0.1087670624256134,0.1591084599494934,-0.10425326228141785,0.05675347741116405,0.22848226032800378,0.11804844877232407
2.5431411266326904,-0.04342487454414368,-0.049089424312114716,0.05041098594665527,0.06390664726495743,0.16009517014026642,-0.10521679371595383,0.05627167315040635,0.23023237126175017,0.116821260763699
2.5529210567474365,-0.04657988250255585,-0.0452098473906517,0.0419081449508667,0.036307189613580704,0.15301351249217987,-0.10151436179876328,0.055572530311049,0.2316167609976155,0.1157112298586978
2.5631260871887207,-0.03942878544330597,-0.03635981306433678,0.023628175258636475,0.0037860008887946606,0.1587883085012436,-0.08660199493169785,0.054762524084514236,0.23286791328365516,0.11475919698324347
2.573470115661621,-0.027275219559669495,-0.03406635299324989,0.01046687364578247,-0.0212022066116333,0.1586434245109558,-0.07183295488357544,0.053697478108972976,0.2340715342871201,0.1140446435675407
2.5829529762268066,-0.021659672260284424,-0.02949346974492073,-0.002759575843811035,-0.03709914907813072,0.13928943872451782,-0.07257623970508575,0.05254668486438797,0.2352349220518868,0.11342509847478117
2.5930230617523193,-0.009207263588905334,-0.024712976068258286,-0.01067495346069336,-0.05136438459157944,0.11615283042192459,-0.07134335488080978,0.05152746356342987,0.23628945773898763,0.11283066368150453
2.60299015045166,0.005484968423843384,-0.02459714189171791,-0.012328267097473145,-0.06576543301343918,0.08751799166202545,-0.06703462451696396,0.0508031150595103,0.23705266432401878,0.11231037860759194
2.613126277923584,0.01108098030090332,-0.021417703479528427,-0.016922175884246826,-0.07127522677183151,0.04709453508257866,-0.0689849704504013,0.05048789580636177,0.2373829850906798,0.11182638672170384
2.62332820892334,0.013529732823371887,-0.01919134333729744,-0.019975364208221436,-0.08026579767465591,0.011884615756571293,-0.06991760432720184,0.0504406352092665,0.2371390654438086,0.1113523615877042
2.6330699920654297,0.015081450343132019,-0.016772113740444183,-0.019243478775024414,-0.0876941829919815,-0.014547433704137802,-0.06465785950422287,0.05038786162236094,0.23643596577037831,0.1109287399711897
2.6431002616882324,0.01310373842716217,-0.013848710805177689,-0.02109551429748535,-0.08973868936300278,-0.053373128175735474,-0.06533963233232498,0.0503204665504236,0.23529770625513496,0.11054774475464264
2.653085231781006,0.009543180465698242,-0.009077329188585281,-0.025417208671569824,-0.10065630823373795,-0.07393854856491089,-0.069673553109169,0.05049917932690616,0.23382869426214678,0.11014640087031513
2.663105010986328,0.009404465556144714,-0.007437668740749359,-0.024279654026031494,-0.1096964031457901,-0.09076440334320068,-0.06818750500679016,0.05035338166272862,0.23236801277335797,0.10975126227997173
2.6733710765838623,0.008866950869560242,-0.01154930517077446,-0.02310866117477417,-0.11535463482141495,-0.10932782292366028,-0.06629160046577454,0.049872728432861675,0.23115714259663245,0.10938125557607284
2.683164119720459,0.005196854472160339,-0.011009670794010162,-0.02085500955581665,-0.11625611782073975,-0.12180472910404205,-0.06563512980937958,0.0493741514845241,0.2302807097638254,0.10898480221727246
2.6932129859924316,0.0035597681999206543,-0.009682752192020416,-0.01589411497116089,-0.11862386763095856,-0.13940823078155518,-0.05939151346683502,0.04894578511745376,0.2295585637288291,0.10861030324445183
2.7031021118164062,-0.00397200882434845,-0.008785039186477661,-0.017215728759765625,-0.11469729989767075,-0.15614540874958038,-0.059109486639499664,0.048652967142429074,0.22892147934792353,0.10826425888893737
2.7132151126861572,-0.009700596332550049,-0.008935093879699707,-0.016487538814544678,-0.1170709952712059,-0.16713088750839233,-0.05945495143532753,0.047983327973046566,0.22793258781357137,0.10792020312285787
2.723356246948242,-0.009544506669044495,-0.016679082065820694,-0.009692549705505371,-0.12273580580949783,-0.17480319738388062,-0.047637972980737686,0.04712007912855593,0.22666513713057704,0.10764435364234691
2.733142137527466,-0.011467188596725464,-0.017416641116142273,-0.005788922309875488,-0.12445233017206192,-0.1787901669740677,-0.03627490624785423,0.046091499160038775,0.22518086941345447,0.10749363469707
2.743195056915283,-0.011367365717887878,-0.015042565762996674,-0.004689455032348633,-0.12248265743255615,-0.19202794134616852,-0.024594012647867203,0.04507706479328589,0.22359506325063389,0.10745471283709984
2.753136157989502,-0.0076894015073776245,-0.012660510838031769,-0.008491158485412598,-0.14045771956443787,-0.195343017578125,-0.012255693785846233,0.04413175395465943,0.22192484921145056,0.10755146010819959
2.763322114944458,-0.009455859661102295,-0.012597870081663132,-0.008016347885131836,-0.16774605214595795,-0.19425617158412933,-0.0026936144568026066,0.042987879587476435,0.22018802190224038,0.10781771718721321
2.773621082305908,-0.022598043084144592,-0.012745395302772522,-0.0021265149116516113,-0.18458768725395203,-0.19847239553928375,-0.01167544536292553,0.0416642318955826,0.21847444883803804,0.10812731764387781
2.7833690643310547,-0.03469353914260864,-0.01285204291343689,0.0012137293815612793,-0.17738251388072968,-0.2059183269739151,-0.02425009198486805,0.040335767895547985,0.2165338164155767,0.10833820603039078
2.7934601306915283,-0.0447784960269928,-0.00876237079501152,0.007059633731842041,-0.14970797300338745,-0.2283724993467331,-0.04471483454108238,0.03928239550399254,0.21428811363070174,0.10835256222719558
2.8031880855560303,-0.046454012393951416,0.0004118308424949646,0.008903741836547852,-0.11732419580221176,-0.24307288229465485,-0.06868195533752441,0.03859889544997843,0.21196699665952295,0.10807569966520106
2.8132901191711426,-0.04551810026168823,0.011458471417427063,0.00972139835357666,-0.07760319858789444,-0.25135552883148193,-0.08275596052408218,0.03815534733349942,0.2095220792165659,0.10753732694313976
2.8233730792999268,-0.04713103175163269,0.01848222315311432,0.004971921443939209,-0.032493509352207184,-0.25336143374443054,-0.09920497983694077,0.03796154531364764,0.20706558845743026,0.10674853126290869
2.833125114440918,-0.050419971346855164,0.02745959535241127,-0.0005001425743103027,0.007900968194007874,-0.25202757120132446,-0.11150462180376053,0.038058377763589786,0.2047037552481548,0.10574075101854491
2.843250274658203,-0.051871538162231445,0.03999907150864601,-0.0046035051345825195,0.028905054554343224,-0.24277816712856293,-0.12284249812364578,0.038391060912760545,0.20236964135544103,0.10453379632468628
2.853177070617676,-0.057151809334754944,0.04357282072305679,-0.006431281566619873,0.030344676226377487,-0.22804099321365356,-0.13514555990695953,0.03877601270734001,0.19991107728362775,0.10320897316987968
2.863193988800049,-0.053183332085609436,0.035782914608716965,-0.004730641841888428,0.03880101069808006,-0.21376511454582214,-0.1378350853919983,0.039149843477201025,0.19740495755688636,0.10180977316200074
2.873228073120117,-0.043917521834373474,0.03146057575941086,-0.00404667854309082,0.049343351274728775,-0.21520006656646729,-0.1383524239063263,0.03952750172689275,0.19475737474739702,0.10038806973927426
2.8831801414489746,-0.034748151898384094,0.03217066079378128,-0.00199282169342041,0.05550643801689148,-0.22133280336856842,-0.14229843020439148,0.039764753292380266,0.19195947012055015,0.09893567632775117
2.8957042694091797,-0.017975851893424988,0.03478191792964935,0.0047602057456970215,0.0452299490571022,-0.22523215413093567,-0.13843685388565063,0.03965986139306729,0.18903191343462272,0.09748604001753486
2.903301239013672,-0.003890782594680786,0.03275693580508232,0.008035838603973389,0.004065466113388538,-0.21530841290950775,-0.1367420107126236,0.039649031753552874,0.18685435735741301,0.09608827077472906
2.913309097290039,0.005316570401191711,0.026925303041934967,0.00940030813217163,-0.03459176421165466,-0.19549719989299774,-0.12699563801288605,0.03923394423779773,0.18484043442059944,0.09481221913383236
2.9233479499816895,0.009950727224349976,0.020792998373508453,0.007320106029510498,-0.053079161792993546,-0.17851848900318146,-0.12291780859231949,0.038548506329423915,0.18300725062029605,0.09365806198125953
2.933493137359619,0.012693747878074646,0.019841674715280533,0.0037532448768615723,-0.04415975138545036,-0.1723562479019165,-0.11573036760091782,0.03782554316800991,0.1812823201337155,0.0925783058223562
2.9433412551879883,0.016037866473197937,0.028206929564476013,0.0009007453918457031,-0.020109010860323906,-0.1708827167749405,-0.10779094696044922,0.03729454611862974,0.17959986276112966,0.09153292073543395
2.9537582397460938,0.021342113614082336,0.03904175013303757,-0.0013835430145263672,-0.006488191895186901,-0.16391167044639587,-0.10313345491886139,0.036028299087210974,0.17699087656732373,0.09054945701409021
2.963715076446533,0.022512033581733704,0.04319442808628082,-0.0009211897850036621,-0.015004182234406471,-0.15000703930854797,-0.09733495861291885,0.03477858456516394,0.17477052643474267,0.08959959140682995
2.973919153213501,0.016377970576286316,0.03832452744245529,-0.0022330284118652344,-0.027671076357364655,-0.13216544687747955,-0.10039173066616058,0.03331053670396071,0.17328908864313913,0.08866497608370233
2.9837679862976074,0.008713990449905396,0.02920110523700714,-0.001845717430114746,-0.03407437726855278,-0.12246010452508926,-0.10733246058225632,0.03184624946114447,0.17246347794651723,0.08767744575474244
2.9938671588897705,0.0033828765153884888,0.022460298612713814,0.0032410025596618652,-0.031684376299381256,-0.11140988767147064,-0.10960637778043747,0.030613265614050315,0.1720288031488775,0.08663899042140298
3.003749132156372,0.0005976855754852295,0.021844087168574333,0.006561577320098877,-0.014016431756317616,-0.10534613579511642,-0.11151772737503052,0.02973726140188776,0.1717690277514679,0.08557073786170626
3.0137100219726562,-0.0012195408344268799,0.02202821522951126,0.008368253707885742,0.0156561266630888,-0.09907088428735733,-0.11486286669969559,0.029142932109030382,0.17156604607310272,0.08443010918563616
3.0234720706939697,-0.0031433701515197754,0.02482036128640175,0.008737027645111084,0.038795799016952515,-0.0893615335226059,-0.10983908176422119,0.028547374589509764,0.17147135056275192,0.08324045709518212
3.033493995666504,-0.008913516998291016,0.02276204526424408,0.00926440954208374,0.054825715720653534,-0.07644418627023697,-0.10596322268247604,0.027770493041968783,0.17154737576785783,0.08207438152553063
3.043649196624756,-0.013022899627685547,0.021814482286572456,0.0075955986976623535,0.06327752023935318,-0.06298776715993881,-0.10368995368480682,0.026990482826003977,0.17170344625221634,0.08091758891774554
3.053622245788574,-0.012895837426185608,0.015269657596945763,0.0069637298583984375,0.05915992707014084,-0.04499300569295883,-0.09567585587501526,0.02639637739048431,0.1717421049781407,0.07981363803809342
3.0634570121765137,-0.014106348156929016,0.01057722419500351,0.010933160781860352,0.04592854529619217,-0.02607443742454052,-0.08383145183324814,0.026006789178969585,0.17169899824842383,0.0788282992787033
3.0735690593719482,-0.0179489403963089,0.0071606989949941635,0.010089755058288574,0.03672249615192413,-0.007883718237280846,-0.07885804772377014,0.025702950115665618,0.17167947841213618,0.07795247597055131
3.0836052894592285,-0.01969626545906067,0.0009379293769598007,0.00977557897567749,0.03764528036117554,0.009589014574885368,-0.06715825200080872,0.025385232949351688,0.17177896451159144,0.07716930875962667
3.093766212463379,-0.01790165901184082,-0.0055552516132593155,0.00851517915725708,0.04848599433898926,0.02097194269299507,-0.04631113260984421,0.02516334251382643,0.1719544039366093,0.07653981210854377
3.103609085083008,-0.015686988830566406,-0.0045183561742305756,0.008210718631744385,0.06214268133044243,0.029248513281345367,-0.03237481042742729,0.02499473982141996,0.1721528968706869,0.07605397855812476
3.1136889457702637,-0.007095173001289368,-0.0039042122662067413,0.004089474678039551,0.07257068902254105,0.03222113475203514,-0.017190318554639816,0.025029061172995932,0.17224487398507893,0.07569257784382552
3.12371826171875,0.00019219517707824707,-0.005111632868647575,-0.002623617649078369,0.07707622647285461,0.034103456884622574,-0.006585611496120691,0.0251644561826904,0.1722209146655335,0.0754586009964521
3.133634090423584,0.0016072094440460205,-0.007258057594299316,-0.006058394908905029,0.07072775065898895,0.028183162212371826,-0.0038397321477532387,0.025505324324482777,0.17218005977950027,0.0753002548560803
3.1436941623687744,0.0006467103958129883,-0.01531454361975193,-0.003448963165283203,0.04707248881459236,0.0357193723320961,-0.0002018543891608715,0.025810753546041745,0.17213412225936942,0.07518127286964983
