timestamp,accel_x,accel_y,accel_z,rotation_x,rotation_y,rotation_z, pitch,roll,yaw
0.03995394706726074,-0.009114295244216919,-0.03503566235303879,0.0009513497352600098,0.010543089359998703,-0.00700043560937047,0.00855397991836071,0.06420573700283612,0.09734343974756904,-0.0031285453633719553
0.055844783782958984,-0.010291263461112976,-0.03930138796567917,0.0009704828262329102,-0.0004725769395008683,-0.009742693044245243,0.011856512166559696,0.06430422663336023,0.09723857121975998,-0.0030269964007280984
0.0734257698059082,-0.013093486428260803,-0.04194872826337814,0.0021100640296936035,-0.0058404444716870785,-0.009769058786332607,0.013030700385570526,0.06431193235314898,0.09712564587798503,-0.0028982675461550326
0.07606291770935059,-0.011735513806343079,-0.04140739142894745,0.005161404609680176,-0.00873220432549715,-0.012354100123047829,0.015833038836717606,0.06428864873170294,0.09698730227039123,-0.0027464666884891506
0.07848596572875977,-0.012277692556381226,-0.038016319274902344,0.005926370620727539,-0.008656570687890053,-0.01602793112397194,0.014335809275507927,0.06426169638284719,0.09682632257884863,-0.0025934343139740997
0.08436393737792969,-0.012822620570659637,-0.03722842037677765,0.0052558183670043945,-0.000371293630450964,-0.015319041907787323,0.012642624787986279,0.06427141472292539,0.0966529803329542,-0.0024517081512211
0.09281587600708008,-0.011334039270877838,-0.03552677482366562,0.008424997329711914,0.010729560628533363,-0.016419727355241776,0.013951567932963371,0.06437109647546095,0.09647608607181667,-0.002322784075852559
0.10287094116210938,-0.013478860259056091,-0.03228139877319336,0.010795950889587402,0.016750169917941093,-0.016281243413686752,0.012057261541485786,0.06456510929871487,0.09628623144470833,-0.002204301405408018
0.11276388168334961,-0.013179577887058258,-0.02931927889585495,0.012184619903564453,0.01462416723370552,-0.008491229265928268,0.013701231218874454,0.0647811052552864,0.09613990186274542,-0.0020877721406730738
0.1228647232055664,-0.014311067759990692,-0.02939411997795105,0.013888180255889893,0.010092648677527905,-5.118362605571747e-05,0.015874849632382393,0.06495076146705457,0.09608187568074032,-0.001950732041544414
0.13309097290039062,-0.016757547855377197,-0.03122422844171524,0.011924564838409424,0.010252438485622406,0.005314286798238754,0.012259874492883682,0.06510462070629937,0.0960879468111185,-0.0018235063169834678
0.1428978443145752,-0.01784033328294754,-0.030988946557044983,0.013452410697937012,0.011727963574230671,0.0034611704759299755,0.008516429923474789,0.06526394088668142,0.09611907560193009,-0.0017154005507859088
0.15286993980407715,-0.015594348311424255,-0.029366955161094666,0.014889419078826904,0.012814000248908997,0.0029762089252471924,0.005717713385820389,0.06543671916396729,0.09613257239389861,-0.0016606556977312378
0.16298294067382812,-0.013502135872840881,-0.028336361050605774,0.015334844589233398,0.008653310127556324,0.0036572683602571487,0.0020526712760329247,0.06558261921536904,0.0961624479912077,-0.0016374734621021942
0.17320585250854492,-0.013368502259254456,-0.029361113905906677,0.014348089694976807,0.004157628398388624,0.004876463674008846,-0.001023013610392809,0.06568724369324551,0.0961975612026823,-0.0016360978948369396
0.18321704864501953,-0.011968545615673065,-0.02876756340265274,0.011608004570007324,0.0023800847120583057,0.007517209276556969,-0.0019620973616838455,0.06574686757042514,0.0962479074489953,-0.0016512609089434681
0.19309186935424805,-0.012545786798000336,-0.029665246605873108,0.013277649879455566,0.0008287935052067041,0.00627777399495244,-0.004821799695491791,0.0657953277311251,0.09630705561590167,-0.0016822159212392307
0.20320892333984375,-0.013776876032352448,-0.02799300104379654,0.0137253999710083,-0.0008763786172494292,0.008815278299152851,-0.008909592404961586,0.06718071750912664,0.09577331714055658,-0.0017135346381964883
0.21327686309814453,-0.012462139129638672,-0.0262896865606308,0.012117147445678711,0.0023164849262684584,0.011373510584235191,-0.013564531691372395,0.06853620358749403,0.09519580940678277,-0.0017786405785130339
0.2232968807220459,-0.01151953637599945,-0.02547929435968399,0.01090770959854126,0.0022150021977722645,0.013387082144618034,-0.014501271769404411,0.06976151269875949,0.09466960261716535,-0.001872486948171839
0.23310494422912598,-0.01423877477645874,-0.024379879236221313,0.010410904884338379,-7.744692265987396e-05,0.01302782166749239,-0.016097569838166237,0.07080246146726754,0.09431097508260831,-0.0019904487963907087
0.2432079315185547,-0.014067701995372772,-0.027550965547561646,0.00835508108139038,-0.0019052245188504457,0.01717352122068405,-0.01969938911497593,0.07169246595314475,0.09408324623789996,-0.0021457645255212776
0.2532339096069336,-0.013760298490524292,-0.02726007252931595,0.008692264556884766,-0.0009414264932274818,0.010855703614652157,-0.015108898282051086,0.07256546648222856,0.0938871856470663,-0.0022920550094646963
0.26329684257507324,-0.012882962822914124,-0.029583968222141266,0.006498813629150391,0.0027510132640600204,0.006937750149518251,-0.016130752861499786,0.07340236218505045,0.09368552853572412,-0.0024317079564093887
0.27326297760009766,-0.011143632233142853,-0.028925634920597076,0.006104826927185059,0.00608502421528101,0.008158276788890362,-0.008371633477509022,0.07429200994344194,0.09344599522333373,-0.0025298617934052473
0.2832298278808594,-0.009256921708583832,-0.027602173388004303,0.004435360431671143,0.0061979093588888645,0.00432891771197319,-0.00576897943392396,0.07517543244902058,0.09313486654529592,-0.002580383257056574
0.2932248115539551,-0.008788175880908966,-0.029794879257678986,-0.0013343095779418945,0.003667373675853014,0.0015030375216156244,-0.0036536306142807007,0.0759910360456307,0.09282218866111226,-0.0026092268597803555
0.3033480644226074,-0.007896944880485535,-0.028611063957214355,-0.0008563995361328125,-0.006661613471806049,-0.002221881877630949,-0.003709876909852028,0.07670390750011813,0.09251360329431965,-0.0026255668003790865
0.31325674057006836,-0.0069830939173698425,-0.03042782098054886,0.0013225078582763672,-0.01740853488445282,-0.0028999224305152893,-0.008466281928122044,0.07725388548302184,0.09208887071647547,-0.0026454863071899036
0.3233299255371094,-0.009650059044361115,-0.029754742980003357,0.0018508434295654297,-0.019125573337078094,-0.005991763900965452,-0.010404638014733791,0.07783716648943544,0.09165935008854627,-0.0026896322373129895
0.3341948986053467,-0.006965339183807373,-0.029264502227306366,0.0027433037757873535,-0.011977382935583591,-0.010975336655974388,-0.0073111094534397125,0.07843604454216699,0.09123413341568827,-0.0027377755919625922
0.3434739112854004,-0.006692253053188324,-0.025373943150043488,0.00212937593460083,-0.00039186631329357624,-0.015363605692982674,-0.009404354728758335,0.07920091780988991,0.09078012295802641,-0.002796151264130711
0.35332775115966797,-0.006317354738712311,-0.02139921486377716,0.0028191804885864258,0.00033411127515137196,-0.014908470213413239,-0.008186490274965763,0.08000436924564022,0.0903775763462918,-0.002862497774964661
0.36334991455078125,-0.004733547568321228,-0.01990516483783722,0.004833340644836426,-0.004478753544390202,-0.007922999560832977,-0.00725198769941926,0.08072253821249378,0.0900785161627011,-0.002924620894540265
0.3733830451965332,-0.007711663842201233,-0.02147030085325241,0.0025556087493896484,-0.0068790605291724205,-0.0072889006696641445,-0.005287906154990196,0.08143329913230996,0.08982509413191062,-0.0029711990325246456
0.38429880142211914,-0.010761834681034088,-0.023886926472187042,0.0033416748046875,8.765235543251038e-05,-0.004959034733474255,-0.0024242622312158346,0.08213180328030494,0.08961343748537852,-0.002998435955202273
0.39339780807495117,-0.009815171360969543,-0.021272093057632446,0.005669653415679932,0.009882758371531963,-0.005673294886946678,-0.00017921742983162403,0.08296418317798637,0.08943452161568709,-0.0030020461510806297
0.40342092514038086,-0.007768116891384125,-0.016318954527378082,0.006196558475494385,0.022218937054276466,-0.004777894821017981,0.0032030504662543535,0.08387692211984799,0.08917761039295198,-0.002987465444442513
0.4134197235107422,-0.007148228585720062,-0.01264917105436325,0.0037080049514770508,0.023960111662745476,-0.007466089446097612,0.00303207547403872,0.08483404581564193,0.08897537147440447,-0.002970471469821755
0.42348194122314453,-0.005493566393852234,-0.014462336897850037,0.0032930970191955566,0.015386946499347687,-0.009390002116560936,0.0038104108534753323,0.08563303801736796,0.08875944212144356,-0.0029377590317808486
0.43396902084350586,-0.002837851643562317,-0.01568184792995453,0.0066991448402404785,0.0021907170303165913,-0.01073543168604374,0.002324899425730109,0.0861855805653691,0.08853234648823818,-0.002901533330286414
0.44361305236816406,-0.002674497663974762,-0.017735406756401062,0.007445573806762695,-0.006969674490392208,-0.014848283492028713,-0.0009699633810669184,0.08659019500147239,0.08832471816845634,-0.0028843691364502607
0.45345401763916016,-0.0030009299516677856,-0.019349530339241028,0.009972751140594482,-0.009608067572116852,-0.014306596480309963,-6.768433377146721e-05,0.08697642764250746,0.08801083554861577,-0.002869805326846452
0.4633598327636719,-0.0032326728105545044,-0.018019579350948334,0.010272204875946045,-0.004882405512034893,-0.016186567023396492,0.0027182484045624733,0.08745370852942239,0.08760222962685023,-0.002832841235659767
0.4735569953918457,-0.003214240074157715,-0.013655431568622589,0.009932518005371094,-0.008600710891187191,-0.016456345096230507,0.009591600857675076,0.0878827322747156,0.08721793032188022,-0.002750103496605556
0.48403072357177734,-0.0029106587171554565,-0.012233443558216095,0.010411560535430908,-0.021753713488578796,-0.009950730949640274,0.011105555109679699,0.08810010497476257,0.08692904869680376,-0.002615891579872363
0.4935297966003418,-0.004072912037372589,-0.01509363204240799,0.013619601726531982,-0.037930022925138474,0.0007056416943669319,0.014756482094526291,0.0880779733669538,0.08673160712802833,-0.0024418570287649925
0.5036609172821045,-0.006669670343399048,-0.019501395523548126,0.016175448894500732,-0.03694596514105797,0.007545039057731628,0.017602495849132538,0.08804936103607662,0.08667266247556707,-0.0022387657083948903
0.5135278701782227,-0.006804801523685455,-0.018697552382946014,0.013965368270874023,-0.024517526850104332,0.009557856246829033,0.021815616637468338,0.0881363869179976,0.08673262516190376,-0.0020200283300048924
0.5238609313964844,-0.0034788474440574646,-0.014523737132549286,0.01261991262435913,-0.004927512723952532,0.005959837231785059,0.023594394326210022,0.08846626410104651,0.08678175019604425,-0.001773037362650396
0.533714771270752,-0.0002724751830101013,-0.005339577794075012,0.008891105651855469,0.011143865063786507,0.002823432208970189,0.02166706509888172,0.08903143810239261,0.08679946116762334,-0.001552260862759827
0.5435600280761719,0.0011892616748809814,-0.0009073540568351746,0.00796818733215332,0.014447798952460289,0.003535162191838026,0.01933962292969227,0.08965144021931025,0.08677667742122634,-0.001349615276465633
0.5536589622497559,-0.00027649104595184326,-0.0027581006288528442,0.006739616394042969,0.00271364557556808,0.005589258391410112,0.01308678649365902,0.0900912905933602,0.08676566465114954,-0.001190562379610493
0.563605785369873,-0.0015546157956123352,-0.00461365282535553,0.006469011306762695,-0.009069610387086868,0.010701550170779228,0.005198663100600243,0.09037310968012785,0.08677960708572927,-0.0010877671673517211
0.5736689567565918,-0.003830328583717346,-0.006571836769580841,0.005972683429718018,-0.01599782332777977,0.008585402742028236,-0.000261615845374763,0.0906131751105927,0.08679905114440951,-0.0010420944703514055
0.5841360092163086,-0.005491919815540314,-0.007379494607448578,0.0073067545890808105,-0.014833107590675354,0.00554074440151453,-0.010345089249312878,0.09093600481740878,0.08673847031802331,-0.001056672081531177
0.5935840606689453,-0.0065705254673957825,-0.004771232604980469,0.0088576078414917,-0.011567272245883942,0.004342321772128344,-0.015093505382537842,0.09124144869456878,0.08665917767321876,-0.0011624014786924867
0.6036088466644287,-0.007029339671134949,-0.0014900341629981995,0.0075075626373291016,-0.003604903817176819,0.007731682620942593,-0.01685454696416855,0.0914718589358559,0.0866774661753509,-0.0013113094958968413
0.6136007308959961,-0.007173120975494385,-0.002065718173980713,0.003779470920562744,0.012374329380691051,0.0037286849692463875,-0.013633454218506813,0.09159860860476329,0.08677726053196656,-0.0014748312128163917
0.6237287521362305,-0.0053742676973342896,-0.0016217157244682312,0.0013017654418945312,0.024067670106887817,-0.0017173015512526035,-0.011886420659720898,0.09176866444736743,0.08684184253934765,-0.0016172112250570972
0.6339540481567383,-0.005285724997520447,-0.0008720457553863525,0.0024966001510620117,0.023224780336022377,0.0009594415314495564,-0.0075374785810709,0.0920464867581989,0.08684710724455297,-0.0017366426967027851
0.6437299251556396,-0.005344003438949585,-0.0036080479621887207,0.00396573543548584,0.017353974282741547,4.79305163025856e-05,0.00021988374646753073,0.09233293863805583,0.08684663697152854,-0.0017842301895987134
0.6538069248199463,-0.007401913404464722,-0.009003713726997375,0.003201603889465332,0.006555388681590557,0.002860228531062603,0.004061759915202856,0.09258410178361552,0.08676970520485291,-0.0017631639344392604
0.6637599468231201,-0.006887257099151611,-0.010883495211601257,0.003132641315460205,-0.002857321174815297,0.0006980076432228088,0.010850369930267334,0.09276502920051874,0.08666766508059133,-0.0016779467949698064
0.6737160682678223,-0.0066859424114227295,-0.011404141783714294,0.006114661693572998,-0.004697831813246012,-0.0005376990884542465,0.014468807727098465,0.09283979351759562,0.08651147356174105,-0.0015341707254449563
0.6850099563598633,-0.007846847176551819,-0.012895837426185608,0.006451845169067383,-0.0025661210529506207,-0.00569415558129549,0.01809305138885975,0.09284347833468017,0.08631278055153241,-0.0013486900251773054
0.6935839653015137,-0.007227711379528046,-0.010263323783874512,0.0065937042236328125,-0.005650594364851713,-0.005796154960989952,0.01846882328391075,0.09285151419161827,0.0860732615805378,-0.001136037683275465
0.7042398452758789,-0.003562837839126587,-0.006900578737258911,0.0052263736724853516,-0.01120167039334774,-0.00644316989928484,0.01958724483847618,0.09279604967449721,0.0858854419636108,-0.0009218814646604293
0.7140388488769531,-0.004275701940059662,-0.004425331950187683,0.005281329154968262,-0.01312899962067604,-0.004488409496843815,0.015233508311212063,0.09269211566063248,0.085711095731737,-0.0007214765068165478
0.7256350517272949,-0.00531759113073349,-0.00471748411655426,0.004871070384979248,-0.010679641738533974,-0.010884568095207214,0.011304812505841255,0.0926745519369865,0.08553070855950232,-0.0005622654063389822
0.7342867851257324,-0.004507496953010559,0.00020162761211395264,0.005357086658477783,-0.010708669200539589,-0.015458015725016594,0.0007786683272570372,0.09280294806696636,0.08523811262513704,-0.0004776192551425406
0.7440178394317627,-0.0034106001257896423,0.0044351741671562195,0.008206427097320557,-0.017176155000925064,-0.012868709862232208,-0.0056635718792676926,0.09293243775665326,0.08496403657377204,-0.00048342314357486296
0.754025936126709,-0.00490996241569519,0.00344645231962204,0.01122140884399414,-0.018135426566004753,-0.010006612166762352,-0.011272188276052475,0.09302750050179066,0.08475350310670136,-0.0005400304128089074
0.7641239166259766,-0.006863027811050415,0.0033356398344039917,0.008661985397338867,-0.009269829839468002,-0.011018792167305946,-0.013537260703742504,0.09319205932874422,0.08452404120808897,-0.0006494607289379906
0.7739200592041016,-0.0062321871519088745,0.0018796175718307495,0.007305741310119629,0.00018705474212765694,-0.012171141803264618,-0.014781756326556206,0.09338482614117412,0.08428959285164525,-0.0007824099506487324
0.78448486328125,-0.00235903263092041,0.005606718361377716,0.007546544075012207,-0.0001369353849440813,-0.011515427380800247,-0.015035022981464863,0.09354206353230889,0.08415501865955767,-0.0009342464382353589
0.7939419746398926,-0.002066098153591156,0.005417957901954651,0.009216547012329102,-0.008978364057838917,-0.004568038042634726,-0.014860053546726704,0.0935823501556196,0.08402924065514322,-0.001071994868772569
0.8040790557861328,-0.00432267040014267,-0.0020828694105148315,0.010495960712432861,-0.017984773963689804,0.0005790535360574722,-0.013776891864836216,0.09352757759518374,0.08393479640153385,-0.001201981928553831
0.8139219284057617,-0.005634412169456482,-0.00878337025642395,0.01047450304031372,-0.023270349949598312,0.0061466577462852,-0.012889793142676353,0.09329579452729717,0.08390169012070949,-0.0013135171188560025
0.8240337371826172,-0.005071491003036499,-0.007198430597782135,0.010803043842315674,-0.014029315672814846,0.007688628509640694,-0.008573395200073719,0.09300262915468503,0.08394718928940122,-0.0014036560570193928
0.8346447944641113,-0.003893531858921051,-0.006092429161071777,0.00919950008392334,-0.001754273078404367,0.005110422149300575,-0.00978673156350851,0.09285677684890317,0.08394298168438613,-0.0014753702431447295
0.8440179824829102,-0.002360239624977112,-0.005163721740245819,0.00721210241317749,0.002673997776582837,0.003827577456831932,-0.008654940873384476,0.09280870881607403,0.08385824097785308,-0.001559682768139813
0.8540258407592773,-0.001940704882144928,-0.0035654976963996887,0.00793534517288208,0.000729091465473175,0.003798282705247402,-0.012358332984149456,0.09280475874196337,0.08378909608200431,-0.0016534501887678153
0.8639659881591797,-0.003943704068660736,-0.0062474459409713745,0.006067991256713867,-0.0025556182954460382,0.0045111216604709625,-0.014360497705638409,0.09268577527530694,0.08380767701029311,-0.0017798130461769094
0.8740067481994629,-0.004158109426498413,-0.01013714075088501,0.0050833821296691895,0.0020125017035752535,0.0033387981820851564,-0.01292265672236681,0.09257979075900948,0.08383838969507595,-0.0019216402686020667
0.8842618465423584,-0.0037184953689575195,-0.01355009526014328,0.004311859607696533,0.012306317687034607,-0.0045704348012804985,-0.011487319134175777,0.09273808334855689,0.08376564883497899,-0.0020407310384848165
0.8940410614013672,-0.0034567788243293762,-0.01028546690940857,0.00349581241607666,0.018025722354650497,-0.005180032923817635,-0.006377245765179396,0.0931204450979386,0.08361251482676021,-0.0021276509567329568
0.9042608737945557,-0.0016844198107719421,-0.009026296436786652,0.0026497244834899902,0.0177649836987257,-0.006715833209455013,0.002724852878600359,0.09349623881356513,0.08345930980667479,-0.002145664120326427
0.9140138626098633,-0.00151805579662323,-0.010984785854816437,-0.00031632184982299805,0.018456339836120605,-0.003522968851029873,0.0076136174611747265,0.09382802991518038,0.0833403786094537,-0.002106696687567712
0.9240648746490479,-0.0014575347304344177,-0.009596653282642365,0.0017641782760620117,0.022283269092440605,-0.0019307546317577362,0.014269549399614334,0.0941494658536152,0.08328190951888818,-0.00200425988709712
0.9344918727874756,-0.0006264746189117432,-0.010389193892478943,0.00018006563186645508,0.03165759891271591,-0.003048749640583992,0.019471237435936928,0.09450290176674285,0.0832160332373588,-0.0018489001349573078
0.9440488815307617,-0.0005953013896942139,-0.007617861032485962,0.0011370182037353516,0.04212538152933121,-0.012430444359779358,0.021422002464532852,0.09501823898967171,0.0830502570365368,-0.0016676988991059577
0.9541597366333008,0.0008947849273681641,-0.0029661282896995544,0.0017491579055786133,0.04420584440231323,-0.01165732741355896,0.020432904362678528,0.09565982947632937,0.08284535055918303,-0.0014946892669931383
0.9640688896179199,0.0010383054614067078,-0.00022671371698379517,0.0029361844062805176,0.04060719907283783,-0.016683200374245644,0.01567324809730053,0.0963577912439691,0.08262933056228482,-0.0013366351758365685
0.9741039276123047,-0.00019478797912597656,-0.0024609267711639404,0.003421604633331299,0.030896246433258057,-0.01491752453148365,0.007605735212564468,0.09688788678114933,0.08241533514813745,-0.0012417293881161879
0.9844069480895996,0.0006453543901443481,-0.004419051110744476,0.00574260950088501,0.028505295515060425,-0.016693055629730225,0.0065136258490383625,0.09732746259048485,0.08224873584397843,-0.0011961048474882906
0.9943857192993164,-0.001039743423461914,-0.003021061420440674,0.0054531097412109375,0.03089362010359764,-0.020295511931180954,3.681797534227371e-05,0.0977968929235977,0.08205921446358147,-0.0011880395337186412
1.0039939880371094,-0.0005376935005187988,-0.0022013336420059204,0.006315350532531738,0.024357270449399948,-0.02115655690431595,-0.004430687986314297,0.09820659865671612,0.08184864109427786,-0.0012364194131812914
1.0142927169799805,-0.0017151609063148499,-0.0020742714405059814,0.009012460708618164,0.016158197075128555,-0.018741071224212646,-0.00676761195063591,0.09854894323798621,0.08166936698122457,-0.0013167541029176727
1.024061918258667,-0.0022251158952713013,-0.0022874027490615845,0.009519875049591064,0.018100474029779434,-0.022767148911952972,-0.0062617710791528225,0.09881010901491238,0.08149333881155527,-0.0014016494913861545
1.034451961517334,-0.0025849416851997375,-0.004665583372116089,0.009341716766357422,0.03386958688497543,-0.023730946704745293,-0.008271126076579094,0.09905764922197674,0.08131967119147196,-0.0015060442695311585
1.0440478324890137,-0.002661764621734619,-0.0035172179341316223,0.010839641094207764,0.0626218393445015,-0.02223939821124077,0.00413963058963418,0.09947564623312442,0.08115436181350073,-0.0015699657351290438
1.054046869277954,-0.0016930922865867615,0.001098640263080597,0.013253748416900635,0.11688534170389175,-0.024203479290008545,0.015835966914892197,0.10037283639012592,0.08095422427107754,-0.001556060976133236
1.0641627311706543,-0.0004626736044883728,0.005747519433498383,0.007256686687469482,0.20356133580207825,-0.02188626304268837,0.03732496127486229,0.10202418089684423,0.08078874446781877,-0.001440065235324982
1.074051856994629,0.001677677035331726,0.013966456055641174,0.006090998649597168,0.34395068883895874,-0.006294787395745516,0.07159531116485596,0.10473391171890092,0.08062264354185372,-0.0011400901705657216
1.0840330123901367,0.0032015740871429443,0.028703957796096802,0.002205193042755127,0.5305979251861572,-0.03698115050792694,0.13401463627815247,0.10905909419260218,0.08033875376127189,-0.00045927150541010307
1.094069004058838,0.007419116795063019,0.049993425607681274,-0.014046907424926758,0.6897942423820496,-0.07502201199531555,0.16304495930671692,0.11517394549797444,0.07964835399759153,0.0005671173835099143
1.104146957397461,0.01460469514131546,0.0792960524559021,-0.019520938396453857,0.7110633850097656,-0.087736114859581,0.1642431765794754,0.12211018719902891,0.07869788003813867,0.00165485067511413
1.1143429279327393,0.008175402879714966,0.0773327499628067,-0.007153213024139404,0.5461165308952332,-0.06391680240631104,0.10795406997203827,0.1282208147474918,0.07783799524290558,0.002549468960789412
1.1240568161010742,-0.009722977876663208,0.019469738006591797,0.014104366302490234,0.2693730592727661,-0.02760962024331093,0.03951472043991089,0.1317739055779374,0.07739545236773003,0.0029713635921538467
1.1353707313537598,-0.02890171855688095,-0.04273021221160889,0.03525310754776001,0.03371736779808998,-0.006259322632104158,-0.03438480570912361,0.13289244770502084,0.0772664576228085,0.0028576017182398404
1.1445050239562988,-0.027858242392539978,-0.07217206060886383,0.04925304651260376,-0.11981027573347092,-0.0606725849211216,-0.09313876926898956,0.13213042046159534,0.07708280618558262,0.0022469757709381206
1.1545429229736328,-0.0213962122797966,-0.06409592926502228,0.05451017618179321,-0.23863598704338074,-0.13712766766548157,-0.13972997665405273,0.13010308944000942,0.0762364987705657,0.0011962786388531007
1.1645350456237793,-0.005151495337486267,-0.04073505103588104,0.06457149982452393,-0.4210537075996399,-0.20514898002147675,-0.19043982028961182,0.12651800758779533,0.07472627973046322,-0.00021763242097411437
1.1744637489318848,0.003445863723754883,-0.05392904579639435,0.06712901592254639,-0.6929174065589905,-0.2648381292819977,-0.26132649183273315,0.12086442541836907,0.0726324742338437,-0.0020510428205427556
1.1849348545074463,0.001342475414276123,-0.06868083775043488,0.07367551326751709,-1.1325918436050415,-0.37021782994270325,-0.40124791860580444,0.11166573886223158,0.06976579504923797,-0.0047056413856114785
1.1945347785949707,0.0017487183213233948,-0.1103086844086647,0.08851993083953857,-1.8245702981948853,-0.5677756667137146,-0.5716915130615234,0.096781940981111,0.06554487809481004,-0.008557578368841273
1.2046747207641602,0.008669748902320862,-0.1892830729484558,0.12658530473709106,-2.8740952014923096,-0.7577328681945801,-0.8638795614242554,0.07312635879450118,0.05931812262506399,-0.014256559209811065
1.2144279479980469,0.023226160556077957,-0.2425909787416458,0.17576152086257935,-4.308175563812256,-0.8844074606895447,-1.1869969367980957,0.036805667837760556,0.05152313750467131,-0.02256712214406306
1.2244620323181152,0.019347820430994034,-0.29385995864868164,0.19717484712600708,-6.014605522155762,-1.0386210680007935,-1.5917178392410278,-0.015509857539747901,0.042101412257658975,-0.03402715606355129
1.2351508140563965,0.0018633976578712463,-0.3807498812675476,0.19170832633972168,-7.82838249206543,-1.0344951152801514,-2.057429313659668,-0.08516809157554484,0.030646721149680724,-0.049784832177692764
1.2445509433746338,0.0005700066685676575,-0.44622603058815,0.21582412719726562,-9.48569107055664,-1.1659929752349854,-2.3043580055236816,-0.17282369788667837,0.01712658890618383,-0.06997911650280549
1.2545149326324463,-0.017527539283037186,-0.43711456656455994,0.20225560665130615,-10.688528060913086,-1.4419922828674316,-2.4724624156951904,-0.2740115603713015,-0.001067119859486506,-0.09358072995274051
1.2646639347076416,-0.0005979388952255249,-0.29238995909690857,0.19101697206497192,-11.587052345275879,-1.6165691614151,-2.6535680294036865,-0.38528700936165233,-0.025736132591609683,-0.1223781527236295
1.2766308784484863,0.04117543622851372,-0.1251823604106903,0.20005565881729126,-12.553001403808594,-1.7148281335830688,-2.672574520111084,-0.5047411928810372,-0.05749812279208171,-0.15742860229452676
1.284916877746582,-0.014120705425739288,-0.0001468062400817871,0.135528564453125,-13.857523918151855,-1.7349731922149658,-2.6811301708221436,-0.6342637697590745,-0.09867526175413915,-0.20148883429648462
1.2945778369903564,-0.05704369395971298,0.002377152442932129,0.08953684568405151,-15.199511528015137,-1.6226016283035278,-2.4692463874816895,-0.7755687957452793,-0.15295635864730975,-0.2591751452724489
1.3045430183410645,-0.07626216113567352,-0.06997209787368774,0.09849756956100464,-15.820347785949707,-1.45622980594635,-2.2621123790740967,-0.924120339777773,-0.2285372195545989,-0.3389549164884222
1.314539909362793,-0.05251204967498779,-0.07206517457962036,0.055367887020111084,-15.876270294189453,-1.3171321153640747,-2.294832229614258,-1.0704341490016127,-0.34596411047759656,-0.461997636836465
1.324512004852295,-0.044051408767700195,0.008425295352935791,-0.04059305787086487,-15.37437915802002,-1.1483192443847656,-2.324205160140991,-1.202311487183534,-0.5506650101749219,-0.6734128501425286
1.334850788116455,-0.08534583449363708,0.16195088624954224,-0.1599014401435852,-14.44041919708252,-1.126274585723877,-2.390900135040283,-1.299068494898039,-0.9191039694045123,-1.0487483789093979
1.3446097373962402,-0.08482620120048523,0.2555784583091736,-0.3052874207496643,-13.477189064025879,-1.1774786710739136,-2.5888843536376953,-1.3284843334624303,-1.4677432214645818,-1.6030751636772447
1.3545527458190918,-0.04158875346183777,0.24167120456695557,-0.38747310638427734,-12.356074333190918,-1.3120652437210083,-2.6870415210723877,-1.2835504655004744,-1.944684951027966,-2.0836665857793872
1.364922046661377,0.0020081400871276855,0.14538341760635376,-0.4327333867549896,-11.420122146606445,-1.4660719633102417,-2.5989203453063965,-1.2012251323568586,-2.225168178968048,-2.3647826719347216
1.374619960784912,0.022729843854904175,0.04010510444641113,-0.44820067286491394,-10.421632766723633,-1.5482929944992065,-2.480724334716797,-1.1086350727941092,-2.3860995817332724,-2.5238955812028303
1.3846359252929688,0.04814273118972778,0.16173148155212402,-0.434572696685791,-9.322527885437012,-1.700702428817749,-2.3736727237701416,-1.0177014440977898,-2.4844226496024455,-2.6177672261443874
1.3946559429168701,0.09490388631820679,0.3416663408279419,-0.4843325912952423,-8.479223251342773,-1.7385491132736206,-2.416370391845703,-0.9313689458433094,-2.5500339715537446,-2.676003202571715
1.4046719074249268,0.12822884321212769,0.29122960567474365,-0.4620015025138855,-7.442874431610107,-1.8907281160354614,-2.3176589012145996,-0.8514358178766123,-2.596177558843326,-2.7123617440195
1.414628028869629,0.12039774656295776,0.1779634952545166,-0.3708471655845642,-6.4985270500183105,-1.9866591691970825,-2.2020554542541504,-0.7796322845642913,-2.6325824850757034,-2.7353616303987205
1.424787998199463,0.11271825432777405,0.1960064172744751,-0.23869949579238892,-5.089959621429443,-2.151581287384033,-2.0640294551849365,-0.7183386120700997,-2.661296317961235,-2.747279508230337
1.4348750114440918,0.13497593998908997,0.3727666139602661,-0.10570257902145386,-3.9012889862060547,-2.25700306892395,-1.9454686641693115,-0.6693272651839206,-2.6855479428016418,-2.7503246552467133
1.4446697235107422,0.14209327101707458,0.3652071952819824,-0.05750960111618042,-2.819514513015747,-2.08071231842041,-1.7483216524124146,-0.6310122177599257,-2.705571997008142,-2.747517951754098
1.4547178745269775,0.14614835381507874,0.26711970567703247,-0.02024322748184204,-2.11086368560791,-1.7900514602661133,-1.5919253826141357,-0.60197264793533,-2.7214637849149135,-2.741307818018697
1.4648289680480957,0.07475835084915161,0.14868533611297607,-0.0729132890701294,-1.837990641593933,-1.4677345752716064,-1.4195404052734375,-0.5780210800366489,-2.733757881705593,-2.7341389829317007
1.474820852279663,0.06179472804069519,0.05699056386947632,-0.03796803951263428,-1.7408419847488403,-1.1970738172531128,-1.2875679731369019,-0.5563166902214327,-2.7434400348693795,-2.7276409401772175
1.4850049018859863,0.05829012393951416,-0.05208587646484375,0.05185657739639282,-1.7462750673294067,-1.0935615301132202,-1.1389330625534058,-0.5355596774619972,-2.752096340554503,-2.7224090018272857
1.4948177337646484,0.051254868507385254,-0.14454323053359985,0.18514448404312134,-1.6821147203445435,-1.0831406116485596,-1.0349843502044678,-0.5155613805729444,-2.760853536192122,-2.7181641954822293
1.504781723022461,0.06332659721374512,-0.17819207906723022,0.31167399883270264,-1.505418300628662,-1.033861517906189,-0.8716189861297607,-0.4970875490568431,-2.7698140011571386,-2.7147551253751185
1.5147547721862793,0.06270721554756165,-0.16439104080200195,0.32576829195022583,-1.2340384721755981,-0.892048180103302,-0.6793294548988342,-0.4815036973007499,-2.7782996241700917,-2.7120983984535756
1.524857997894287,0.03196483850479126,-0.1403827965259552,0.2562272548675537,-0.9713639616966248,-0.662449300289154,-0.4489496946334839,-0.4691918372069187,-2.7854086420996866,-2.710563769966703
1.5350759029388428,0.0009656846523284912,-0.1085355281829834,0.15724045038223267,-0.7499313950538635,-0.45753875374794006,-0.26422378420829773,-0.4599047143802922,-2.7907022100504753,-2.7100366422865902
1.5448098182678223,-0.02160009741783142,-0.0836968719959259,0.09157496690750122,-0.6351486444473267,-0.3237264156341553,-0.10303853452205658,-0.4528362657963829,-2.794910131730237,-2.710815940399019
1.5550048351287842,-0.016469508409500122,-0.0870947539806366,0.09650152921676636,-0.5712810158729553,-0.25360777974128723,-0.016550254076719284,-0.4469846115034878,-2.7984778627122884,-2.712477557897999
1.5647430419921875,-0.023975253105163574,-0.09205377101898193,0.10478132963180542,-0.5293695330619812,-0.2163160741329193,0.027896571904420853,-0.4418301063488463,-2.8017338857021272,-2.7146069771067878
1.574713945388794,-0.024529308080673218,-0.08040368556976318,0.10396474599838257,-0.48037055134773254,-0.19529467821121216,0.005540133453905582,-0.4372014705494175,-2.8046682111959362,-2.7166404668556696
1.5849299430847168,-0.033118635416030884,-0.054920196533203125,0.06602513790130615,-0.47113311290740967,-0.1440109759569168,-0.004029668867588043,-0.4327244519821307,-2.8071031162291464,-2.7183638888616506
1.5947208404541016,-0.053287118673324585,-0.011929094791412354,0.019751429557800293,-0.4708859920501709,-0.08609920740127563,-0.005069367121905088,-0.4282503811900383,-2.808948134275427,-2.720006536937289
1.6047718524932861,-0.07452446222305298,0.020957767963409424,-0.01208120584487915,-0.41638892889022827,-0.036560412496328354,0.014123235829174519,-0.4240563311624006,-2.8102216006950953,-2.7216578383115624
1.614954948425293,-0.07837900519371033,0.08418074250221252,-0.03925365209579468,-0.3265463709831238,-0.0045454902574419975,0.024779874831438065,-0.42060387348857725,-2.8110485075965674,-2.7232092911474903
1.6247878074645996,-0.0876024067401886,0.13049578666687012,-0.06754004955291748,-0.22989626228809357,0.0399218425154686,0.034346479922533035,-0.41807629243104516,-2.811407857159652,-2.7244900609872422
1.6349749565124512,-0.09477025270462036,0.1370481252670288,-0.08443200588226318,-0.12499594688415527,0.09441837668418884,0.0561407245695591,-0.4165671801422456,-2.811156454045451,-2.7255884449558674
1.6449029445648193,-0.0933203399181366,0.1427978277206421,-0.10373765230178833,-0.06512385606765747,0.12336347252130508,0.07710214704275131,-0.41593624340452784,-2.8104580838723963,-2.7266101475150415
1.6551437377929688,-0.09055623412132263,0.14873844385147095,-0.1277005672454834,-0.06542985141277313,0.1333700269460678,0.0624166764318943,-0.41556398808973966,-2.8095417728108516,-2.7275588748304136
1.665158748626709,-0.08368515968322754,0.13101467490196228,-0.1174476146697998,-0.030788404867053032,0.11105075478553772,0.02698417194187641,-0.41522284789126845,-2.8085474423543446,-2.728223523407258
1.6767818927764893,-0.07778587937355042,0.08591088652610779,-0.0840301513671875,0.053976550698280334,0.041806429624557495,-0.010153873823583126,-0.4153882954780115,-2.807787715398349,-2.7282777592091527
1.6878547668457031,-0.05494305491447449,0.06253480911254883,-0.05976521968841553,0.1167602613568306,-0.01392683107405901,-0.0536065436899662,-0.4161382824606762,-2.807407455576828,-2.7276255837443983
1.6951217651367188,-0.04213091731071472,0.05881419777870178,-0.038617849349975586,0.10150806605815887,-0.036733075976371765,-0.06569596379995346,-0.41705337983317187,-2.8072552868490326,-2.7265730802472152
1.7050538063049316,-0.03326362371444702,0.04615110158920288,-0.016614258289337158,0.07182525843381882,-0.04474665969610214,-0.07377002388238907,-0.41763568401540213,-2.8072340343968767,-2.7255570923706287
1.7149958610534668,-0.027181357145309448,0.020257264375686646,0.007744252681732178,0.06679214537143707,-0.05802012234926224,-0.07878822088241577,-0.41803591918041727,-2.807320622747367,-2.7245369798577896
1.7252798080444336,-0.018604427576065063,0.004590481519699097,0.027739524841308594,0.09388428926467896,-0.0683574452996254,-0.07218348234891891,-0.418565950835432,-2.8075199293776114,-2.7234545660701337
1.7360930442810059,-0.006656259298324585,0.0035010874271392822,0.04409980773925781,0.10851596295833588,-0.05043650418519974,-0.05445055291056633,-0.4203434198433433,-2.806890199369223,-2.722088416186381
1.745163917541504,0.0002678036689758301,-0.004473745822906494,0.05493295192718506,0.10040463507175446,-0.003608367871493101,-0.029367409646511078,-0.42219338311767,-2.8059680009952435,-2.7209241087890095
1.7560639381408691,0.003826320171356201,-0.004988551139831543,0.05809056758880615,0.08089591562747955,0.04030502587556839,0.0022056964226067066,-0.42357795199211334,-2.8049135138114996,-2.72019258220746
1.7655248641967773,-0.00011542439460754395,-0.018748164176940918,0.052039384841918945,0.05159907788038254,0.06649713218212128,0.02171313762664795,-0.42459507025274035,-2.80392451555338,-2.7199051765825466
1.776838779449463,0.005133002996444702,-0.030987411737442017,0.057829976081848145,0.006508566439151764,0.09206933528184891,0.04322322458028793,-0.4252332994360983,-2.8029537209087163,-2.720031366849903
1.7860159873962402,0.011476486921310425,-0.03621494770050049,0.07552832365036011,0.015373315662145615,0.10052873194217682,0.049003828316926956,-0.42562850556201876,-2.8020071607009474,-2.7204200514386394
1.7953567504882812,0.012096405029296875,-0.04749944806098938,0.08169692754745483,0.039616335183382034,0.098079152405262,0.05149548128247261,-0.4260731359153322,-2.80110711758462,-2.7208195979551695
1.8060407638549805,0.011842548847198486,-0.03257328271865845,0.0726286768913269,0.07201388478279114,0.10599664598703384,0.03710535913705826,-0.4266731041027197,-2.800185994345524,-2.7210595955489763
1.8150310516357422,0.008199244737625122,-0.016774296760559082,0.057610154151916504,0.1125384122133255,0.1339116245508194,0.03885505348443985,-0.42752138923144245,-2.799083482395798,-2.721159435492207
1.8252508640289307,-0.0021005570888519287,-0.02265051007270813,0.03724139928817749,0.18963365256786346,0.1557030826807022,0.04407591372728348,-0.4287810855627445,-2.7978452469693424,-2.7211505881425837
1.8352439403533936,-0.004162341356277466,-0.00462678074836731,0.012231826782226562,0.2890552878379822,0.15876971185207367,0.038112297654151917,-0.4307751234690449,-2.7964673722276805,-2.720868631027579
1.8452210426330566,-0.005693167448043823,0.008516013622283936,-0.013571560382843018,0.36951085925102234,0.15964913368225098,0.031309518963098526,-0.4334581241441333,-2.794848295932799,-2.7201311484468893
1.8551979064941406,-0.0078078508377075195,-0.002019524574279785,-0.03218895196914673,0.4188554883003235,0.17777912318706512,0.03432741388678551,-0.4364608315796869,-2.793172298196967,-2.719183119278433
1.8652489185333252,-0.005046427249908447,0.0009458363056182861,-0.04518610239028931,0.47862058877944946,0.17676779627799988,0.029367489740252495,-0.43985894701121386,-2.7914272201710997,-2.7180961456734822
1.8752288818359375,-0.006650418043136597,-0.004604160785675049,-0.0596466064453125,0.456015944480896,0.15658076107501984,0.0134825324639678,-0.44365220400445915,-2.7895858723862057,-2.7166915020613938
1.8853259086608887,0.0014231204986572266,-0.017196089029312134,-0.056445956230163574,0.33125022053718567,0.1438949853181839,0.01698613353073597,-0.44693594259601815,-2.787835600877836,-2.7154849199473494
1.8952360153198242,0.006741911172866821,-0.023638755083084106,-0.03692340850830078,0.18970109522342682,0.09971606731414795,0.016354963183403015,-0.44897127533375863,-2.7865066280017508,-2.7148138385138063
1.9052767753601074,0.0043769776821136475,-0.05362066626548767,-0.016210556030273438,0.1740380823612213,-0.004145793151110411,0.007294943556189537,-0.45032490235181244,-2.7859567231371725,-2.7143385984341806
1.9152889251708984,0.01758354902267456,-0.05933070182800293,0.012232482433319092,0.16808192431926727,-0.06714792549610138,0.010280081070959568,-0.45175271638399495,-2.78616106199434,-2.713772586841049
1.9253418445587158,0.0328848659992218,-0.02334606647491455,0.01970773935317993,0.16784065961837769,-0.06521327793598175,0.029104528948664665,-0.45330867733415364,-2.7866443228589013,-2.7133322259020165
1.9353468418121338,0.02239474654197693,-0.02261143922805786,0.004408121109008789,0.269771009683609,-0.04752375930547714,0.05603547766804695,-0.45537814621118006,-2.7869124700254417,-2.712903649623758
1.9453940391540527,0.016223788261413574,-0.02002367377281189,-0.015378832817077637,0.4229847490787506,-0.05207563564181328,0.07661127299070358,-0.45890509848884387,-2.787129969964279,-2.7122549378532224
1.9553070068359375,0.01713821291923523,0.004872798919677734,-0.026589930057525635,0.5404030084609985,-0.03488919138908386,0.10722217708826065,-0.46378523911183683,-2.7871419418329433,-2.711321150209465
1.9653358459472656,0.02355477213859558,0.015081614255905151,-0.015297472476959229,0.6331721544265747,0.02388082444667816,0.14691579341888428,-0.4697134853634307,-2.786791728497516,-2.71038269717241
1.9753270149230957,0.02156814932823181,-0.0010371506214141846,-0.0039730072021484375,0.8531873226165771,0.04592034965753555,0.19987674057483673,-0.4772462343130998,-2.7859487634410978,-2.709331859891584
1.9854228496551514,0.018331319093704224,-0.011192560195922852,-0.00040656328201293945,1.15925133228302,0.07042151689529419,0.24264205992221832,-0.4874868322987924,-2.7846169691066547,-2.7077073309048076
1.995351791381836,0.03069964051246643,0.023679137229919434,-0.0017336606979370117,1.454237937927246,0.12738865613937378,0.29912158846855164,-0.5007396445803223,-2.7825275400098715,-2.705336177064985
2.00545072555542,0.0216982364654541,0.04021337628364563,-0.011859416961669922,1.6891541481018066,0.2042893022298813,0.363515704870224,-0.5166981835142376,-2.7794687561342633,-2.702506578449311
2.0153560638427734,0.005805850028991699,0.018163561820983887,-0.016929566860198975,1.8624318838119507,0.26563841104507446,0.42753222584724426,-0.534763944790376,-2.775578836198214,-2.6994594796392315
2.0254669189453125,0.003470301628112793,0.006772935390472412,0.0009541511535644531,2.142495632171631,0.32410281896591187,0.5029807686805725,-0.5550605439274484,-2.770831029791908,-2.696133131490683
2.035433769226074,0.007699489593505859,0.007388889789581299,0.03357863426208496,2.5660877227783203,0.3094857931137085,0.5884469151496887,-0.578950709671801,-2.7654693411296156,-2.6920123336143837
2.045435905456543,0.01825612783432007,0.01994079351425171,0.053572237491607666,3.0936617851257324,0.3122234344482422,0.6792752146720886,-0.6076325119482834,-2.7592501647264736,-2.686457988088363
2.0554559230804443,0.029508620500564575,0.04519522190093994,0.058709919452667236,3.7103917598724365,0.36219924688339233,0.7904009222984314,-0.6418710186108797,-2.751557323399831,-2.679055246769188
2.065532922744751,0.01987379789352417,0.05705130100250244,0.037133097648620605,4.42244291305542,0.38853171467781067,0.9124839305877686,-0.6827797393794798,-2.7416830019799927,-2.6691623578960755
2.075532913208008,0.010709941387176514,0.06353086233139038,0.022500455379486084,5.161279678344727,0.43153616786003113,1.0269804000854492,-0.730664947079774,-2.729019913964753,-2.6559802483379196
2.0854718685150146,0.012257218360900879,0.0787842869758606,0.04748755693435669,5.984607696533203,0.45863327383995056,1.1515369415283203,-0.786085356454629,-2.712343509035339,-2.6382804684578507
2.0954599380493164,0.01572185754776001,0.0913129448890686,0.09210139513015747,6.839602947235107,0.4759563207626343,1.2726314067840576,-0.8493481320140087,-2.6901301633962253,-2.6143264912027138
2.105646848678589,0.015268564224243164,0.11243557929992676,0.1372392773628235,7.722268104553223,0.4904223382472992,1.3764439821243286,-0.9204502020664289,-2.659703660179023,-2.5812434620135445
2.1156277656555176,0.008987128734588623,0.13787907361984253,0.18678018450737,8.540407180786133,0.5075307488441467,1.4702637195587158,-0.9987673263480308,-2.6164185052990603,-2.5345108007915407
2.125566005706787,-0.004811286926269531,0.15125030279159546,0.24432110786437988,9.311089515686035,0.5885523557662964,1.5594027042388916,-1.082813376710342,-2.5519136733982073,-2.4662701414050474
2.1356887817382812,-0.020079046487808228,0.17350083589553833,0.29904791712760925,9.754798889160156,0.7091887593269348,1.6011027097702026,-1.1691845378477788,-2.4524939831182984,-2.363300846702196
2.145899772644043,-0.04013301432132721,0.19306957721710205,0.33786842226982117,10.300768852233887,0.9305970072746277,1.622285008430481,-1.2527371821515092,-2.2884365694236455,-2.197139354636627
2.155942916870117,-0.0696481317281723,0.19385981559753418,0.3943440914154053,10.728747367858887,1.1154433488845825,1.6440491676330566,-1.3246212701826319,-2.0022083051362425,-1.910160564569566
2.1656227111816406,-0.09089741110801697,0.19452005624771118,0.409503698348999,11.126083374023438,1.2322698831558228,1.5432546138763428,-1.3629813209265247,-1.5331272588172251,-1.4414306778981538
2.175647735595703,-0.09010249376296997,0.26547712087631226,0.44255387783050537,11.296701431274414,1.4897185564041138,1.2714532613754272,-1.3427112764074074,-1.0097769894013675,-0.919827754848506
2.185555934906006,-0.14701741933822632,0.22890090942382812,0.46947938203811646,11.640107154846191,1.8003331422805786,1.1755542755126953,-1.2727556049882962,-0.645994692885287,-0.5610270298308713
2.195575714111328,-0.1910451501607895,0.11940944194793701,0.470489501953125,12.048218727111816,1.8604966402053833,1.0645313262939453,-1.1763472742816532,-0.43168634722231325,-0.3529993552695544
2.2056758403778076,-0.1768188178539276,0.22328275442123413,0.4690820574760437,12.383448600769043,1.7441911697387695,0.9508037567138672,-1.0654341345586082,-0.3027352654958813,-0.23029955886220677
2.2156479358673096,-0.1549527496099472,0.4063805937767029,0.5447845458984375,12.439337730407715,1.7414052486419678,0.9191403388977051,-0.9474718165221586,-0.22033398366159165,-0.15344572472867554
2.2256579399108887,-0.13000443577766418,0.44604021310806274,0.5889741778373718,12.0388765335083,1.6745610237121582,0.9917705655097961,-0.8286725874171244,-0.16295967913766407,-0.10152068220316127
2.2356319427490234,-0.08591926097869873,0.3790286183357239,0.5982352495193481,11.12624454498291,1.7483137845993042,1.000520944595337,-0.7149888250658105,-0.1202461832398052,-0.06473659534386848
2.245656967163086,-0.09950961917638779,0.2698826193809509,0.6062281131744385,9.848616600036621,1.961944818496704,1.0012751817703247,-0.6113510369561961,-0.08547607109673912,-0.03840597390670004
2.2562947273254395,-0.13941189646720886,0.10728085041046143,0.5791432857513428,8.266767501831055,2.2239010334014893,0.9740312695503235,-0.521454968574647,-0.05413043138153967,-0.01906908532682057
2.265842914581299,-0.16942918300628662,-0.029328078031539917,0.5455833077430725,6.564815998077393,2.4985692501068115,0.8495792746543884,-0.44768230881535276,-0.024179001942159745,-0.00546372657747166
2.2758188247680664,-0.19639314711093903,-0.1282482147216797,0.5277660489082336,4.924435138702393,2.6974594593048096,0.7397071123123169,-0.3903275696168486,0.005755364182518089,0.003871296713145719
2.2858269214630127,-0.20970848202705383,-0.24858763813972473,0.4627342224121094,3.4721319675445557,2.7685964107513428,0.5256858468055725,-0.3483809412921912,0.03525858900318392,0.009882275274050535
2.2958128452301025,-0.16836676001548767,-0.35290762782096863,0.3969188928604126,2.456024408340454,2.7813196182250977,0.2757262885570526,-0.31888666476380295,0.06403130323286439,0.012532643351834552
2.306014060974121,-0.11164125800132751,-0.4207194447517395,0.3313387632369995,2.016104221343994,2.5319244861602783,0.13093143701553345,-0.29677625862129675,0.0908448272647868,0.012782410194682582
2.3177928924560547,-0.05255960673093796,-0.36853015422821045,0.2403486967086792,2.014514923095703,2.1637816429138184,0.11667874455451965,-0.2767904434605676,0.1141174847695411,0.011878223724791808
2.32576584815979,0.03550095856189728,-0.16935265064239502,0.19168305397033691,2.2640116214752197,1.8063740730285645,0.16164106130599976,-0.2554659482575742,0.13358610030807827,0.010525371275552312
2.335768938064575,0.12197566032409668,0.07791866362094879,0.14733970165252686,2.5466980934143066,1.5190978050231934,0.29665321111679077,-0.23129772292444145,0.14983229834094342,0.009295919336851668
2.345794916152954,0.15579500794410706,0.21991126239299774,0.10428428649902344,2.7092580795288086,1.257748007774353,0.4460366666316986,-0.2046092302613098,0.16367164833077263,0.008867772300461662
2.3558387756347656,0.1625611037015915,0.20279808342456818,0.06707251071929932,2.6680636405944824,1.0394843816757202,0.49986767768859863,-0.17710903513292464,0.17516569783291613,0.00902817964322744
2.3682548999786377,0.14662982523441315,0.10439920425415039,0.05735921859741211,2.4184305667877197,0.8926768898963928,0.4939426779747009,-0.15105755012910313,0.18483696176008954,0.009364738276760704
2.375839948654175,0.11692583560943604,-0.006587043404579163,0.04393082857131958,2.0106866359710693,0.8047617077827454,0.44913581013679504,-0.12833808458826715,0.1933362144388161,0.009870009291300845
2.385934829711914,0.09341423213481903,-0.09739633649587631,0.022179126739501953,1.5996651649475098,0.766204833984375,0.3937439024448395,-0.10979341095129387,0.20133782974147874,0.010458573863728698
2.3959338665008545,0.07197950780391693,-0.14614611864089966,0.0068356990814208984,1.2424473762512207,0.676705539226532,0.3272958993911743,-0.09518822392678353,0.20860472875482217,0.011118483889749951
2.4059388637542725,0.052146151661872864,-0.16200357675552368,-0.004309475421905518,1.009154200553894,0.601233720779419,0.29166489839553833,-0.08359454770226603,0.21506941821849243,0.011751348151630212
2.417452812194824,0.05719408392906189,-0.15438365936279297,-0.009766936302185059,0.9099146723747253,0.49176737666130066,0.31105002760887146,-0.07365506289711989,0.22063659059568835,0.012630942431075286
2.425994873046875,0.06848442554473877,-0.1124432310461998,-0.031088292598724365,0.9073103070259094,0.3703475594520569,0.34786707162857056,-0.06410160986507042,0.2250208130464228,0.013842008747385344
2.4358348846435547,0.07042430341243744,-0.043133366852998734,-0.041100382804870605,0.9527091979980469,0.25838932394981384,0.40686407685279846,-0.05419209945244036,0.22825611607578838,0.01544051572271202
2.4459729194641113,0.06856642663478851,-0.005526497960090637,-0.05308640003204346,0.9817048907279968,0.16572681069374084,0.4558711349964142,-0.04373328906051288,0.23048586335463503,0.017470454417609426
2.45635986328125,0.062136948108673096,0.003219902515411377,-0.059125423431396484,0.923041045665741,0.10366851091384888,0.43126726150512695,-0.03336170362311211,0.2319034178451056,0.01963406902425952
2.4676690101623535,0.04198768734931946,-0.004179390147328377,-0.0463029146194458,0.7897655367851257,0.10019087046384811,0.4027940630912781,-0.024033495382937066,0.23294601850571361,0.02169494214638586
2.4759838581085205,0.016286030411720276,-0.04746305197477341,-0.028351962566375732,0.6278085708618164,0.11079797148704529,0.4079246520996094,-0.01616808753649843,0.23404394363543252,0.023991257143820024
2.486017942428589,-0.0026332587003707886,-0.08378876745700836,-0.025272846221923828,0.5007672905921936,0.1544395089149475,0.39981651306152344,-0.009799159595330124,0.23538758327451365,0.026633522797702522
2.4959659576416016,-0.01701115071773529,-0.06502903252840042,-0.019502460956573486,0.5201966762542725,0.17163872718811035,0.4401378333568573,-0.003932955899757678,0.23710859141687976,0.029506880570086262
2.5074009895324707,-0.01908336579799652,-0.031089577823877335,-0.02565920352935791,0.6510460376739502,0.11575943976640701,0.4812108874320984,0.0028306072263978048,0.2385804941602681,0.03264124233326261
2.5171079635620117,-0.0076764971017837524,0.025545503944158554,-0.04040485620498657,0.8082199096679688,0.08509580045938492,0.5208384990692139,0.011095556124701887,0.23952807257962158,0.03576785297695308
2.5258848667144775,0.000467449426651001,0.08485590666532516,-0.038424551486968994,0.932179868221283,0.05508091300725937,0.5781835317611694,0.020923003043902433,0.24018364217695537,0.03905240872504948
2.536134719848633,-0.0019383728504180908,0.10079735517501831,-0.051822125911712646,0.9724287390708923,0.042359791696071625,0.5553842186927795,0.03161917486230494,0.24057736177655084,0.0423238371892634
2.546024799346924,-0.003386944532394409,0.10128305852413177,-0.04795563220977783,0.9145666360855103,0.030240099877119064,0.5234110355377197,0.04213709318583607,0.24082878689593382,0.04528348455493871
2.556159019470215,-0.0066721439361572266,0.06567616015672684,-0.036918044090270996,0.7615922689437866,0.04067622497677803,0.43435999751091003,0.051508158512590094,0.24106724473020388,0.04798775264157239
2.567509889602661,-0.004398629069328308,0.013552114367485046,-0.020094454288482666,0.5795396566390991,0.024745730683207512,0.3475225567817688,0.058950531665021774,0.24127865714948005,0.05015679126823575
2.5760140419006348,-0.010795027017593384,-0.02517043799161911,0.0035433173179626465,0.40744778513908386,0.0008169622160494328,0.2783171236515045,0.06448902277978888,0.24128721385363533,0.05202453683978926
2.586082935333252,-0.006531879305839539,-0.047728970646858215,0.02134913206100464,0.2691149413585663,-0.034988973289728165,0.2556099593639374,0.06841314448341802,0.24099884683541592,0.0537924699083275
2.5959699153900146,0.0036237388849258423,-0.03629334270954132,0.021417081356048584,0.15023863315582275,-0.055041778832674026,0.25893837213516235,0.07102027481136677,0.2404204852399831,0.05579777853076224
2.6059789657592773,0.009285315871238708,-0.006135135889053345,0.012669146060943604,0.08061746507883072,-0.09562116116285324,0.2896009385585785,0.07277112799045976,0.23947425997182895,0.05817220776616982
2.617543935775757,0.011707857251167297,0.015450716018676758,0.001830458641052246,0.07345569133758545,-0.13874217867851257,0.3333601951599121,0.07421929918269557,0.23808673299287944,0.061050284749099584
2.626370906829834,0.014590099453926086,0.022009767591953278,-0.005160689353942871,0.07848307490348816,-0.19087594747543335,0.3428485691547394,0.07577785061248689,0.23618045185900008,0.06418475616257573
2.636077880859375,0.018127456307411194,0.025228671729564667,-0.006980240345001221,0.08261176943778992,-0.228204146027565,0.3771530091762543,0.07739932803450433,0.23383682064647116,0.06749210202662351
2.646246910095215,0.006718114018440247,0.02834254503250122,-0.007460176944732666,0.051405902951955795,-0.2353404015302658,0.4000779092311859,0.07897689231244684,0.23121930401741603,0.07114962371084763
2.6561717987060547,-0.003132179379463196,0.02361084520816803,-0.005504250526428223,0.014000738970935345,-0.21560025215148926,0.4159546196460724,0.08019999265484783,0.2286410782572498,0.07505879024167743
2.6680679321289062,-0.017720088362693787,0.005736887454986572,-0.0012084245681762695,0.007166450843214989,-0.22996512055397034,0.4536921977996826,0.0812962639537955,0.2261165829417141,0.0793110875442933
2.6762499809265137,-0.024132922291755676,-0.006181173026561737,-0.0014234185218811035,4.569091834127903e-05,-0.25062644481658936,0.43557071685791016,0.0823363968402043,0.22334488181903495,0.083674311892516
2.686271905899048,-0.020168259739875793,0.0029792264103889465,0.011161863803863525,-0.007213153876364231,-0.26079562306404114,0.4318269193172455,0.08326022238435211,0.2204454056286751,0.0879172884079896
2.6961708068847656,-0.019888609647750854,-0.0044083669781684875,0.02262824773788452,-0.02270369604229927,-0.2541779577732086,0.43291324377059937,0.0840541030910321,0.21750592092445034,0.0922061830256616
2.7062478065490723,-0.02836887538433075,-0.006416626274585724,0.02315545082092285,-0.03779752925038338,-0.24053333699703217,0.4364623725414276,0.08470318893151987,0.2146452164908791,0.096531720750678
2.7175068855285645,-0.03631995618343353,0.001955486834049225,0.020881175994873047,-0.06275933980941772,-0.2250736802816391,0.42390263080596924,0.08514231720658652,0.2119438603968176,0.10086890609470064
2.7261557579040527,-0.03742402791976929,0.004948407411575317,0.007742702960968018,-0.07484292984008789,-0.19953975081443787,0.40614840388298035,0.08531298423346927,0.20946250757986784,0.10509821738239977
2.73622989654541,-0.036169588565826416,0.0009500831365585327,0.000615239143371582,-0.0798478052020073,-0.19412925839424133,0.37758681178092957,0.08538902565230116,0.20714393444857698,0.10912604804088925
2.74631404876709,-0.04251985251903534,-0.006406538188457489,0.003951847553253174,-0.07954894006252289,-0.16701331734657288,0.3509347438812256,0.08534118713277897,0.20501794522076017,0.1128592124336918
2.7562780380249023,-0.04378761351108551,-0.0052995383739471436,0.012386798858642578,-0.07426656037569046,-0.14071513712406158,0.32540595531463623,0.08527302377181017,0.20317266578171303,0.11635391249740634
2.7676949501037598,-0.04792541265487671,-0.008238725364208221,0.011958718299865723,-0.057813048362731934,-0.12376473098993301,0.31005966663360596,0.08526348737490565,0.20158061007184527,0.11961368474890428
2.7765438556671143,-0.05227537453174591,-0.009091772139072418,0.00950002670288086,-0.04505011811852455,-0.10575031489133835,0.2793925702571869,0.08534150744718354,0.20017661477925944,0.12263001061257597
2.7865378856658936,-0.04869355261325836,-0.0028393417596817017,0.0035796761512756348,-0.025186296552419662,-0.08315978944301605,0.2691137194633484,0.08553691045878621,0.19901222751457576,0.1253850165727834
2.7964649200439453,-0.047037675976753235,-0.004598923027515411,0.004447579383850098,-0.015170145779848099,-0.08459310233592987,0.2540021538734436,0.08586900230480436,0.19794757757806453,0.1280202356259198
2.8085479736328125,-0.041106924414634705,-0.012320823967456818,0.00043129920959472656,-0.018946442753076553,-0.06426705420017242,0.23965926468372345,0.08617435428494044,0.1969738921217037,0.13045517048475008
2.8178000450134277,-0.032750532031059265,-0.02024202048778534,0.004555106163024902,-0.03714089095592499,-0.05739263445138931,0.25002214312553406,0.08638687781170558,0.19615542640965894,0.13292030507957592
2.826420783996582,-0.0259694904088974,-0.030478239059448242,0.0006133913993835449,-0.06530743837356567,-0.0484035387635231,0.2519938349723816,0.0863739972386894,0.19539942954290004,0.13549157401094036
2.836500883102417,-0.011818557977676392,-0.035869427025318146,-0.004763245582580566,-0.07331209629774094,-0.04006810858845711,0.264512300491333,0.08615472921916614,0.19473381998674621,0.1381730698953128
2.846522808074951,0.007631748914718628,-0.037750065326690674,-0.01393115520477295,-0.04686608910560608,-0.05332110822200775,0.2802848219871521,0.0860896495637057,0.19403503946420442,0.14097780389223694
2.8564367294311523,0.026217162609100342,-0.03229723125696182,-0.027732372283935547,-0.022966351360082626,-0.06858741492033005,0.2866092920303345,0.08630953053844029,0.1931801522078208,0.1438377668858836
2.8682379722595215,0.043638452887535095,-0.021967895328998566,-0.03472304344177246,-0.008483830839395523,-0.07640507072210312,0.2854447364807129,0.08672218964059353,0.19220836597478994,0.14667813782357714
2.876495838165283,0.05644574761390686,-0.02021077275276184,-0.03795355558395386,-0.014559833332896233,-0.0774756669998169,0.2839009165763855,0.08716874463527832,0.19118087556866906,0.14952214493286503
2.886577844619751,0.06020224094390869,-0.02835305780172348,-0.037525832653045654,-0.041184306144714355,-0.0748089998960495,0.2802988886833191,0.08743506531845499,0.19016850445840405,0.15233711972472755
2.896450996398926,0.05271831154823303,-0.03021237999200821,-0.028517425060272217,-0.06866226345300674,-0.08011560887098312,0.2807505428791046,0.08743733052767813,0.1891620196345032,0.1552095639861503
2.9065449237823486,0.04432322084903717,-0.031892940402030945,-0.01964747905731201,-0.10825677961111069,-0.08564788848161697,0.2776700556278229,0.08709824073679052,0.18806759588038524,0.1581335372584785
2.9182288646698,0.04110407829284668,-0.032375551760196686,-0.008874237537384033,-0.14117132127285004,-0.07587701827287674,0.28482678532600403,0.0863840711769563,0.18699525542033577,0.1611419819553645
2.9265737533569336,0.03827966749668121,-0.03407839685678482,0.002423107624053955,-0.14795729517936707,-0.07778610289096832,0.2969267666339874,0.08548663481807879,0.18596918348900596,0.16430047911807255
2.9364888668060303,0.03493721783161163,-0.03191356360912323,0.004062294960021973,-0.1397276073694229,-0.08209004253149033,0.2995590269565582,0.08462712209619902,0.1849122807026527,0.16750704233850508
2.9465370178222656,0.03655610978603363,-0.025594502687454224,0.008714914321899414,-0.12023209035396576,-0.07870963960886002,0.307231605052948,0.08390933030684461,0.18382465462392664,0.17073948404395672
2.9575657844543457,0.032539889216423035,-0.016634277999401093,0.012566745281219482,-0.10990141332149506,-0.07489066570997238,0.3154711425304413,0.08336141961378131,0.1827759559064181,0.17402523279390741
2.967298984527588,0.024712443351745605,-0.005799472332000732,0.01355677843093872,-0.10101310163736343,-0.06218335032463074,0.31628912687301636,0.08291844560933541,0.1818035211042491,0.17733710976343672
2.976379871368408,0.015677571296691895,-0.00012740492820739746,0.012742698192596436,-0.09574376791715622,-0.04560410976409912,0.31581616401672363,0.08253144606254477,0.1809898832411117,0.18063964263559748
2.98659086227417,0.0014266669750213623,0.002496860921382904,0.018712997436523438,-0.08307066559791565,-0.014033179730176926,0.3219401240348816,0.08222498303154632,0.1804241046288326,0.18394889440927772
2.996593952178955,-0.014701679348945618,0.007952705025672913,0.02020406723022461,-0.06185033544898033,0.0011335238814353943,0.3292046785354614,0.08209566797557975,0.18007959323676348,0.18731458115782346
3.0068039894104004,-0.020978078246116638,0.014359816908836365,0.015234172344207764,-0.028025656938552856,0.014194109477102757,0.3261784613132477,0.08224719699842419,0.1799002761313514,0.19062030971657792
3.017737865447998,-0.01948477327823639,0.026811927556991577,0.012294173240661621,-0.015604941174387932,0.01382366381585598,0.3187144100666046,0.08263090642603918,0.17978364375540407,0.19386148980804707
3.0266618728637695,-0.018758371472358704,0.02866237610578537,0.011446058750152588,-0.030368972569704056,0.014356029219925404,0.297467440366745,0.08298721626415288,0.1796706658626165,0.19694557239293492
3.0366809368133545,-0.016504451632499695,0.02075444906949997,0.01341313123703003,-0.05670177936553955,0.009921600110828876,0.2639385163784027,0.08307519002699555,0.17955197039445742,0.19980164588450358
3.046665906906128,-0.018247395753860474,0.010894931852817535,0.019381463527679443,-0.0803188681602478,0.0015310889575630426,0.22244028747081757,0.08282787132209876,0.17939613830257323,0.20233865178606134
3.0566649436950684,-0.025470227003097534,0.0037253573536872864,0.024184763431549072,-0.08949212729930878,-0.006102862302213907,0.18417252600193024,0.08233997566644038,0.17920761411059585,0.2045013581994217
3.067828893661499,-0.030129969120025635,0.005055747926235199,0.024544060230255127,-0.08308345079421997,-0.024826349690556526,0.15855711698532104,0.08179168708533667,0.17889420717288335,0.20634349418138462
3.0768089294433594,-0.03709772229194641,0.014298133552074432,0.019332289695739746,-0.06887521594762802,-0.031736988574266434,0.13516125082969666,0.08129732534933415,0.17847679418274454,0.20791651011510676
3.086777925491333,-0.03898952901363373,0.02268313616514206,0.01715034246444702,-0.045151714235544205,-0.03850683197379112,0.12543809413909912,0.08096848078958069,0.178020567018046,0.20929740093009086
3.0967440605163574,-0.04161594808101654,0.029419220983982086,0.012156009674072266,-0.03205855190753937,-0.043276283890008926,0.11963293701410294,0.08082236998218974,0.17750710871530603,0.21056753262276506
3.10674786567688,-0.04567882418632507,0.03379421681165695,0.006116032600402832,-0.04217866063117981,-0.048564612865448,0.11234381049871445,0.0806803057375128,0.17694928561325302,0.21178121666955876
3.117811918258667,-0.047699421644210815,0.02308393269777298,0.002592325210571289,-0.059172291308641434,-0.0461837463080883,0.10793201625347137,0.07967136338062697,0.17591512652299782,0.21298738002839143
3.1268088817596436,-0.05048362910747528,0.011394038796424866,0.005148649215698242,-0.06571759283542633,-0.0629512295126915,0.10671042650938034,0.07899618485371394,0.17485576409256065,0.2141848024729942
3.136809825897217,-0.05364270508289337,0.0021880045533180237,0.003856062889099121,-0.06403980404138565,-0.08120933175086975,0.09598294645547867,0.07859322824888383,0.17342086861801861,0.2153647875629688
3.146885871887207,-0.05306901037693024,0.005780018866062164,0.0025502443313598633,-0.06039784476161003,-0.10678362101316452,0.08048755675554276,0.07815558250332483,0.1716189347942591,0.21641543967344154
3.1568360328674316,-0.050343647599220276,0.016221821308135986,-0.00025069713592529297,-0.07850760221481323,-0.11865413188934326,0.061775125563144684,0.07724209405485176,0.16937640323020528,0.2173137751970581
3.1678099632263184,-0.04891428351402283,0.018545180559158325,-0.006474673748016357,-0.09810229390859604,-0.12230128794908524,0.05028986558318138,0.07576167302045961,0.16701826739428716,0.21810181302635656
3.177487850189209,-0.04652835428714752,0.01311986893415451,-0.01263129711151123,-0.10810139775276184,-0.1375787854194641,0.03561504930257797,0.07380991410743108,0.16441281290622975,0.21879358570989257
3.1871578693389893,-0.036951348185539246,0.010873869061470032,-0.01805049180984497,-0.1046774759888649,-0.16221602261066437,0.023705609142780304,0.07155796675749912,0.16136810816212746,0.2193638426004796
3.1968119144439697,-0.01968204975128174,0.013036228716373444,-0.017500698566436768,-0.0930250808596611,-0.1994456946849823,0.014322226867079735,0.06984030285163943,0.15778865039499565,0.2198328682606637
3.206902027130127,-0.003999486565589905,0.01248149573802948,-0.015741050243377686,-0.0992831140756607,-0.23128865659236908,0.00664475979283452,0.06882536896164075,0.15356978533415588,0.22021606082956796
3.2185988426208496,0.006062403321266174,0.008236430585384369,-0.007763326168060303,-0.11633320152759552,-0.25082242488861084,-0.0008187490748241544,0.06828692705662948,0.1491637697456221,0.22054247659769843
3.2269859313964844,0.009611576795578003,0.0006498396396636963,0.00032705068588256836,-0.1410979926586151,-0.2572861909866333,-0.012692293152213097,0.06727454818379712,0.1449080850668865,0.22077337824212392
3.2371387481689453,0.009989038109779358,-0.011827655136585236,0.009813547134399414,-0.15515229105949402,-0.25908008217811584,-0.011447264812886715,0.06547423973294185,0.14093972568193625,0.2209596641015238
3.247018814086914,0.009421616792678833,-0.01785176992416382,0.01786893606185913,-0.16319672763347626,-0.2573040723800659,-0.01908249408006668,0.06344370958838454,0.1371415631829803,0.22110232090372317
3.257201910018921,0.0101357102394104,-0.015508469194173813,0.021131932735443115,-0.16778801381587982,-0.24910739064216614,-0.02135923132300377,0.061617795102738786,0.13358024538104443,0.22118892286401676
3.268483877182007,0.014303475618362427,-0.012951258569955826,0.022005856037139893,-0.1666199415922165,-0.23175010085105896,-0.01891402341425419,0.059838230481721565,0.13064908722396606,0.22123700172050795
3.2770068645477295,0.011231571435928345,-0.011897120624780655,0.02334839105606079,-0.1564469337463379,-0.21731522679328918,-0.030825277790427208,0.05802055523951848,0.12863612303108368,0.22119288936293194
3.287008762359619,0.006228968501091003,-0.007396675646305084,0.02335292100906372,-0.14453397691249847,-0.1933211386203766,-0.03919633850455284,0.05636900986861879,0.12741968803556392,0.22097807311104115
3.297057867050171,0.001922711730003357,-0.004888445138931274,0.021257758140563965,-0.11821421980857849,-0.1682370901107788,-0.04290638864040375,0.055152204814155566,0.12678263572698292,0.2206789624751605
3.3071208000183105,0.0001980811357498169,0.00019596144556999207,0.012940049171447754,-0.08859890699386597,-0.1568196713924408,-0.057035043835639954,0.05454416453385442,0.12633203631240145,0.22023894470119196
3.3179240226745605,-0.004339829087257385,0.010232441127300262,0.007855057716369629,-0.06820414960384369,-0.13470743596553802,-0.07088427990674973,0.05464732798050344,0.12595374109510088,0.2196331272388469
3.3271470069885254,-0.010019049048423767,0.01160953938961029,0.008931398391723633,-0.06110455095767975,-0.12377787381410599,-0.08611969649791718,0.055017904701548735,0.12560502458680542,0.21888373284330448
3.3371729850769043,-0.01238258183002472,0.007387835532426834,0.0076712965965271,-0.05689036101102829,-0.101799875497818,-0.10164272785186768,0.05522156198184896,0.12534299813720537,0.2179770847254487
3.3470640182495117,-0.013873390853404999,0.007289770990610123,0.009527742862701416,-0.04482115060091019,-0.10530032962560654,-0.11501680314540863,0.05529144961180326,0.12523106938499728,0.21692487053250858
3.357128858566284,-0.011672645807266235,1.251325011253357e-05,0.0050550103187561035,-0.032243840396404266,-0.11171188950538635,-0.1349465698003769,0.05533847433277085,0.12485821971749853,0.21569345077464305
3.3678669929504395,-0.007247112691402435,-0.002723176032304764,0.0032506585121154785,-0.03884014114737511,-0.10346190631389618,-0.1414889395236969,0.05513544432632379,0.12424027620129824,0.2143213390224462
3.3770389556884766,-0.004636071622371674,-0.0032986365258693695,0.004673779010772705,-0.050440069288015366,-0.09170112013816833,-0.14209933578968048,0.05468136427598328,0.12354236271331348,0.2129640709061475
3.387117862701416,-0.007607616484165192,-0.005710974335670471,-0.003598034381866455,-0.049851808696985245,-0.08930684626102448,-0.1429603397846222,0.05400753141596816,0.12285635781201568,0.21158428481173666
3.3972418308258057,-0.004970729351043701,-0.01283949613571167,-0.01040792465209961,-0.030249081552028656,-0.09169171005487442,-0.13574503362178802,0.0531338684753449,0.12202212593285697,0.21023698327093712
3.4071450233459473,0.0020018592476844788,-0.009998887777328491,-0.011682450771331787,-0.0008443208644166589,-0.09472700208425522,-0.11807368695735931,0.0525098545665673,0.12097201737356521,0.20899092219196175
3.4187328815460205,0.00863628089427948,-0.0006193481385707855,-0.013089597225189209,0.026685308665037155,-0.10575888305902481,-0.0972413718700409,0.05236771409590625,0.11978917059700482,0.2079192390511955
3.427363872528076,0.01383664458990097,0.0011222586035728455,-0.016898512840270996,0.04969934746623039,-0.10994759202003479,-0.07993263751268387,0.05252261963178761,0.1185157717975985,0.2070114142423588
3.4371590614318848,0.019708000123500824,0.0015912055969238281,-0.01666545867919922,0.06248518079519272,-0.10959126055240631,-0.05566910654306412,0.053114460687033266,0.1173072070974944,0.20629067845332028
3.4473419189453125,0.02054251730442047,0.0008418634533882141,-0.009775698184967041,0.058716729283332825,-0.10754892230033875,-0.04187627509236336,0.05383099149187861,0.11625487422620903,0.2057421355360769
3.457178831100464,0.019538551568984985,0.0005318857729434967,-0.006799161434173584,0.04359130561351776,-0.10653132945299149,-0.03811509534716606,0.05443743046368059,0.11530173780975649,0.20527679164350096
3.4692888259887695,0.01985538750886917,-0.0042985230684280396,-0.0013470053672790527,0.028553931042551994,-0.10763236880302429,-0.036389417946338654,0.05491779242878259,0.11423159702428001,0.2048623922325516
3.477228879928589,0.021825730800628662,-0.008165620267391205,0.006577491760253906,0.007705374620854855,-0.09222730994224548,-0.03484958037734032,0.055369624913544836,0.11329420373242395,0.20447820645805137
3.487243890762329,0.017913877964019775,-0.00944715365767479,0.01442044973373413,0.0015893254894763231,-0.08755498379468918,-0.03145042806863785,0.0555684979116,0.11265513049415676,0.20413330360047222
3.4972000122070312,0.01354314386844635,-0.004210636019706726,0.014289796352386475,0.0015845319721847773,-0.07934365421533585,-0.03074575401842594,0.05544899870049983,0.11224591518313755,0.20379156493386644
3.507267951965332,0.012457385659217834,0.004821173846721649,0.012135028839111328,0.006245795637369156,-0.06299708038568497,-0.017775414511561394,0.05532534729370192,0.11206299826052099,0.2035059421232886
3.5180768966674805,0.013144038617610931,0.0071974098682403564,0.010616838932037354,0.009873820468783379,-0.04661145061254501,-0.006700660102069378,0.055244794193755525,0.11217013774107111,0.2033481914354517
3.5272607803344727,0.012606993317604065,0.008436370640993118,0.00852978229522705,0.016008827835321426,-0.04320557788014412,-0.00014475639909505844,0.05529364572425089,0.1123887577217201,0.20326704032312176
3.5372567176818848,0.012522794306278229,0.006940845400094986,0.007401883602142334,0.012007428333163261,-0.03472048044204712,0.008945943787693977,0.05540045418938361,0.11259732768293958,0.20325882694174463
3.5473198890686035,0.016681000590324402,0.005158077925443649,0.005757391452789307,0.003078731708228588,-0.026055309921503067,0.014290056191384792,0.05558635876765467,0.11288284010807383,0.20332401752707835
3.5581178665161133,0.01784852147102356,0.00370229035615921,0.008383691310882568,0.0020089400932192802,-0.022499188780784607,0.014978216029703617,0.05585522743917886,0.11327652696865337,0.20344011265499717
3.568912982940674,0.019958890974521637,0.0010862797498703003,0.007377445697784424,0.009726581163704395,-0.03687049821019173,0.010443438775837421,0.056199966855176815,0.11350475614514421,0.20353202425086875
3.577540874481201,0.024028748273849487,0.0030458085238933563,0.009033799171447754,0.00464180763810873,-0.043962761759757996,0.005208996124565601,0.05640505806374825,0.11346419770131895,0.20358366099401332
3.588613986968994,0.026101626455783844,0.0027267374098300934,0.011981368064880371,-0.009195760823786259,-0.0366167388856411,0.003918801434338093,0.05623830868575083,0.11338854604829043,0.2036094367607173
3.5973997116088867,0.021359682083129883,-5.9623271226882935e-05,0.01346433162689209,-0.020819926634430885,-0.033590588718652725,0.010179893113672733,0.05589281694167314,0.11339815951028903,0.20368204631028247
3.6074609756469727,0.012813210487365723,-0.0030085183680057526,0.010744333267211914,-0.032092005014419556,-0.03330150619149208,0.007613563910126686,0.05541510024505653,0.11339669276735556,0.2037913233911262
3.618469715118408,0.011929303407669067,-0.0053769126534461975,0.00974506139755249,-0.03646837919950485,-0.02486380934715271,0.009211727418005466,0.05490750722521799,0.11343853394991925,0.20388456338628472
3.627394914627075,0.012886874377727509,-0.007660023868083954,0.01392596960067749,-0.046243809163570404,-0.011438194662332535,0.013347083702683449,0.05439364854693534,0.11368518038909207,0.20402101500349007
3.637444019317627,0.00450076162815094,-0.010317094624042511,0.017564833164215088,-0.04915011674165726,0.006953862030059099,0.016320236027240753,0.0538720407824048,0.11413709072705923,0.20418817609772974
3.647397041320801,-0.005311504006385803,-0.011546604335308075,0.018181979656219482,-0.02576005645096302,0.01724373921751976,0.02053799107670784,0.05354233044706851,0.1147665770823816,0.2043847079810535
3.6575098037719727,-0.008096978068351746,-0.0057677291333675385,0.012081027030944824,0.019044432789087296,0.01718221977353096,0.022801944985985756,0.053538116302258555,0.11554412066446786,0.20457465618691226
3.6681947708129883,-0.006811462342739105,0.007138248533010483,0.009062409400939941,0.055092498660087585,0.023753171786665916,0.021994953975081444,0.05394773329290744,0.11638900553685577,0.20471157552664548
3.677475929260254,-0.0076214224100112915,0.015178266912698746,0.005895376205444336,0.07508324831724167,0.03039908967912197,0.02082076668739319,0.054695155468633135,0.11716433416067301,0.20482894727061352
3.6874799728393555,-0.011580139398574829,0.014646463096141815,0.0022394657135009766,0.07150429487228394,0.035076312720775604,0.015056674368679523,0.055568490028668746,0.11774612974142898,0.20491372767892316
3.697432041168213,-0.013088755309581757,0.011156756430864334,-0.0027748942375183105,0.05626382306218147,0.04328417405486107,0.003926258534193039,0.05635246770659577,0.11836490654388486,0.204914775338568
