timestamp,accel_x,accel_y,accel_z,rotation_x,rotation_y,rotation_z, pitch,roll,yaw
0.03936600685119629,0.002900540828704834,-0.0020191147923469543,0.006405353546142578,0.00253313803113997,0.0056000687181949615,-0.0026993295177817345,-0.06685771813911792,0.312542270730256,0.010537647526481503
0.04805803298950195,0.0024101436138153076,-0.004778996109962463,0.0054618120193481445,0.0063710203394293785,0.0077452450059354305,0.003816626500338316,-0.06682516479885235,0.3126402098940116,0.010524835052711937
0.0632619857788086,0.002789050340652466,-0.006088517606258392,-0.0005165934562683105,0.016607411205768585,-0.0033446899615228176,0.004101051948964596,-0.06670007879446072,0.3126562772526115,0.010521182862993588
0.07136988639831543,0.0058161914348602295,-0.0019987821578979492,0.0007450580596923828,0.02091108076274395,-0.004555895458906889,0.008328287862241268,-0.06650089102724963,0.3126136320128034,0.010514626100028287
0.07709813117980957,0.004516303539276123,0.001314699649810791,0.0034900903701782227,0.015288615599274635,-0.005453381221741438,0.010847372002899647,-0.06628447325959075,0.312563825508204,0.010559815372605183
0.08248686790466309,-0.00038611888885498047,-0.0037201866507530212,0.004014492034912109,-0.0007462783250957727,-0.005159900989383459,0.011031130328774452,-0.06617690978135471,0.31251788222409865,0.010642368645383751
0.09718203544616699,0.0002523064613342285,-0.008801527321338654,0.0041065216064453125,-0.014094473794102669,-0.00782758928835392,0.004550753626972437,-0.06622295054906956,0.31245715255775336,0.010740324871783053
0.10437202453613281,-0.00039273500442504883,-0.008265100419521332,0.007991194725036621,-0.016301436349749565,-0.003384371753782034,0.005816021468490362,-0.06635820195104605,0.31240016369095835,0.010840463592459026
0.11021685600280762,-0.0018828809261322021,-0.007715046405792236,0.012023627758026123,-0.00946278776973486,-0.0074554127641022205,0.0091905128210783,-0.06646451555525236,0.3123648099555899,0.010952999364121056
0.11916613578796387,-0.002749532461166382,-0.0038928911089897156,0.00657576322555542,0.0015706885606050491,-0.013915974646806717,0.007450403645634651,-0.06647233428417457,0.312265300587771,0.011045904311012983
0.12939810752868652,0.000401228666305542,0.005001828074455261,0.004312753677368164,0.004524017684161663,-0.008331104181706905,0.008637906983494759,-0.06641231746238192,0.3121436846774697,0.01111370653215702
0.13915801048278809,-0.00015881657600402832,0.004108846187591553,0.007067680358886719,0.01036779209971428,-0.0012502912431955338,0.011758598499000072,-0.06631326473494994,0.3121367996747436,0.01118681282740113
0.1493241786956787,-0.006337493658065796,0.0006574243307113647,0.008409857749938965,0.012980286031961441,-0.003444647416472435,0.005552581511437893,-0.06617857882409428,0.31211664999625965,0.011239167572326016
0.15920186042785645,-0.004522919654846191,0.0039984360337257385,0.010977029800415039,0.010869464837014675,-0.002874198369681835,0.0037626707926392555,-0.0660416054167594,0.312082870105234,0.011243654266539133
0.16927599906921387,-0.003718733787536621,0.004586957395076752,0.01156604290008545,0.01879633031785488,0.012662239372730255,0.004171998705714941,-0.06589527373530932,0.3121327366309054,0.01123238381643742
0.17932391166687012,-0.007043629884719849,0.0024637728929519653,0.0091325044631958,0.027906471863389015,0.0019608591683208942,0.0019131056033074856,-0.06565282233344943,0.3122063030499509,0.011189433984277825
0.18941617012023926,-0.003878086805343628,0.00600752979516983,0.007468819618225098,0.025585860013961792,-0.0006288876757025719,-0.005793762393295765,-0.06532796743226246,0.31222420335417905,0.011088765995784691
0.19927096366882324,-8.881092071533203e-06,0.008140012621879578,0.009603798389434814,0.008076641708612442,0.006095327902585268,-0.011985612101852894,-0.0651635241361728,0.3122115784342905,0.010958443488113857
0.20938992500305176,-0.0045594871044158936,-0.0008711293339729309,0.012971282005310059,-0.012533379718661308,0.01416359655559063,-0.01762853004038334,-0.0653096165394655,0.31234685362075415,0.010831103089058087
0.21941685676574707,-0.006743103265762329,-0.008218102157115936,0.011346220970153809,-0.016967542469501495,0.009424501098692417,-0.023579897359013557,-0.06557709219985777,0.312466703788504,0.010691139388522636
0.22957110404968262,-0.002009153366088867,-0.0008765831589698792,0.009068489074707031,-0.01264897733926773,0.005060246214270592,-0.023195762187242508,-0.06580441975748129,0.3124836832854303,0.010505285637219312
0.2395780086517334,0.0008044242858886719,0.005745254456996918,0.008792757987976074,-0.0040901098400354385,0.01049069780856371,-0.021017562597990036,-0.06600369442786662,0.31254594421588466,0.010319145368545161
0.2496809959411621,-0.002036571502685547,0.0034017562866210938,0.007805585861206055,-0.004574056249111891,0.005144624039530754,-0.02446039207279682,-0.06615024657329954,0.31260030332146843,0.010118053866516607
0.25974488258361816,-0.0019598007202148438,0.00012619048357009888,0.005275607109069824,-0.010005572810769081,0.007549724541604519,-0.026297973468899727,-0.0663286688136505,0.312603627638645,0.009886565843611927
0.2696511745452881,-0.001116633415222168,-0.002314634621143341,0.006112515926361084,-0.006132720969617367,0.015559136867523193,-0.02308071404695511,-0.06654217547808461,0.31271652525793764,0.009685933582462043
0.2796299457550049,-0.0032097697257995605,-0.005756102502346039,0.006557941436767578,-0.001759278355166316,0.004743507131934166,-0.022969925776124,-0.066718662573737,0.3128196535372295,0.009484801521897126
0.28946995735168457,0.0006139874458312988,-0.00632813572883606,0.009553253650665283,0.0019020021427422762,0.006378155667334795,-0.020193368196487427,-0.0667720031999129,0.3128433815387393,0.009276008376990072
0.2994530200958252,0.003559201955795288,-0.0045522525906562805,0.0071830153465271,0.005620041862130165,0.006449794862419367,-0.01435012649744749,-0.06670496384553125,0.3128738186165139,0.009089668647206334
0.3095099925994873,0.0013302266597747803,-0.006074860692024231,0.0041457414627075195,-0.0032596364617347717,0.005644987337291241,-0.014288714155554771,-0.06671697703090913,0.3129235441408723,0.008951602414350718
0.3196299076080322,0.002425640821456909,-0.01072210818529129,0.004463493824005127,-0.01649261824786663,0.0038944915868341923,-0.009852953255176544,-0.06689379794831549,0.3129950580492844,0.008861979755825013
0.33005595207214355,0.002663940191268921,-0.013437598943710327,0.007185041904449463,-0.026356833055615425,0.002736638067290187,-0.010155115276575089,-0.06715319563299452,0.3130228796333341,0.008838615708354874
0.3394901752471924,0.0015024840831756592,-0.013723008334636688,0.010641038417816162,-0.03264109417796135,-0.0006208089180290699,-0.008472530171275139,-0.0674698522155992,0.31303171148846126,0.008845652816211285
0.3495180606842041,0.00012186169624328613,-0.015616700053215027,0.009894311428070068,-0.03350922092795372,-0.0037256116047501564,-0.0071704573929309845,-0.0677773232937199,0.313013998922677,0.008869963573379741
0.3597228527069092,0.0010100007057189941,-0.011301770806312561,0.008651554584503174,-0.02700391411781311,-0.00033647241070866585,-0.0019224321004003286,-0.06802533980723728,0.3129840139215624,0.008916038714670898
0.37008213996887207,-0.0003311634063720703,-0.006023511290550232,0.0083962082862854,-0.021275389939546585,0.003469895338639617,-0.0010368777438998222,-0.06819487123579782,0.313034322887882,0.008987336824534583
0.3797900676727295,-0.0011762380599975586,-0.006634443998336792,0.006749868392944336,-0.009594764560461044,0.009647363796830177,0.002451064297929406,-0.0683025149525163,0.31315539161362727,0.00904180496002456
0.3897888660430908,-0.00028780102729797363,-0.0039047524333000183,0.003591477870941162,0.0034457703586667776,0.007894737645983696,0.0014504080172628164,-0.06825826852939336,0.31326333396161476,0.0090654526416387
0.3998239040374756,0.0014102756977081299,0.0035694092512130737,0.0004470348358154297,0.006277509965002537,0.005475521553307772,0.0018847696483135223,-0.06809267927897979,0.313351555115256,0.009069712321364954
0.4098799228668213,0.003996849060058594,0.00212840735912323,0.0009300708770751953,-0.0008747426327317953,0.007420250214636326,0.0018551552202552557,-0.06793113540724513,0.31345225106978636,0.00908004999535505
0.4200870990753174,0.0029355883598327637,-0.0012696757912635803,0.0017529726028442383,-0.00539093092083931,0.009290589019656181,-0.002104432787746191,-0.06785002316958225,0.3135718646814448,0.009086215119741697
0.4297358989715576,0.0025593340396881104,-0.0020823851227760315,0.0009884834289550781,-0.0017814990133047104,0.0013558329083025455,-0.0060217296704649925,-0.0677622711308964,0.31364484621189975,0.009059532294542316
0.43972301483154297,0.004278838634490967,-0.0015614554286003113,0.0008541345596313477,0.001960774650797248,-0.002777392975986004,-0.004857395775616169,-0.06769895496254079,0.31364844514476126,0.009004966006900378
0.4498770236968994,0.0074606239795684814,0.0023399367928504944,-0.001797497272491455,0.011026574298739433,-0.009944225661456585,-0.003138005267828703,-0.06761206167990262,0.3136059911378892,0.008948783987575109
0.4597899913787842,0.0076721906661987305,0.0020269453525543213,-0.0036697983741760254,0.01447350438684225,-0.01596217229962349,-0.007355920039117336,-0.0674516663280211,0.3134759955961042,0.008861969594000535
0.4698619842529297,0.00652313232421875,0.0003016144037246704,0.0007109642028808594,0.012961627915501595,-0.018472110852599144,-0.010593738406896591,-0.06731511179053186,0.31330106639963073,0.0087350142418456
0.4798159599304199,0.004224061965942383,-0.0015477687120437622,0.004414677619934082,0.0027273655869066715,-0.01743108220398426,-0.010859787464141846,-0.06730289568478504,0.31311869717487045,0.008616095645615763
0.4898688793182373,0.0008373856544494629,-0.004795044660568237,0.007148921489715576,-0.006554183550179005,-0.012599484995007515,-0.013426489196717739,-0.06739180950280328,0.31299123815921787,0.00850646731712716
0.49992799758911133,0.0005920827388763428,-0.007908716797828674,0.008680105209350586,-0.010610710829496384,-0.011092668399214745,-0.013343931175768375,-0.06751503490308343,0.31289871934848235,0.008405136456544797
0.5098819732666016,-0.0003282129764556885,-0.008027806878089905,0.007779240608215332,-0.010548925027251244,-0.009323264472186565,-0.011693037115037441,-0.06763439438465685,0.3128259906177832,0.008316832151466558
0.5199129581451416,-0.001659780740737915,-0.005789250135421753,0.008486688137054443,-0.006949130445718765,-0.006907511502504349,-0.007718801964074373,-0.06774594657183002,0.3127844549705307,0.008242815306304765
0.5299010276794434,-0.0011605024337768555,-0.006216511130332947,0.010401368141174316,-0.003694364335387945,-0.0007374556735157967,-0.005495328921824694,-0.06783773101506119,0.3127909665702886,0.0082002143751117
0.5399291515350342,-0.0025707483291625977,-0.007130332291126251,0.009559571743011475,0.0049475934356451035,0.0003863982856273651,0.0011290177935734391,-0.06785131340080436,0.3128462736271531,0.008184337587783565
0.5499629974365234,-0.0022999346256256104,-0.007557965815067291,0.009744524955749512,0.014115674421191216,0.0019494518637657166,0.007743031717836857,-0.06774464708998595,0.3129122837410028,0.00820360071413999
0.560142993927002,-0.0006560087203979492,-0.003038473427295685,0.00972360372543335,0.021624989807605743,0.0015049702487885952,0.011610740795731544,-0.06752763482816541,0.3129760706000863,0.008248892595166195
0.5698831081390381,-0.0002923309803009033,-0.003842100501060486,0.008467376232147217,0.022792669013142586,-0.000911093782633543,0.011403546668589115,-0.06723195686595895,0.3130044295842475,0.008290628425970573
0.5799469947814941,-0.0024925172328948975,-0.00407206267118454,0.009864449501037598,0.01596272550523281,0.001980832777917385,0.009629081934690475,-0.06695776199686355,0.3130336752267015,0.00832638214669752
0.5899350643157959,-0.0033097267150878906,-0.004697538912296295,0.010786235332489014,0.009148762561380863,-0.0006235609762370586,0.005770375020802021,-0.06675881650989791,0.3130543844943389,0.008368012719594526
0.6002051830291748,-0.0022623538970947266,-0.004051528871059418,0.008600056171417236,0.006340726278722286,-0.003468615934252739,0.0021506063640117645,-0.06664660940336947,0.3130416253986988,0.00838737051323994
0.6100680828094482,-0.00084725022315979,-0.0013386085629463196,0.00553363561630249,0.008259966969490051,-0.00555875338613987,0.0028493665158748627,-0.06654270640607891,0.31301142199290594,0.008390660898246187
0.6200530529022217,0.0010183453559875488,0.0008043348789215088,0.0028649568557739258,0.013505062088370323,-0.009012606926262379,0.0014855617191642523,-0.06638306141016218,0.31293949163692386,0.008376733501245051
0.6302750110626221,0.002324044704437256,0.0036680102348327637,0.0012101531028747559,0.01057225652039051,-0.010004190728068352,0.0018367263255640864,-0.06621982540414606,0.31284642551880165,0.008354381535195568
0.6404869556427002,0.005933851003646851,0.004768021404743195,0.00164794921875,-0.002558992011472583,-0.005839539226144552,-0.0006895483238622546,-0.06617258074257548,0.3127719522479413,0.008349383868473557
0.651818037033081,0.00555911660194397,0.001329578459262848,0.0037398934364318848,-0.013857736252248287,-0.003270610235631466,-0.005209411960095167,-0.06625425745078582,0.3127505042385249,0.008350668858843235
0.6601200103759766,0.002009749412536621,-2.4922192096710205e-05,0.004615306854248047,-0.017260190099477768,0.0019148308783769608,-0.00828616227954626,-0.0664189420368394,0.31274782766942744,0.008341851757754034
0.670464038848877,0.003368467092514038,0.003292761743068695,0.0037235021591186523,-0.0044431621208786964,-0.0035449154675006866,-0.008256015367805958,-0.06651944897407595,0.3127492673119159,0.008304537296046669
0.6801588535308838,0.006962954998016357,0.007427901029586792,0.00031107664108276367,0.015400850214064121,-0.006771868094801903,-0.007792625110596418,-0.06647356242577826,0.312690923874718,0.008205551028985715
0.6903140544891357,0.008484721183776855,0.010939709842205048,0.0005468130111694336,0.02931624837219715,-0.005314009264111519,-0.007299674209207296,-0.06627247481783746,0.31261058979154943,0.008065081608666038
0.7027280330657959,0.0038373172283172607,0.008059613406658173,0.0013155341148376465,0.03389155864715576,-0.008577446453273296,-0.011208927258849144,-0.06599338034542652,0.3125494745198618,0.007880506544464346
0.7105071544647217,-0.0002759099006652832,0.005674712359905243,0.000854790210723877,0.026903491467237473,-0.0012942338362336159,-0.011776074767112732,-0.06576855177088382,0.3125055971222951,0.007672904636818565
0.7206108570098877,-0.0016539692878723145,-0.0003029853105545044,0.004683077335357666,0.019927075132727623,0.0005638538859784603,-0.013793419115245342,-0.06562716573658094,0.3125397292753482,0.0074761488964067
0.7302238941192627,-0.003145456314086914,-0.005140423774719238,0.004846811294555664,0.021774128079414368,-0.0016182963736355305,-0.012486552819609642,-0.06548994383942817,0.3125809615384984,0.007283499835355791
0.7411589622497559,-0.0013095438480377197,-0.0048018768429756165,0.006563782691955566,0.02341197244822979,-0.008629068732261658,-0.008717646822333336,-0.06531887467429887,0.3125400568035429,0.007114132036899372
0.7535431385040283,-5.2481889724731445e-05,-0.00289076566696167,0.006391763687133789,0.01836005598306656,-0.00888659618794918,-0.00401903223246336,-0.0651774898632472,0.3124827320813178,0.00698826030202557
0.7602570056915283,-0.0004750192165374756,-0.006643302738666534,0.006369650363922119,0.018747812137007713,-0.01237267442047596,0.0008484271820634604,-0.06506932016698551,0.31242730709736055,0.006920568245018237
0.7701160907745361,-0.0008971989154815674,-0.008420765399932861,0.005014240741729736,0.019234752282500267,-0.01460568979382515,0.003647409612312913,-0.06496973484774557,0.31233948247486854,0.0068768294394842
0.780289888381958,-0.00062599778175354,-0.0077694132924079895,0.006107687950134277,0.029768887907266617,-0.010627992451190948,0.013072602450847626,-0.06479103560995864,0.3122429945126375,0.0068787979793408505
0.7901551723480225,-0.0016895830631256104,-0.0064401775598526,0.004083096981048584,0.04427945241332054,-0.017821457237005234,0.023485401645302773,-0.06442233564622747,0.3121019937783906,0.006947109972202988
0.8022911548614502,0.0017076432704925537,0.0016705766320228577,-0.0016068816184997559,0.07048655301332474,-0.018910422921180725,0.02654803730547428,-0.06381766369696006,0.3119185111992534,0.006995480068924531
0.8101639747619629,0.0023892223834991455,0.005488596856594086,-0.0010079741477966309,0.084266297519207,-0.03587764501571655,0.03156767040491104,-0.06292753976659095,0.3116325597850934,0.00706470963805567
0.8202831745147705,0.0008558332920074463,0.005567543208599091,0.001757979393005371,0.07447172701358795,-0.03225068747997284,0.026773981750011444,-0.06208400934416239,0.31133432465011335,0.007067427509780947
0.8315250873565674,-0.0017778873443603516,0.004418224096298218,0.006915092468261719,0.027532896026968956,-0.026611750945448875,0.0092493686825037,-0.061523275669227155,0.3110438356631785,0.007091687480781564
0.8402531147003174,-0.002637237310409546,-0.007279925048351288,0.008439421653747559,-0.005241560749709606,-0.031489066779613495,-0.0009936813730746508,-0.0613956185594343,0.31077345068389195,0.007107383142678707
0.8522398471832275,-0.004226416349411011,-0.010871246457099915,0.012366294860839844,-0.010660744272172451,-0.041312359273433685,-0.012091127224266529,-0.06147757459875902,0.3104402405703218,0.007070648690400445
0.8604228496551514,-0.004317730665206909,-0.0030171461403369904,0.01533818244934082,0.0026231028605252504,-0.04872792959213257,-0.013952942565083504,-0.06152762262307754,0.30999150692685473,0.006956670418365321
0.8701760768890381,-0.00114363431930542,0.010424751788377762,0.011178195476531982,0.006418224424123764,-0.051968418061733246,-0.015693318098783493,-0.0614981465549744,0.309476963468205,0.00679280626639694
0.8801820278167725,-0.002025038003921509,0.008695021271705627,0.010598063468933105,0.008003603667020798,-0.03251748904585838,-0.013373172841966152,-0.06151892321051959,0.30907232306947596,0.006632205016783075
0.8905770778656006,-0.006159484386444092,0.0032600872218608856,0.009870588779449463,0.022785862907767296,-0.0322607159614563,-0.010560342110693455,-0.061460585487098485,0.3087655626989439,0.006490537559551283
0.9022819995880127,-0.0065139830112457275,0.007169365882873535,0.009861528873443604,0.02985069714486599,-0.035908449441194534,-0.012814175337553024,-0.061274097820130394,0.3084286758619072,0.006299377541947027
0.9111320972442627,-0.006127983331680298,0.007727824151515961,0.015879571437835693,0.03546207770705223,-0.030601387843489647,-0.016627980396151543,-0.061050923156867734,0.30809871977607917,0.006054168917433592
0.9204909801483154,-0.008736759424209595,-0.0007962509989738464,0.01853257417678833,0.04130638390779495,-0.037017740309238434,-0.022608907893300056,-0.060693721817800944,0.3077704565845889,0.0057654266850830395
0.930682897567749,-0.010020434856414795,0.0015926510095596313,0.019665837287902832,0.04743393510580063,-0.039043743163347244,-0.031032806262373924,-0.06028771673837934,0.30737974860686007,0.005369488499845527
0.9405019283294678,-0.008571445941925049,0.0017729401588439941,0.020809173583984375,0.04640435799956322,-0.05045511946082115,-0.0450732596218586,-0.059954239826082625,0.3069410033830875,0.0048795361601975985
0.952908992767334,-0.006725579500198364,-0.005316179245710373,0.02159404754638672,0.04152321442961693,-0.07932068407535553,-0.0611734539270401,-0.05976457298419948,0.30629649444310625,0.0042328024328495235
0.9605050086975098,-0.0029311776161193848,-0.006676867604255676,0.02962714433670044,0.013780266977846622,-0.11377079784870148,-0.08882025629281998,-0.059767237326918035,0.3053080153718198,0.003435396478371152
0.9704620838165283,0.001252204179763794,-0.006429392844438553,0.03229790925979614,-0.04456489905714989,-0.1679157167673111,-0.12660875916481018,-0.060237772735569795,0.30384012430726903,0.0024600463694946107
0.9803731441497803,0.0036926567554473877,-0.02539433166384697,0.03410792350769043,-0.13582637906074524,-0.20694220066070557,-0.16382724046707153,-0.06155072302797022,0.30191212356629415,0.001318496432244822
0.9910249710083008,0.008452564477920532,-0.03647337108850479,0.030244052410125732,-0.24072466790676117,-0.2426738739013672,-0.1882912963628769,-0.06382992267461321,0.29960431761724976,0.00020402817344518297
1.0017220973968506,0.011292517185211182,-0.024490416049957275,0.019976496696472168,-0.4202267825603485,-0.27633407711982727,-0.28497761487960815,-0.06764806116480165,0.29696000067290207,-0.0010699523112086484
1.0105230808258057,0.004087358713150024,-0.04640638083219528,0.028385162353515625,-0.6912919878959656,-0.3782345950603485,-0.42160144448280334,-0.07393953429951963,0.29359723293823003,-0.0027811581601336526
1.0204451084136963,0.0017091035842895508,-0.0909595862030983,0.05451005697250366,-0.9350394010543823,-0.5833307504653931,-0.6167757511138916,-0.08318192969024604,0.2887637806400611,-0.005410519615135771
1.0304419994354248,0.027840495109558105,-0.12858262658119202,0.07440757751464844,-1.3805665969848633,-0.897384762763977,-0.9265199303627014,-0.09624517802202,0.28098936994948787,-0.0095255409037641
1.0405499935150146,0.05805331468582153,-0.15606197714805603,0.12378078699111938,-1.9975696802139282,-1.2939329147338867,-1.2469985485076904,-0.1154859754160535,0.2694157744473799,-0.015532978153002832
1.051771879196167,0.06581196188926697,-0.2216036170721054,0.1831732988357544,-2.787736415863037,-1.6451992988586426,-1.534185528755188,-0.1421101279419435,0.2537168442976551,-0.02285729133479681
1.0606470108032227,0.07811687886714935,-0.2208324521780014,0.195145845413208,-3.7991538047790527,-1.899566650390625,-1.728144884109497,-0.1779003116333799,0.23458179728394535,-0.03098121846490781
1.071108102798462,0.06170766055583954,-0.15191373229026794,0.1895882487297058,-5.188623428344727,-2.010430097579956,-1.9638512134552002,-0.22563116851718173,0.21325981446957443,-0.03915525599422389
1.0805549621582031,0.019108504056930542,-0.20006364583969116,0.18526023626327515,-6.7089643478393555,-2.076073169708252,-2.2564475536346436,-0.28818841300828424,0.19053597691715848,-0.0482158370010765
1.0904781818389893,-0.03593870997428894,-0.30663585662841797,0.2151850461959839,-8.485648155212402,-2.040839433670044,-2.4765796661376953,-0.3668245204939028,0.16645815171210332,-0.058774764903130876
1.1024839878082275,-0.04579821974039078,-0.31441885232925415,0.25151586532592773,-10.576313972473145,-2.2198195457458496,-2.671893835067749,-0.4649132051436988,0.1401894143765023,-0.07087411177514617
1.1105589866638184,-0.0815364345908165,-0.251340389251709,0.3369549512863159,-13.06466007232666,-2.4739699363708496,-2.761826992034912,-0.5856023563871919,0.10942672610197454,-0.08507424119099315
1.1206300258636475,-0.07906176149845123,-0.33233028650283813,0.45772749185562134,-15.874200820922852,-2.6749775409698486,-2.6907894611358643,-0.7321240174189626,0.07282148150859433,-0.10298017674006846
1.1304681301116943,-0.12458177655935287,-0.26935815811157227,0.5640215873718262,-18.874755859375,-2.917146682739258,-2.3811936378479004,-0.9071643660434224,0.026597485143929157,-0.12777751845748206
1.1406538486480713,-0.15892630815505981,-0.008407175540924072,0.6593198776245117,-21.382125854492188,-2.9136693477630615,-1.8459439277648926,-1.1093983655850228,-0.03834860956679122,-0.16959696852320452
1.1519360542297363,-0.1316957324743271,0.23892837762832642,0.6445412635803223,-22.816547393798828,-2.6487815380096436,-1.5480232238769531,-1.32862198359801,-0.17744506531268772,-0.2874374493575085
1.1606450080871582,-0.12460120767354965,0.48358649015426636,0.4630771279335022,-22.711505889892578,-2.244494676589966,-1.678409457206726,-1.509438440879595,-1.4359576354235424,-1.5282566304750551
1.170673131942749,-0.16709014773368835,0.8258390426635742,0.23901629447937012,-21.364906311035156,-2.2483067512512207,-2.1608009338378906,-1.3429893728275515,-2.791273990994683,-2.868339201119912
1.1818149089813232,-0.24485549330711365,1.0017509460449219,-0.07498377561569214,-19.838464736938477,-2.5707647800445557,-2.659493923187256,-1.1381783830601033,-2.9181939321176817,-2.9761272380256365
1.1916801929473877,-0.18749728798866272,0.8938713073730469,-0.219679594039917,-18.746856689453125,-2.754060983657837,-2.8029937744140625,-0.9435561948413832,-2.9647361669012495,-2.9988633908046225
1.2028748989105225,-0.1119428351521492,0.9599632024765015,-0.17463427782058716,-17.364776611328125,-2.7275447845458984,-2.877316474914551,-0.7600147487526879,-2.9938686894390543,-3.00048500577616
1.2108099460601807,-0.1305290162563324,1.2317259311676025,-0.18408143520355225,-13.766777038574219,-2.39103364944458,-3.0196547508239746,-0.5997264326866734,-3.013334777751001,-2.991090832331479
1.2215211391448975,-0.18091006577014923,1.2406752109527588,-0.5197312831878662,-8.249775886535645,-2.4389333724975586,-3.0896975994110107,-0.4862366700625408,-3.0274363978687524,-2.9711118032739114
1.2311830520629883,-0.13689491152763367,1.3310898542404175,-0.9312161207199097,-3.390244245529175,-2.2287840843200684,-2.868724822998047,-0.4263544490304782,-3.039613705512593,-2.9448801756733616
1.2406718730926514,-0.011038213968276978,1.3556832075119019,-0.9638344049453735,-1.5013259649276733,-1.2811362743377686,-2.441148281097412,-0.40152509667728387,-3.046801280413321,-2.9182559992952357
1.2524521350860596,0.03801392763853073,0.6844710111618042,-0.6098386645317078,-1.8900197744369507,-0.2841867506504059,-1.9629696607589722,-0.38330249980210607,-3.0459177884789477,-2.8961311938786998
1.2607879638671875,0.03373008221387863,-0.08074456453323364,-0.005194544792175293,-2.3069982528686523,0.271721214056015,-1.5733641386032104,-0.3602286755800696,-3.039678604981969,-2.8796143658534783
1.270787000656128,0.140177920460701,-0.2652261555194855,0.406543493270874,-2.0870351791381836,0.6245443224906921,-1.2324090003967285,-0.3364487609880698,-3.0308665631138294,-2.867270056904125
1.2808330059051514,0.1478630155324936,-0.13913309574127197,0.3461730480194092,-1.421342372894287,0.8152545690536499,-0.9489941000938416,-0.31760244850096675,-3.020601330775986,-2.858023140111825
1.2907719612121582,0.0920611321926117,-0.0753369927406311,0.13234734535217285,-0.738800048828125,0.9453694224357605,-0.6245175004005432,-0.30602839009861466,-3.0096017087670166,-2.8512563082949667
1.3019189834594727,0.1234981119632721,-0.09261122345924377,0.0336763858795166,-0.37456026673316956,0.8767557144165039,-0.35194429755210876,-0.300098357921056,-2.9990404024199835,-2.8469743982079985
1.3109581470489502,0.13777253031730652,-0.13491132855415344,-0.0014769434928894043,-0.2476571947336197,0.6241384744644165,-0.15686744451522827,-0.2967326450002317,-2.9908100153576824,-2.844868764509098
1.3209350109100342,0.12599702179431915,-0.22568601369857788,0.035520076751708984,-0.2096829116344452,0.32795554399490356,0.0024889344349503517,-0.29438820124133686,-2.985912464439613,-2.844452630594308
1.330993890762329,0.09953027963638306,-0.21801847219467163,-0.04080253839492798,-0.19099223613739014,0.01984935626387596,0.10576195269823074,-0.29249918375109246,-2.9844294972721475,-2.845355783165037
1.3409531116485596,0.06610262393951416,-0.16860023140907288,-0.15718597173690796,-0.163416787981987,-0.2915455400943756,0.2108795940876007,-0.29097495064406836,-2.98636788153998,-2.8472910300057697
1.352020025253296,0.0655512809753418,-0.12697559595108032,-0.16590559482574463,-0.12916535139083862,-0.5006504058837891,0.26400819420814514,-0.28989337951311617,-2.991221615686394,-2.849990892203137
1.360964059829712,0.07316575944423676,-0.09414726495742798,-0.1571793556213379,-0.11111070215702057,-0.5941982269287109,0.2880096733570099,-0.28915405817386,-2.997675967628534,-2.853032021935008
1.3708369731903076,0.057025760412216187,-0.08376947045326233,-0.17238688468933105,-0.062412507832050323,-0.6100203394889832,0.28333619236946106,-0.28869052931479994,-3.004620614157217,-2.8561223981095307
1.380911111831665,0.033274583518505096,-0.05965876579284668,-0.1450493335723877,-0.030633270740509033,-0.5824331641197205,0.26798707246780396,-0.2886250123313847,-3.0114578329566823,-2.8590665152736863
1.3918569087982178,0.026215113699436188,-0.020013868808746338,-0.0890653133392334,-0.0592944398522377,-0.48284977674484253,0.23457171022891998,-0.28851089392972223,-3.0176022589687386,-2.8617307334484985
1.4019958972930908,0.015148386359214783,-0.004671543836593628,-0.045936524868011475,-0.03018156625330448,-0.3910655379295349,0.19987817108631134,-0.28826455340003754,-3.0225861199266872,-2.86406405216916
1.4110510349273682,0.007518306374549866,0.004430711269378662,-0.019643783569335938,0.014971399679780006,-0.35477373003959656,0.1483684778213501,-0.2884313068431353,-3.0268117173406943,-2.865866541712801
1.421212911605835,0.008346207439899445,0.029714614152908325,0.013857603073120117,-0.041364312171936035,-0.3348514437675476,0.07676540315151215,-0.2885108811718595,-3.030617280497006,-2.867053783686003
1.4310691356658936,0.0020522698760032654,0.010801166296005249,0.0671241283416748,-0.14952613413333893,-0.31425347924232483,0.008808296173810959,-0.2875959137107266,-3.034000794044543,-2.8676360934821234
1.4413049221038818,-0.008959628641605377,-0.01595178246498108,0.11614418029785156,-0.19404299557209015,-0.3145429790019989,-0.07129666209220886,-0.2858186502720657,-3.0371070088074066,-2.8675045152831817
1.4526159763336182,-0.019494950771331787,-0.022684484720230103,0.14571833610534668,-0.14481240510940552,-0.293697327375412,-0.11819237470626831,-0.2839939148280402,-3.0399506744187987,-2.8666699274192697
1.4614808559417725,-0.026853859424591064,-0.004933863878250122,0.15747690200805664,-0.11522814631462097,-0.2113686501979828,-0.1453142762184143,-0.2826064805356409,-3.0421840773751883,-2.865427141995322
1.4713399410247803,-0.03769440948963165,0.012841403484344482,0.1422969102859497,-0.11155233532190323,-0.11968394368886948,-0.15456129610538483,-0.2813209509349028,-3.0433934809829464,-2.863976052202841
1.4810709953308105,-0.05314154177904129,-0.009274005889892578,0.12816250324249268,-0.06381890177726746,-0.08762561529874802,-0.15360228717327118,-0.28029437095575277,-3.044002513909515,-2.8624681411024304
1.4912269115447998,-0.04206142574548721,-0.004883676767349243,0.14803659915924072,-0.031153634190559387,-0.029396221041679382,-0.14413213729858398,-0.2796636989571481,-3.0441933851656344,-2.8609728359347684
1.5019750595092773,-0.03622477501630783,-0.013866215944290161,0.15867280960083008,0.015927590429782867,0.05322622135281563,-0.11930136382579803,-0.27943634608764645,-3.0436811921037004,-2.8596010185812775
1.511112928390503,-0.04205508530139923,-0.024292796850204468,0.1423649787902832,0.09363880008459091,0.12765544652938843,-0.08238328993320465,-0.2799176195828721,-3.042456628141455,-2.858503570167722
1.5212290287017822,-0.03915552794933319,-0.013879001140594482,0.131705641746521,0.08617502450942993,0.2268294394016266,-0.04744661599397659,-0.2807991501996424,-3.0404678046874123,-2.8577362628216836
1.531170129776001,-0.03524313122034073,-0.020069539546966553,0.1118122935295105,0.08531902730464935,0.2765618860721588,-0.028728319332003593,-0.2815567560588064,-3.037740553057271,-2.8572444256110257
1.5412390232086182,-0.042226068675518036,-0.04453784227371216,0.08730387687683105,0.15127302706241608,0.2837396264076233,-0.0022120242938399315,-0.28269365745655783,-3.0348402836164747,-2.856945585918874
1.552497148513794,-0.029027298092842102,-0.028190940618515015,0.0564308762550354,0.27571845054626465,0.2756458520889282,0.03061271458864212,-0.2848026121378227,-3.0320077327185984,-2.85684372921785
1.5613160133361816,-0.027933545410633087,-0.01629781723022461,0.00702744722366333,0.4470883309841156,0.24342425167560577,0.07997467368841171,-0.28840681574820987,-3.0294296331379234,-2.857025942368962
1.5716300010681152,-0.01850546896457672,-0.0009953677654266357,-0.030408143997192383,0.6616274118423462,0.18006303906440735,0.11191646009683609,-0.2940800737301242,-3.027378516442,-2.857354268597175
1.5812151432037354,-0.008540287613868713,0.004085510969161987,-0.05509185791015625,0.6400421857833862,0.17906008660793304,0.14843665063381195,-0.30084728853947784,-3.0258202464554644,-2.8579092223109286
1.5912179946899414,-0.0034594982862472534,0.014526337385177612,-0.06282639503479004,0.47111865878105164,0.20029933750629425,0.15141908824443817,-0.30655191844058877,-3.024162231807102,-2.8588086320061237
1.6020691394805908,-0.021152496337890625,-0.04868340492248535,-0.06621241569519043,0.4347420036792755,0.11779008060693741,0.1575201153755188,-0.31112491169089135,-3.0228525180612738,-2.859879554334636
1.6112148761749268,-0.00990235060453415,-0.05326390266418457,-0.06669235229492188,0.6033782958984375,0.01250484585762024,0.17800578474998474,-0.31637369846162144,-3.0225636302519,-2.860978457652405
1.6213128566741943,0.013918302953243256,0.021466851234436035,-0.07241588830947876,0.899371862411499,-0.04374830797314644,0.2328980714082718,-0.3240489152163382,-3.0231486562343686,-2.862165579240516
1.6311118602752686,0.01948893815279007,0.06946787238121033,-0.11025345325469971,1.2165489196777344,-0.052777841687202454,0.30122461915016174,-0.3348891424834495,-3.0241046742826616,-2.8636559774891617
1.6413440704345703,0.017673783004283905,0.08834350109100342,-0.14830279350280762,1.5214086771011353,-0.07451749593019485,0.3731424808502197,-0.3489309572246131,-3.0253601186808106,-2.8654816542262407
1.6527879238128662,0.01927279680967331,0.07085645198822021,-0.12010979652404785,1.7806832790374756,-0.0866633728146553,0.47398993372917175,-0.36585490584229985,-3.0270249950084724,-2.867938400326217
1.6613781452178955,0.030800648033618927,0.07894241809844971,-0.06158590316772461,2.0637528896331787,-0.0961357057094574,0.5773410797119141,-0.3855234421268487,-3.0291207065475767,-2.871211608454445
1.671386957168579,0.02937622368335724,0.09632077813148499,-0.02530825138092041,2.405437469482422,-0.09062224626541138,0.6501554846763611,-0.4084077229155319,-3.031618007815508,-2.875166103336459
1.6813719272613525,0.024778611958026886,0.07271760702133179,-0.004645884037017822,2.8016319274902344,-0.11134856194257736,0.6961591839790344,-0.43506435908708274,-3.034357069579095,-2.8794374506161615
1.69144606590271,0.02542819082736969,0.054186224937438965,0.0046079158782958984,3.1363110542297363,-0.07987000793218613,0.6856410503387451,-0.4654612216878817,-3.037184202520167,-2.883653116585577
1.7031049728393555,0.02388027310371399,0.05578315258026123,0.0054534077644348145,3.3431694507598877,0.010757368989288807,0.694082498550415,-0.49863677118960936,-3.0393746295815998,-2.8876287485357364
1.711400032043457,-0.003484956920146942,0.0130423903465271,0.006354570388793945,3.288461446762085,0.1979493498802185,0.6632627248764038,-0.5324356418445935,-3.040282315063469,-2.891496144050241
1.7215111255645752,-0.012415684759616852,-0.05894345045089722,0.028419852256774902,3.2702600955963135,0.39204931259155273,0.6840729713439941,-0.5656668821551646,-3.039325555029733,-2.8954322669980956
1.7314221858978271,-0.003081090748310089,-0.06960278749465942,0.041919827461242676,3.458962917327881,0.4996925890445709,0.7242673635482788,-0.5997796264742397,-3.0371820117519204,-2.899674274899354
1.7415239810943604,0.017573922872543335,0.00962686538696289,0.04647791385650635,3.8604397773742676,0.6026362180709839,0.7727038860321045,-0.636870381547394,-3.034233323855906,-2.904088876714448
1.752722978591919,0.024280793964862823,0.07751584053039551,0.04014575481414795,4.5503973960876465,0.6973170042037964,0.8189520239830017,-0.6794180032318051,-3.0302023981464568,-2.9083039225723053
1.7615149021148682,0.025956563651561737,0.10336631536483765,0.04117077589035034,5.38471794128418,0.7349956035614014,0.8887487053871155,-0.729770914025138,-3.025475506712253,-2.9120415577867913
1.7718250751495361,0.03949002921581268,0.15661829710006714,0.061818063259124756,6.291256904602051,0.8333311676979065,0.9741748571395874,-0.7888764673587378,-3.0198524395479893,-2.915225610821885
1.7814550399780273,0.03635657578706741,0.2066197395324707,0.07802021503448486,7.33526611328125,0.8843376040458679,1.0694262981414795,-0.8577808357712066,-3.0129221982267334,-2.917630698401538
1.791783094406128,0.027896448969841003,0.22016972303390503,0.11030936241149902,8.374789237976074,0.9060063362121582,1.1402137279510498,-0.9372325803340669,-3.0047118148212197,-2.9185402616492495
1.8022170066833496,0.03532346338033676,0.24380773305892944,0.1767166256904602,9.463301658630371,1.0121004581451416,1.2301048040390015,-1.027245764735026,-2.993682847102471,-2.9168100750924992
1.8116118907928467,0.018103376030921936,0.26705414056777954,0.22035574913024902,10.593157768249512,1.0570478439331055,1.3658435344696045,-1.1285639059710648,-2.9781216018212864,-2.9110233481227037
1.821666955947876,0.011318407952785492,0.31634581089019775,0.2608666718006134,11.490187644958496,1.0648266077041626,1.4604527950286865,-1.240144053116913,-2.954299456695417,-2.896801483950416
1.8316118717193604,-0.004999082535505295,0.37551045417785645,0.35235676169395447,12.222886085510254,1.1454496383666992,1.513451099395752,-1.3594322202730025,-2.90591767194358,-2.8581418542956407
1.8418471813201904,-0.051385730504989624,0.32088524103164673,0.44186341762542725,12.677016258239746,1.216273546218872,1.44276762008667,-1.4829798083697403,-2.7193697623902513,-2.6816654973933556
1.8522610664367676,-0.09158753603696823,0.21685904264450073,0.5172058343887329,12.777582168579102,1.4862136840820312,1.356939435005188,-1.518069645644691,-0.4347491840314175,-0.40882905017585897
1.861572027206421,-0.1500573754310608,0.15553492307662964,0.5576199293136597,12.693349838256836,1.6714335680007935,1.3668190240859985,-1.3949934632008283,-0.03951811095766779,-0.027747059982770668
1.8718059062957764,-0.1804230511188507,0.1451505422592163,0.5935989618301392,12.427983283996582,1.781261920928955,1.4332447052001953,-1.2691220833614136,0.03642955360071852,0.0324377536677079
1.881756067276001,-0.17498528957366943,0.16661721467971802,0.6453756093978882,12.168112754821777,1.7988590002059937,1.4647527933120728,-1.1453800014864612,0.07467481941926563,0.053978822537072355
1.8917160034179688,-0.17898090183734894,0.16590142250061035,0.6702686548233032,11.893057823181152,1.7187734842300415,1.4446008205413818,-1.024087417074998,0.09994948414547661,0.06267995530655349
1.9021520614624023,-0.1550627499818802,0.13785159587860107,0.7043235301971436,11.615657806396484,1.611951231956482,1.3667526245117188,-0.9055583513123365,0.11842166931682861,0.06470903026354867
1.9116630554199219,-0.1436437964439392,0.1415649652481079,0.7044185996055603,11.375617980957031,1.556206226348877,1.3068649768829346,-0.7897330282835782,0.13289811136776947,0.0629328986979845
1.9217920303344727,-0.13068264722824097,0.14972883462905884,0.6699295043945312,10.882025718688965,1.4429585933685303,1.2636090517044067,-0.6773104020286312,0.1453014969399217,0.05923416264578933
1.931859016418457,-0.10785479843616486,0.14451593160629272,0.6181522607803345,10.003149032592773,1.4450657367706299,1.2027745246887207,-0.5718983038549448,0.15718328180535754,0.054843828293080626
1.9420058727264404,-0.12913082540035248,0.1058320701122284,0.5880799889564514,8.859938621520996,1.5658997297286987,1.1985374689102173,-0.4766144982163467,0.17024131875357784,0.05072624196068571
1.9530808925628662,-0.14873778820037842,-0.007937759160995483,0.5287600755691528,7.497920513153076,1.599661946296692,1.1558738946914673,-0.39378385875840527,0.1847849718032145,0.04762715949901802
1.9618480205535889,-0.12759368121623993,-0.12157642841339111,0.48538118600845337,5.946141719818115,1.6808114051818848,1.0502049922943115,-0.32552192444469724,0.20037368646747192,0.045452926289491394
1.9717910289764404,-0.1274017095565796,-0.23948854207992554,0.44389545917510986,4.4095282554626465,1.7895761728286743,0.9632096886634827,-0.2728922901337596,0.21741481924544281,0.04455666487161728
1.9817290306091309,-0.12542910873889923,-0.3195177912712097,0.3788822889328003,3.2235589027404785,1.8624272346496582,0.9285187721252441,-0.23368722744069684,0.2360692738506763,0.04526954156718564
1.9917891025543213,-0.09147964417934418,-0.3150840997695923,0.2828410267829895,2.462506055831909,1.7904714345932007,0.8538104891777039,-0.20422660655257951,0.2549130299727028,0.04712530509117962
2.002474069595337,-0.049012452363967896,-0.2503972351551056,0.19014447927474976,2.121670722961426,1.5126054286956787,0.8090334534645081,-0.180126409368621,0.2718250568027738,0.049277191598680256
2.01173996925354,0.02513808012008667,-0.19874446094036102,0.1047830581665039,2.0804030895233154,1.1997694969177246,0.7912918329238892,-0.1578185403851529,0.28586307909963093,0.05120198611276751
2.0218729972839355,0.09369191527366638,-0.07561910152435303,0.0045969486236572266,2.104613780975342,0.8077957630157471,0.7630947828292847,-0.13543521990804175,0.29608433903109405,0.052679137434286906
2.0319268703460693,0.1218051016330719,0.0334898978471756,-0.03668481111526489,1.9459621906280518,0.5586315989494324,0.6777394413948059,-0.11380453825782048,0.30290217283932996,0.053561957886782766
2.0418999195098877,0.11887133121490479,0.010272316634654999,-0.04497593641281128,1.622093915939331,0.40070775151252747,0.5905048847198486,-0.09481963149513634,0.30779781349476243,0.054254825979443554
2.0526368618011475,0.08441492915153503,-0.06909231841564178,-0.05871617794036865,1.2346669435501099,0.2419213056564331,0.44126757979393005,-0.07961339587684688,0.31102535821458627,0.054863429906783265
2.061872959136963,0.06700494885444641,-0.11130642145872116,-0.034181058406829834,0.9200599193572998,0.12077676504850388,0.2955354154109955,-0.06831448922003464,0.3128771877868507,0.05506060471650779
2.071871042251587,0.055818766355514526,-0.12262661755084991,-0.02372068166732788,0.7118851542472839,-0.04469861090183258,0.19000108540058136,-0.059872455011165136,0.31323373059617193,0.05486158278810357
2.0818469524383545,0.053765833377838135,-0.09218163788318634,-0.037603676319122314,0.5946096777915955,-0.1832333207130432,0.1320672184228897,-0.05318997742007184,0.31206007736016567,0.05435431403952569
2.0919830799102783,0.05424666404724121,-0.036694712936878204,-0.057326316833496094,0.4955953061580658,-0.2681989073753357,0.10793935507535934,-0.04762273471935741,0.30971495157316187,0.05382226348384214
2.1021580696105957,0.036727309226989746,-0.016397792845964432,-0.07348716259002686,0.38907286524772644,-0.284206360578537,0.09308850020170212,-0.043083470901230984,0.30689452890094177,0.053432874554578
2.111891031265259,0.007748633623123169,-0.03200970217585564,-0.07025259733200073,0.2851410508155823,-0.2769710123538971,0.07900805026292801,-0.03961893136475197,0.30404936051989373,0.05324782954362573
2.121936082839966,-0.018469035625457764,-0.0420810803771019,-0.0547785758972168,0.2034323513507843,-0.22671633958816528,0.08451200276613235,-0.03705414907476995,0.3015421797874164,0.053281567867338044
2.131930112838745,-0.034626275300979614,-0.037304386496543884,-0.044999122619628906,0.10965230315923691,-0.16714516282081604,0.10299588739871979,-0.03526700297864301,0.2995380270948597,0.05371842669240467
2.1422231197357178,-0.040806323289871216,-0.027484722435474396,-0.03893327713012695,0.030686113983392715,-0.07437235116958618,0.11399634182453156,-0.034281584818976106,0.2983774310260479,0.054555938006377
2.1527788639068604,-0.045103758573532104,-0.03669893369078636,-0.0275232195854187,-0.015728291124105453,0.024706562981009483,0.13056567311286926,-0.03386725779813312,0.29817558131017863,0.055714284085566376
2.1644251346588135,-0.04983794689178467,-0.03474299609661102,-0.018833398818969727,-0.02159709855914116,0.09464996308088303,0.14548470079898834,-0.03365070075567995,0.2988484043629233,0.05711033691655036
2.1770851612091064,-0.03784990310668945,-0.010183125734329224,-0.015208065509796143,-0.009061465971171856,0.11628486216068268,0.1304321587085724,-0.03338267318087699,0.2999857036204079,0.05849739279754692
2.1818301677703857,-0.03044065833091736,0.0033945515751838684,0.008895576000213623,0.00740033108741045,0.11506300419569016,0.09394737333059311,-0.03306470702211921,0.3011720604129989,0.05956441999941221
2.191751003265381,-0.03372234106063843,-0.0006316527724266052,0.03834038972854614,0.026705503463745117,0.1452416330575943,0.06921064853668213,-0.032650382430149685,0.30246408682039316,0.060279672439552213
2.2023279666900635,-0.03663942217826843,0.005150463432073593,0.03673821687698364,0.056050341576337814,0.17730475962162018,0.05940809100866318,-0.03207121055959147,0.30410867386267076,0.06077641112174905
2.2119619846343994,-0.031342118978500366,0.030226584523916245,0.01808983087539673,0.08592208474874496,0.22533726692199707,0.040462151169776917,-0.031240887728243634,0.306130491181359,0.061045855399455444
2.2219479084014893,-0.030070364475250244,0.040673837065696716,0.01269686222076416,0.12480051070451736,0.26176825165748596,0.028533317148685455,-0.030131493823485966,0.3085807108203822,0.06106879006343086
2.231956958770752,-0.034192830324172974,0.03911351040005684,0.008776545524597168,0.16080890595912933,0.2945573031902313,0.0009048861684277654,-0.028715738260761178,0.3113592023355502,0.06077648344437798
2.242029905319214,-0.03100830316543579,0.038628458976745605,0.009337127208709717,0.17096459865570068,0.31491929292678833,-0.03383098915219307,-0.027170768058082675,0.31438227046814665,0.060107036167244075
2.252218008041382,-0.028168827295303345,0.03177497908473015,0.012484908103942871,0.1658296138048172,0.33561569452285767,-0.06967857480049133,-0.0257229626711276,0.31762837254449505,0.059089969633755325
2.2620298862457275,-0.02547559142112732,0.023100364953279495,0.018778979778289795,0.15653438866138458,0.31825801730155945,-0.10267274081707001,-0.024509495054126855,0.32066450597958196,0.0577509866105315
2.271955966949463,-0.018638044595718384,0.014693927019834518,0.02851957082748413,0.1495940387248993,0.3034398853778839,-0.11928480118513107,-0.023470444256553057,0.32351861013565963,0.05618389013728433
2.282050848007202,-0.005825221538543701,0.014566075056791306,0.03292304277420044,0.16248799860477448,0.2799782454967499,-0.11971809715032578,-0.022484143755142103,0.3260925995408369,0.05454220077854678
2.2926571369171143,0.0007880926132202148,0.024467037990689278,0.029527127742767334,0.1760042905807495,0.2627767324447632,-0.10106019675731659,-0.02146355297963558,0.32846384922717753,0.052935242534592745
2.303352117538452,0.005453288555145264,0.02247229404747486,0.0132407546043396,0.1758277267217636,0.2558511793613434,-0.07925023883581161,-0.020314731758350704,0.3307665028429473,0.05150847336570324
2.312269926071167,0.008386403322219849,0.01694519817829132,-0.0031914710998535156,0.16116315126419067,0.2686847448348999,-0.05577075108885765,-0.018929330809951354,0.33336876310148794,0.05031705637877096
2.322551965713501,0.0011063218116760254,0.00865774042904377,-0.006152033805847168,0.11565291881561279,0.2887785732746124,-0.03164757043123245,-0.017756145639973818,0.3361260679336921,0.049446344849720485
2.3322908878326416,-0.007398426532745361,-0.0006411299109458923,-0.003103971481323242,0.061406996101140976,0.31713029742240906,-0.014368714764714241,-0.017014618023619688,0.33916826317023324,0.04894153975235253
2.3422038555145264,-0.016789644956588745,-0.0065762754529714584,0.005710721015930176,0.03384487330913544,0.33799484372138977,0.0005500465631484985,-0.016602046770969763,0.3424441430846198,0.04872185745970193
2.353173017501831,-0.02604997158050537,-0.0020108502358198166,0.01600569486618042,0.02696850709617138,0.3533792495727539,0.017093336209654808,-0.016293782247442996,0.34590970984117814,0.04870954594043857
2.3621509075164795,-0.03554987907409668,0.0041262246668338776,0.022114276885986328,0.043790627270936966,0.37696605920791626,0.03858557716012001,-0.015878700421325085,0.34958535438824967,0.048865090614356045
2.372187852859497,-0.046845585107803345,0.0077850185334682465,0.029985904693603516,0.06597224622964859,0.4079611301422119,0.06130697578191757,-0.01519528642015233,0.353519616692552,0.049143301573349826
2.3821940422058105,-0.05812537670135498,0.01830623485147953,0.03438436985015869,0.05984511226415634,0.46713152527809143,0.09574777632951736,-0.014317532526942577,0.35788147779008,0.04966440593342674
2.3922531604766846,-0.0646882951259613,0.01959635317325592,0.024011850357055664,0.04473124444484711,0.5404785871505737,0.13092638552188873,-0.013439317678544527,0.3629667372300931,0.05055365077748159
2.4025981426239014,-0.07730269432067871,0.008868762291967869,0.014161944389343262,0.043573301285505295,0.5952382683753967,0.13296982645988464,-0.012539636183725679,0.36869319985716936,0.05166340440207416
2.41214919090271,-0.08320295810699463,0.0033585838973522186,0.02570927143096924,0.040363606065511703,0.5959449410438538,0.10395632684230804,-0.011717352121198293,0.3746948944669621,0.05262210301324268
2.422468900680542,-0.08160015940666199,-0.011444153264164925,0.044183552265167236,0.02856234274804592,0.5832824110984802,0.07250919193029404,-0.011062894261357564,0.3806012688613185,0.05331971116710707
2.4322521686553955,-0.07546776533126831,-0.029801011085510254,0.062390923500061035,0.012005286291241646,0.5753962993621826,0.03994613513350487,-0.01066668111231742,0.38639344959906796,0.05375125048835699
2.4422638416290283,-0.07252824306488037,-0.014945813454687595,0.06817114353179932,0.014741683378815651,0.588002622127533,0.040822580456733704,-0.010414130395340778,0.3922370691727507,0.05405354398656612
2.452831983566284,-0.07034334540367126,0.0025131767615675926,0.05384087562561035,0.028990328311920166,0.5888301134109497,0.04758823662996292,-0.010044959660036388,0.39811844296493837,0.054398431285241744
2.462385892868042,-0.06005239486694336,0.008018767461180687,0.029374420642852783,0.08450445532798767,0.6036258339881897,0.061349056661129,-0.00934585719656509,0.40409206293004885,0.05466988776771125
2.4722940921783447,-0.05283010005950928,0.01653103157877922,0.008059799671173096,0.13428446650505066,0.6027445197105408,0.08461826294660568,-0.008035690797110447,0.4101639136927431,0.05489775626717985
2.482313871383667,-0.043295830488204956,0.030598437413573265,-0.01808178424835205,0.16567754745483398,0.5816336870193481,0.10084810107946396,-0.006251563340081999,0.41609231443332206,0.05516727421621399
2.4923341274261475,-0.016564995050430298,0.03206026926636696,-0.03503680229187012,0.1919521987438202,0.5475850105285645,0.0877937600016594,-0.004240386927216055,0.42178631662343785,0.05530783933853594
2.502732038497925,-0.00032579898834228516,0.02715873531997204,-0.04110842943191528,0.2152884155511856,0.45242974162101746,0.06911861151456833,-0.0020313150070682016,0.426802039437488,0.055197591500605325
2.5123109817504883,0.013716012239456177,0.018577273935079575,-0.0411340594291687,0.19777236878871918,0.3783607482910156,0.017612386494874954,5.3114608765177685e-05,0.4309412419658002,0.05471014075946843
2.5226781368255615,0.025223612785339355,0.010341571643948555,-0.04371440410614014,0.16863179206848145,0.3237289488315582,-0.01219424419105053,0.0017203678538949886,0.4344352559597876,0.053959602830606794
2.532299041748047,0.02025863528251648,0.014593839645385742,-0.06693297624588013,0.14142653346061707,0.29473426938056946,-0.04921362176537514,0.0029971726954354204,0.43752363685084317,0.053034621133326985
2.542440176010132,0.017312675714492798,0.01912638545036316,-0.08839619159698486,0.1269168257713318,0.2720140516757965,-0.05831124633550644,0.003943911529039543,0.4403751300575274,0.051953296565297194
2.5524141788482666,0.018459558486938477,0.025212500244379044,-0.10948461294174194,0.14204102754592896,0.24688933789730072,-0.04965591803193092,0.004918341753832609,0.44297375589064675,0.05090129131686132
2.562359094619751,0.0277271568775177,0.0390581376850605,-0.1174117922782898,0.17159172892570496,0.20970815420150757,-0.02665686048567295,0.0061602406942636665,0.4452859628973906,0.04986347724736056
2.57240891456604,0.04108387231826782,0.05063866078853607,-0.11000275611877441,0.19947117567062378,0.13202165067195892,-0.01047783624380827,0.00777680884122727,0.44701084482975884,0.04891743603319971
2.5824501514434814,0.0592937171459198,0.03966416418552399,-0.08582961559295654,0.20185470581054688,0.056471504271030426,-0.02928800880908966,0.009528211198110339,0.44795922370327895,0.047861967209568014
2.5924670696258545,0.06684336066246033,0.004948984831571579,-0.046508193016052246,0.17229235172271729,-0.014559883624315262,-0.047662172466516495,0.011067996198813445,0.4481738276300787,0.04669666328285794
2.602134943008423,0.06388568878173828,-0.020443040877580643,-0.020029783248901367,0.11645624041557312,-0.05256479233503342,-0.07205299288034439,0.012119526745054452,0.44782132098693184,0.04551623388984145
2.612339973449707,0.07001495361328125,-0.039257925003767014,-0.01350480318069458,0.07094894349575043,-0.07789198309183121,-0.06964922696352005,0.012637566994157383,0.4471864857657861,0.04446412901279642
2.6224701404571533,0.07599127292633057,-0.037069171667099,-0.024550914764404297,0.04911741986870766,-0.08689159899950027,-0.06292661279439926,0.012888473350477589,0.44636457629141596,0.0436151353475214
2.6323649883270264,0.0803772509098053,-0.028825383633375168,-0.03048121929168701,0.037545982748270035,-0.1026601791381836,-0.04437263309955597,0.013045116916715584,0.4454278882898807,0.042937426738319594
2.643228054046631,0.0772760808467865,-0.02416040375828743,-0.032674312591552734,0.02686617337167263,-0.11027548462152481,-0.030407283455133438,0.01317824661799207,0.44435075344523844,0.042472381705536064
2.6528589725494385,0.07528120279312134,-0.018650241196155548,-0.031141221523284912,0.0005117990076541901,-0.11312267184257507,-0.01730320043861866,0.013210505187829236,0.4432312974239395,0.04219724174817617
2.6623799800872803,0.06393581628799438,-0.023973537608981133,-0.023544013500213623,-0.04381674900650978,-0.10246407985687256,-0.012869355268776417,0.012922582264748904,0.44217453462775597,0.04214950529518146
2.67254900932312,0.05080786347389221,-0.03796787187457085,-0.01825249195098877,-0.08301408588886261,-0.10217459499835968,-0.011531703174114227,0.012279643826166737,0.44116390237681397,0.04231833112296331
2.6825149059295654,0.048882097005844116,-0.04326312616467476,-0.013989269733428955,-0.0934736505150795,-0.11431488394737244,-0.0034647220745682716,0.011439896057146261,0.4401335043146327,0.04263038948085088
2.6924431324005127,0.050460636615753174,-0.03632689267396927,-0.009982049465179443,-0.08163897693157196,-0.14717744290828705,0.003926987759768963,0.010670392142453739,0.4388741284291589,0.043009148696987756
2.7031490802764893,0.05018976330757141,-0.026094570755958557,-0.003174424171447754,-0.06999057531356812,-0.1763923168182373,0.011443760246038437,0.010053679227747706,0.43729979183867035,0.043398995429906946
2.7125279903411865,0.04786723852157593,-0.021338291466236115,0.004892170429229736,-0.06972502917051315,-0.19812940061092377,0.019700517877936363,0.009515138735711368,0.4354824222460831,0.043839559333632164
2.7225840091705322,0.03826990723609924,-0.01607232540845871,0.010869503021240234,-0.07675657421350479,-0.20326051115989685,0.027411967515945435,0.00899800383256855,0.4335451059593644,0.04436740686786696
2.7326018810272217,0.02531576156616211,-0.016965121030807495,0.02176487445831299,-0.090578094124794,-0.19980785250663757,0.0312071330845356,0.008395097356658087,0.4316259443419624,0.04498236842275035
2.7426679134368896,0.011703073978424072,-0.019552279263734818,0.033208489418029785,-0.10758157819509506,-0.18857890367507935,0.03938383609056473,0.007700004491230743,0.4298118017358825,0.045719052205231335
2.752709150314331,0.002509891986846924,-0.020983170717954636,0.03482609987258911,-0.12182968854904175,-0.16952869296073914,0.04184779152274132,0.006925225314810755,0.4281729225078202,0.046578763167304284
2.762593984603882,-0.008056163787841797,-0.02411450445652008,0.0397987961769104,-0.1322607547044754,-0.15511088073253632,0.04906708747148514,0.006128463939621971,0.4267529342943131,0.04752435681625943
2.772763967514038,-0.018080562353134155,-0.0211652684956789,0.04510998725891113,-0.14268185198307037,-0.1275528222322464,0.04638677462935448,0.005217216038055017,0.42554334778751474,0.048523770933185974
2.782594919204712,-0.021962612867355347,-0.019699005410075188,0.04753267765045166,-0.1422799676656723,-0.11289213597774506,0.043315086513757706,0.004181023106871275,0.42452637315907865,0.04952735659620043
2.792541980743408,-0.02595105767250061,-0.016306836158037186,0.0510440468788147,-0.13374094665050507,-0.08905347436666489,0.03962650150060654,0.003163396822069569,0.4236773171103646,0.05047346487854403
2.803164005279541,-0.025408536195755005,-0.007589938584715128,0.04673033952713013,-0.11658912152051926,-0.054368458688259125,0.05132896453142166,0.0022672545867886283,0.42311460836016956,0.051413892690213646
2.8125998973846436,-0.020556718111038208,0.006983114872127771,0.026869237422943115,-0.09969537705183029,-0.02133767306804657,0.06054573878645897,0.0015815193955334918,0.42288027284277174,0.052380219996573586
2.8226778507232666,-0.018930763006210327,0.01946035400032997,0.010122716426849365,-0.08154034614562988,0.0059038023464381695,0.06289304792881012,0.0011040433749456883,0.4229375508996537,0.053320991201835755
2.8327410221099854,-0.022220760583877563,0.023259827867150307,0.0028205513954162598,-0.07619775831699371,0.02010471001267433,0.049418944865465164,0.0007226126798447489,0.4231819493347844,0.054159367791199176
2.8428499698638916,-0.026916205883026123,0.01974140666425228,0.002363264560699463,-0.08135657012462616,0.026809750124812126,0.027945877984166145,0.000286463423007776,0.42347840535449854,0.05484443174715583
2.853031873703003,-0.026864290237426758,0.017547139897942543,0.004995584487915039,-0.09105414897203445,0.021856315433979034,0.005507574416697025,-0.0003208859539412903,0.42375627474134797,0.05534670617288368
2.862962007522583,-0.023743778467178345,0.018637703731656075,-0.0005704760551452637,-0.1034221351146698,0.012790648266673088,-0.016596131026744843,-0.0011376713228350333,0.423932196865773,0.055698248095143336
2.872745990753174,-0.019250214099884033,0.019362052902579308,-0.009614348411560059,-0.10737760365009308,0.0037464643828570843,-0.0329698845744133,-0.0021223145279981935,0.4239916965132746,0.055905551300395824
2.8827199935913086,-0.013989746570587158,0.02370288036763668,-0.021956562995910645,-0.0985574796795845,-0.004267520271241665,-0.034800007939338684,-0.0031678373351281533,0.4239803946339925,0.05602559543607041
2.8928840160369873,-0.010115504264831543,0.030149418860673904,-0.03725641965866089,-0.08258236944675446,-0.013144191354513168,-0.038496583700180054,-0.004152341093350538,0.4238497071264865,0.05606699755325623
2.902928113937378,-0.0073674023151397705,0.03138517588376999,-0.04441499710083008,-0.07129509747028351,-0.02994154579937458,-0.038088053464889526,-0.0050833387041224,0.4235486537065069,0.056023543501475474
2.9128570556640625,-0.005024850368499756,0.0308089479804039,-0.047077715396881104,-0.0713128075003624,-0.04537980258464813,-0.04158893972635269,-0.005964760827849366,0.42307353792566704,0.05595492660047683
2.9229049682617188,-0.0074568986892700195,0.02710222266614437,-0.043453752994537354,-0.07659678906202316,-0.059590693563222885,-0.049425821751356125,-0.006879143082433268,0.42244681489830427,0.05584025797328405
2.9329800605773926,-0.009121835231781006,0.017424674704670906,-0.03747963905334473,-0.0848407968878746,-0.07518980652093887,-0.059649962931871414,-0.007889725908823246,0.4216658931126613,0.05567357744181381
2.9430510997772217,-0.011315107345581055,0.00952179916203022,-0.032618939876556396,-0.08045803010463715,-0.09393765777349472,-0.06424231827259064,-0.008971964886188863,0.42072922847665956,0.05543289321468095
2.9535439014434814,-0.00952252745628357,0.00892188772559166,-0.033642709255218506,-0.06553925573825836,-0.10919549316167831,-0.06878519803285599,-0.009983906327537906,0.4195890260704695,0.055114803131148575
2.9630720615386963,-0.002864271402359009,0.009355567395687103,-0.034016430377960205,-0.054442398250103,-0.12692680954933167,-0.0679449662566185,-0.010938830129863174,0.4182345283804049,0.05472692345172344
2.972954034805298,-0.0026842057704925537,0.008298996835947037,-0.03126710653305054,-0.056731268763542175,-0.1339724212884903,-0.06823418289422989,-0.011873386394474593,0.41677354670909156,0.054319901350478775
2.9829399585723877,-0.007178008556365967,-0.0016846517100930214,-0.024739563465118408,-0.0655021220445633,-0.1343173086643219,-0.06989333778619766,-0.01285442977296463,0.4153192302016781,0.05392703845312465
2.993016004562378,-0.010521858930587769,-0.008784795179963112,-0.018087565898895264,-0.06973899900913239,-0.12681424617767334,-0.06728098541498184,-0.013866401542933742,0.41392699964877355,0.05357440149562518
3.0035688877105713,-0.01116180419921875,-0.011213291436433792,-0.016169846057891846,-0.06384702026844025,-0.11900400370359421,-0.05831358954310417,-0.014830155137209384,0.41261569578253743,0.05327249069608066
3.012982130050659,-0.014056861400604248,-0.012348278425633907,-0.01424473524093628,-0.0523991696536541,-0.11189881712198257,-0.04874927178025246,-0.015614282652546831,0.41140066228515687,0.05301492079670967
3.02367901802063,-0.014013230800628662,-0.008160000666975975,-0.012075245380401611,-0.042820047587156296,-0.11032622307538986,-0.037420183420181274,-0.01621734097139419,0.4102253502105584,0.05281078131948716
3.0330159664154053,-0.013311684131622314,-0.009623249992728233,-0.007072567939758301,-0.04713216796517372,-0.10478240996599197,-0.03221098706126213,-0.01678040098789121,0.40909841197887126,0.052672692622412406
3.0429909229278564,-0.009529471397399902,-0.01667872443795204,0.003023386001586914,-0.05321456119418144,-0.11294899135828018,-0.03742865100502968,-0.017381492325473123,0.407974172448844,0.05255440080800736
3.053330183029175,-0.009403377771377563,-0.02188478223979473,0.016068100929260254,-0.05674881115555763,-0.11383263021707535,-0.04247688874602318,-0.01805579266829867,0.4067948440273493,0.05240676195481402
3.0629730224609375,-0.011112123727798462,-0.02350115031003952,0.021426618099212646,-0.047864772379398346,-0.11172553896903992,-0.041851844638586044,-0.018665185011432273,0.4056032373849966,0.05223659587220773
3.07293701171875,-0.011216163635253906,-0.018390310928225517,0.016764700412750244,-0.02548912540078163,-0.10807398706674576,-0.036420486867427826,-0.019017052509898286,0.40440746312837295,0.05202285835732767
3.082988977432251,-0.01125633716583252,-0.011768892407417297,0.012693524360656738,-0.007283490151166916,-0.09284336864948273,-0.03207740560173988,-0.019140043558393348,0.403307051429508,0.051771025843060106
3.093234062194824,-0.009856939315795898,-0.009623656049370766,0.011178135871887207,0.01118466630578041,-0.07268732041120529,-0.024428699165582657,-0.01906999106010249,0.4023490782204473,0.0514993363443682
3.1034140586853027,-0.007696390151977539,-0.012642376124858856,0.00928044319152832,0.023440267890691757,-0.05834673345088959,-0.01782858744263649,-0.018884333886740164,0.401591482950469,0.051239752889583254
3.1132969856262207,-0.0033652186393737793,-0.01401488296687603,0.011881589889526367,0.03128703683614731,-0.050172869116067886,-0.016071060672402382,-0.018578314961373254,0.4009615807468879,0.050974575412815415
3.1232759952545166,0.00209924578666687,-0.015449846163392067,0.018153071403503418,0.02824118174612522,-0.03990904614329338,-0.01266035158187151,-0.018182157895196366,0.4005090140736228,0.05071339623360433
3.1331751346588135,0.007651090621948242,-0.015866748988628387,0.01883876323699951,0.021859997883439064,-0.03452116250991821,-0.005449469201266766,-0.01775975935539092,0.4001769251492242,0.050535208635203444
3.1435258388519287,0.018193542957305908,-0.013835292309522629,0.014704704284667969,0.015281989239156246,-0.03335842490196228,0.0015655632596462965,-0.017360931464742806,0.3998772114246031,0.0504449512761796
3.153414011001587,0.024109601974487305,-0.014394611120223999,0.014608442783355713,0.008132168091833591,-0.03681175038218498,0.010229039005935192,-0.01706571439365979,0.39954844061100425,0.05045375706053716
3.163053035736084,0.022546708583831787,-0.013912366703152657,0.016835510730743408,-0.01002286747097969,-0.04388563707470894,0.015515148639678955,-0.016934398943305375,0.3991238717694081,0.05057462301771275
3.173081159591675,0.02138081192970276,-0.011436419561505318,0.017218828201293945,-0.03286874294281006,-0.040841244161129,0.017000604420900345,-0.017006679831217664,0.39868399895017126,0.050804794788152356
3.183716058731079,0.019167780876159668,-0.011515391990542412,0.020148813724517822,-0.04339355602860451,-0.03411729633808136,0.024689683690667152,-0.017192494970235252,0.3983216053109829,0.051146776262026024
3.1931350231170654,0.012882083654403687,-0.0069960784167051315,0.017988085746765137,-0.034901104867458344,-0.033325448632240295,0.030415372923016548,-0.017357651776343238,0.398023799937815,0.051553612444237056
3.2036020755767822,0.009783953428268433,0.0030326470732688904,0.01496034860610962,-0.02349664829671383,-0.02144535258412361,0.03992951661348343,-0.01738447487961023,0.39784253931702956,0.05198437473414774
3.213191032409668,0.010901600122451782,0.008799156174063683,0.012062907218933105,-0.01260123960673809,-0.01772007718682289,0.044729918241500854,-0.01724843835392148,0.3978043691806222,0.05244580629341273
3.223296880722046,0.010965734720230103,0.008973395451903343,0.013120889663696289,-0.017546463757753372,-0.009821675717830658,0.03911304473876953,-0.017089433362420543,0.39791573226327204,0.05289039549536414
3.233173131942749,0.00897487998008728,0.005631806328892708,0.020648181438446045,-0.01656588725745678,-0.013066649436950684,0.028738753870129585,-0.01698252391909523,0.39810486275335866,0.053280597992820186
3.2432968616485596,0.00942113995552063,0.002757413312792778,0.028357326984405518,-0.0186772421002388,-0.018658488988876343,0.016291406005620956,-0.016927221990959543,0.3982163163612979,0.05355585513406889
3.253718137741089,0.008066177368164062,0.005536796525120735,0.03577810525894165,-0.0247487835586071,-0.013258395716547966,0.011402800679206848,-0.01698597697515686,0.39827963605439565,0.0537703800939637
3.2633678913116455,0.003806591033935547,0.013192294165492058,0.03320622444152832,-0.02161797136068344,-0.0004166336730122566,0.010404115542769432,-0.01708196032694644,0.3984153839904327,0.05398068597984213
3.273671865463257,0.0010381042957305908,0.014198658987879753,0.02621704339981079,-0.009857451543211937,0.006305362563580275,0.01327122189104557,-0.017143720847332213,0.3985720351446362,0.05414601918376181
3.283205986022949,-0.0005431771278381348,0.01753971166908741,0.024374663829803467,0.004221615381538868,0.019013168290257454,0.013306907378137112,-0.01714434262764805,0.3987977464682305,0.05427693330347592
3.293246030807495,-0.0011466443538665771,0.02274446189403534,0.023731231689453125,0.011240060441195965,0.02753923460841179,0.00976607482880354,-0.01708179309079959,0.3991210976610499,0.05435122992829061
3.303462028503418,-0.0062954723834991455,0.022494444623589516,0.025650382041931152,0.011581477709114552,0.03788002207875252,0.0014948294265195727,-0.01701136902568492,0.39952532626686543,0.05435655028312541
3.3132379055023193,-0.011873990297317505,0.019989999011158943,0.02682340145111084,0.01181575283408165,0.05718159303069115,-0.006882303394377232,-0.016952326110726938,0.4000814623092638,0.05428709605665791
3.3232879638671875,-0.018435418605804443,0.01904146745800972,0.02210104465484619,0.0260266475379467,0.06904570758342743,-0.011210473254323006,-0.016832731949074482,0.40080994075303883,0.05413788368638655
3.3332719802856445,-0.02009156346321106,0.018695399165153503,0.015435457229614258,0.051854249089956284,0.06932924687862396,-0.01341588981449604,-0.0165531504097775,0.401595989309545,0.05386700204129602
3.3434078693389893,-0.016849040985107422,0.01927005499601364,0.008563339710235596,0.07324822247028351,0.06527192145586014,-0.013251572847366333,-0.01608524177730778,0.4023306215886194,0.053493151581982396
3.353480100631714,-0.011430025100708008,0.02030349336564541,0.004789173603057861,0.07182320207357407,0.0616617389023304,-0.015643304213881493,-0.01552475682079847,0.4029879943249829,0.05306550944575144
3.363537073135376,-0.008471041917800903,0.016155067831277847,0.0012156963348388672,0.054951004683971405,0.06450572609901428,-0.013257377780973911,-0.015080229616546917,0.4036335260268119,0.05269266431036904
3.3737618923187256,-0.0073840320110321045,0.008110230788588524,-0.006005764007568359,0.044158875942230225,0.0605827160179615,-0.008653039112687111,-0.01479374075689606,0.4042750020574359,0.0523942790702854
