timestamp,accel_x,accel_y,accel_z,rotation_x,rotation_y,rotation_z, pitch,roll,yaw
0.04294991493225098,-0.0029982104897499084,0.009742392227053642,0.01414865255355835,0.018314676359295845,-0.006837849505245686,-0.003606119891628623,0.015922921041052456,0.0801665714591836,-0.0006385985581594087
0.05675387382507324,-0.0031276121735572815,0.008222747594118118,0.01484912633895874,0.00702312309294939,0.005407852586358786,-0.007989789359271526,0.01605123853109138,0.08015878313982726,-0.0007060100466504264
0.07263684272766113,-0.006754033267498016,-0.0004324577748775482,0.01648867130279541,-0.003551756963133812,0.01320638693869114,-0.010414332151412964,0.016063029300178024,0.08026078582029748,-0.0008103180154661264
0.07453298568725586,-0.009518913924694061,-0.003398079425096512,0.020201146602630615,-0.0024842622224241495,0.014705214649438858,-0.012367228046059608,0.016027088646955814,0.0804015799814771,-0.0009315861730970014
0.0760049819946289,-0.00544217973947525,-0.00043166428804397583,0.01739680767059326,0.0026636281982064247,0.014702551066875458,-0.011213013902306557,0.01601804038608804,0.08055203050499164,-0.0010587117756467102
0.0807180404663086,-0.0029473304748535156,0.003341780975461006,0.012741684913635254,0.011443771421909332,0.02297557145357132,-0.007114089094102383,0.016083608837340158,0.08074345587873227,-0.0011526494414160293
0.089385986328125,-0.004435919225215912,0.0055818986147642136,0.011042535305023193,0.021799473091959953,0.019828248769044876,-0.0011901534162461758,0.016248552777747175,0.08096653995479798,-0.0012063333276963655
0.09913802146911621,-0.00429922342300415,0.004663150757551193,0.010184407234191895,0.024632658809423447,0.016483096405863762,-0.004888751544058323,0.016489507587178917,0.08115123337482812,-0.0012572644001399033
0.10919404029846191,-0.0029469579458236694,0.0073343850672245026,0.00996631383895874,0.027529112994670868,0.01718483865261078,-0.007501845248043537,0.016749886897953353,0.08134110387124004,-0.001346872718685864
0.12044095993041992,-0.003974653780460358,0.005902443081140518,0.0076937079429626465,0.01789136789739132,0.009305255487561226,-0.016135919839143753,0.016981186770448128,0.08146929288256292,-0.0014815167656795265
0.12929511070251465,-0.005107402801513672,0.0033416692167520523,0.00968325138092041,0.0011861561797559261,0.008949456736445427,-0.02315148524940014,0.017075456397120044,0.08156490690556822,-0.0016976285334535963
0.13919615745544434,-0.0039013028144836426,0.0022080037742853165,0.00802922248840332,-0.014262408018112183,0.008576259948313236,-0.027612600475549698,0.016994634062704336,0.0816560041890264,-0.0019388184988459306
0.14947104454040527,-0.0070677250623703,0.0014497451484203339,0.0052793025970458984,-0.0228420477360487,0.007077433168888092,-0.03191360458731651,0.016785664099449926,0.08174015869244938,-0.002210327325959467
0.1595008373260498,-0.006730303168296814,0.0013441834598779678,0.0052790045738220215,-0.025391625240445137,0.003873827401548624,-0.0340690091252327,0.016512215160461082,0.08179929550484638,-0.0025195602558091557
0.17047500610351562,-0.005064085125923157,0.0015265606343746185,0.00797957181930542,-0.026596440002322197,0.005983317270874977,-0.030852176249027252,0.016236790672748053,0.08185716045656118,-0.002824676928122851
0.179520845413208,-0.006287388503551483,0.00080825574696064,0.008725285530090332,-0.022537415847182274,0.009864164516329765,-0.029513616114854813,0.015960954817404126,0.08193595569425251,-0.0031006267653532877
0.18928790092468262,-0.005774699151515961,0.00042184721678495407,0.00553971529006958,-0.0065944017842411995,0.01824859529733658,-0.023499399423599243,0.015543980543149908,0.0819721748496714,-0.0033672287846108176
0.1993880271911621,-0.004280388355255127,-0.0005567502230405807,0.004030466079711914,0.023098444566130638,0.009759857319295406,-0.015529677271842957,0.015450378283950331,0.0819731156994915,-0.0035683284006570015
0.20929598808288574,-0.003397643566131592,0.003268228843808174,0.002784907817840576,0.04387616366147995,0.0043384600430727005,-0.014585320837795734,0.01572009282803393,0.08185322583996035,-0.003742829481137738
0.22071099281311035,-0.0007073283195495605,0.0063229817897081375,0.004083871841430664,0.036799460649490356,0.005685265641659498,-0.012926437892019749,0.016089344943356475,0.08175705791362928,-0.0039062198809961864
0.2294471263885498,-0.0037812963128089905,-0.004102922976016998,0.002109527587890625,0.01907266303896904,0.010889082215726376,-0.01208967249840498,0.016329367220113713,0.08159592133193982,-0.0040415146016242335
0.23934102058410645,-0.005268789827823639,-0.015567436814308167,0.004663944244384766,0.0021038982085883617,0.01645073853433132,-0.013506634160876274,0.01636998441550574,0.0815115217508026,-0.004176795463814767
0.24933886528015137,-0.003040790557861328,-0.015856288373470306,0.0062378644943237305,-0.0010218539973720908,0.008944086730480194,-0.011706337332725525,0.016310004975698466,0.08149590483739536,-0.004299807559457622
0.2595188617706299,-0.0012526288628578186,-0.010611295700073242,0.0038074254989624023,0.002704773796722293,0.002329770941287279,-0.01383175328373909,0.016260194855020525,0.08137046577608323,-0.004424858530358481
0.2704908847808838,0.0005843192338943481,-0.00990154780447483,0.002752363681793213,0.0055314525961875916,-0.002160318661481142,-0.008975745178759098,0.016252775614612077,0.08121142925515892,-0.0045402182234329696
0.279404878616333,0.0005531534552574158,-0.008347861468791962,0.0011901259422302246,0.0029122508130967617,0.0003479798324406147,-0.007878096774220467,0.01628058898545306,0.08108962532480997,-0.004626032107716194
0.28943610191345215,-0.0014265477657318115,-0.007654234766960144,-0.0011683106422424316,0.0058502499014139175,0.001054250169545412,-0.0036394097842276096,0.016196005422049874,0.08102431435002658,-0.00469123851437178
0.29935598373413086,-0.0011430606245994568,-0.010540055111050606,-0.00034308433532714844,0.012973573990166187,-0.002176874317228794,0.0021057212725281715,0.016087270776496406,0.08103061707825755,-0.004705635547881148
0.3094789981842041,-0.000687718391418457,-0.009344352409243584,-0.0002449154853820801,0.011728545650839806,-0.0036163129843771458,0.0013126319972798228,0.016352221897055038,0.08089560453560432,-0.0047018511032225286
0.32050395011901855,-0.00037126243114471436,-0.007001793012022972,0.0019683241844177246,0.008936388418078423,0.0008229990489780903,0.007261761464178562,0.016955364467866774,0.08076260937503224,-0.004664473711570919
0.32944703102111816,0.00028393417596817017,-0.008489737287163734,0.0019638538360595703,0.0031240389216691256,-0.0008939406834542751,0.0067562926560640335,0.01749691664070556,0.08070304565962726,-0.004595688469129121
0.3396029472351074,0.0004580691456794739,-0.007568607106804848,0.00223541259765625,0.005579107441008091,-0.0037958105094730854,0.005469666328281164,0.017838266278044235,0.08066661603623619,-0.004542192127185808
0.34972500801086426,0.002567015588283539,-0.005369352176785469,0.00475001335144043,0.0073098959401249886,-0.010661173611879349,0.0024136891588568687,0.018160743208151166,0.08063321456823162,-0.004499809059954921
0.3608739376068115,0.001031242311000824,-0.0028540361672639847,0.007619082927703857,0.007988535799086094,-0.009022707119584084,3.2621901482343674e-06,0.018433060957985407,0.08056698071109625,-0.00449276347342807
0.37023401260375977,-0.0003327280282974243,-0.0022821836173534393,0.007226347923278809,0.00625108927488327,-0.0056173233315348625,-0.0019903802312910557,0.018654001264840885,0.08046609886010782,-0.004515611607347105
0.37965989112854004,-0.0013704076409339905,-0.0006191432476043701,0.003972947597503662,0.010091783478856087,0.002265145070850849,-0.0038018091581761837,0.01895906112942997,0.08043601948951278,-0.004567151430448678
0.38970303535461426,-0.003390580415725708,-0.0019188709557056427,0.004803776741027832,0.021158548071980476,0.0027423836290836334,-0.002293661003932357,0.019307346784492786,0.08045789739761423,-0.004610621815402318
0.39969396591186523,-0.002020999789237976,-0.0004714466631412506,0.0053594112396240234,0.027767766267061234,0.002210594480857253,-0.0006593854632228613,0.019686727087368686,0.08047753128558097,-0.004639175800926155
0.40972113609313965,-0.0014898478984832764,0.0027828793972730637,0.00673598051071167,0.026999976485967636,0.00018898909911513329,-0.001190952374599874,0.02014879044593958,0.08051182277213448,-0.004667258115968539
0.4210851192474365,-0.0009118616580963135,0.00027697160840034485,0.007578611373901367,0.02246369794011116,0.003750390140339732,-0.0016410266980528831,0.02054213537681221,0.08056025275267074,-0.0047126099924329765
0.4297189712524414,-0.002180144190788269,-0.0026454757899045944,0.007962286472320557,0.015072626993060112,-0.0002970821224153042,-0.007213957607746124,0.020808828407189815,0.08065437714532843,-0.0047724412044072234
0.439831018447876,-0.0020264387130737305,-0.002073913812637329,0.008810460567474365,0.00925758108496666,0.0017310038674622774,-0.009348480962216854,0.020937913679487188,0.08069941116785043,-0.004871004621325882
0.4497091770172119,-0.0018810182809829712,-0.001078987494111061,0.008042454719543457,0.012373214587569237,0.004086569882929325,-0.007886405102908611,0.02103259176642246,0.08073738709568043,-0.004960591299137244
0.4599189758300781,-0.00241059809923172,-0.0012030750513076782,0.008363842964172363,0.014197646640241146,-0.001943092793226242,-0.010693537071347237,0.0211221487317082,0.08070242613406504,-0.005056950119209143
0.4709651470184326,-0.0022493600845336914,0.002034490928053856,0.01154249906539917,0.016306335106492043,-0.0009883497841656208,-0.007924648933112621,0.021277470365408155,0.08060213160701969,-0.005170196128780938
0.479902982711792,-0.0009189695119857788,0.004054835066199303,0.011528730392456055,0.01255783811211586,0.0014746296219527721,-0.005955880507826805,0.021390496250808973,0.08055351188973688,-0.0052434329035537085
0.48999595642089844,-0.00193796306848526,0.0017131567001342773,0.007043063640594482,0.008617423474788666,0.003613147884607315,-0.0029265345074236393,0.02138340977569764,0.08055014101549789,-0.005298400441372425
0.5002679824829102,-0.002825140953063965,0.00035361386835575104,0.00656735897064209,0.009697702713310719,0.0004758564755320549,-0.0027756933122873306,0.0214429508131129,0.08056773416122785,-0.00533315987444402
0.5100438594818115,0.001302666962146759,0.005089189857244492,0.006614387035369873,0.00916560273617506,-0.002881058491766453,-0.00614006444811821,0.021585661345273472,0.08051408278868974,-0.005378658628751514
0.5221121311187744,0.0020167529582977295,0.006913667544722557,0.00884711742401123,0.0031968930270522833,-0.008163882419466972,-0.009405898861587048,0.021685921161942467,0.08042547278335502,-0.0054645787841411
0.5297620296478271,0.0011430159211158752,0.0009876172989606857,0.011054694652557373,-0.012589526362717152,-0.011220658197999,-0.015130363404750824,0.021649753878889667,0.08030691227284552,-0.005579250079122508
0.5400309562683105,0.0003293231129646301,-0.00281715951859951,0.014562427997589111,-0.02612217888236046,-0.006504644174128771,-0.01885458081960678,0.021461265209995313,0.08018908966855162,-0.005737164252302686
0.5499000549316406,8.634477853775024e-05,-0.004066703841090202,0.014941990375518799,-0.028133131563663483,-0.006551515776664019,-0.016779180616140366,0.021127171807262837,0.08011079267373834,-0.0058947441154407745
0.5599038600921631,-0.0025491714477539062,-0.0028936341404914856,0.01522594690322876,-0.02401532046496868,-8.394056931138039e-05,-0.014897284097969532,0.020759023362112536,0.0800905950651675,-0.006027494841696072
0.5712440013885498,-0.0037810802459716797,-0.0010069720447063446,0.015229940414428711,-0.015532885678112507,0.00634413119405508,-0.011083903722465038,0.020524665359023368,0.08010144575581953,-0.006139429634517865
0.5803730487823486,-0.003804825246334076,0.0017264168709516525,0.013422250747680664,0.0046242475509643555,0.017007693648338318,-0.0007576029165647924,0.020480942973872786,0.0802017586312031,-0.006200880115123622
0.5899460315704346,-0.0046489909291267395,0.0012549888342618942,0.008476316928863525,0.021353159099817276,0.016286244615912437,0.0046006771735847,0.02052832677345888,0.08040583255925547,-0.0061850560925175825
0.599998950958252,-0.0012376680970191956,0.00460965558886528,0.006716549396514893,0.03873816132545471,0.01019439660012722,0.013861500658094883,0.020709203346080205,0.0806118556660341,-0.006126972977868015
0.6100308895111084,0.002332814037799835,0.005492892116308212,0.005432546138763428,0.030070899054408073,0.006411376409232616,0.013654040172696114,0.021073722472007346,0.0807350395389685,-0.006006032676790026
0.6206409931182861,0.004659198224544525,-0.004849525168538094,0.009358465671539307,-0.0005248580127954483,0.0043776086531579494,0.008808685466647148,0.021320956731081815,0.08080494663988036,-0.0059001901360828
0.6301038265228271,0.0037198886275291443,-0.011962316930294037,0.01242208480834961,-0.029154639691114426,0.002305669477209449,0.0015835288213565946,0.021272972883686497,0.0808593608061187,-0.005833570766007528
0.6400599479675293,0.003540046513080597,-0.017856163904070854,0.01310431957244873,-0.0467807836830616,-0.0026005394756793976,-0.006583746988326311,0.020948513480309666,0.08080959701075834,-0.0058330291246855666
0.6500298976898193,0.005247436463832855,-0.012655600905418396,0.012159883975982666,-0.045497141778469086,-0.0011789435520768166,-0.010243196971714497,0.0204879671940886,0.08071854993316252,-0.005886156614461683
0.6600170135498047,0.0031802132725715637,-0.0033861249685287476,0.00839167833328247,-0.025380272418260574,-0.0014679408632218838,-0.003477169666439295,0.020098548893742175,0.08061804112142945,-0.0059124160061733745
0.6706311702728271,0.0025468170642852783,0.004002802073955536,0.0014153718948364258,-0.004101616330444813,-0.0009811148047447205,0.00655788742005825,0.01994960388832514,0.08050312484038404,-0.0058866271952008305
0.680030107498169,0.0028286874294281006,0.009169384837150574,-0.0014666318893432617,0.005045309662818909,0.00300004449672997,0.011088243685662746,0.01988240983909612,0.08049577740564318,-0.005804954864414208
0.6900589466094971,0.002224057912826538,0.007495522499084473,-0.0012472271919250488,0.0007552236784249544,0.00804140791296959,0.014014525339007378,0.019825964505644014,0.08062773960360821,-0.005685219771690411
0.69999098777771,0.002037644386291504,-0.0007966142147779465,-0.00030517578125,-0.007311408407986164,0.006411952897906303,0.009792083874344826,0.019971971311350915,0.08083035678027167,-0.005560610048741073
0.710158109664917,0.002125971019268036,-0.004813501611351967,0.0032164454460144043,-0.014989567920565605,0.006397572346031666,0.002702216152101755,0.020197071013220127,0.08100239354072958,-0.005499130616763969
0.7205510139465332,0.004098355770111084,-0.00466848723590374,0.00441741943359375,-0.014608935452997684,0.004571619909256697,-1.0160147212445736e-05,0.020509997752173506,0.08116732641279936,-0.0054651674619474325
0.7300770282745361,0.00400959700345993,-0.0050640832632780075,0.0021434426307678223,-0.014121044427156448,-0.0012617679312825203,-0.0014615829568356276,0.02067901367845683,0.0813179314631622,-0.005467649506877336
0.740095853805542,0.006016761064529419,-0.004382943734526634,0.0006610751152038574,-0.006941394880414009,-0.00358439888805151,-0.00039818265940994024,0.02064297824155136,0.08135551069123576,-0.0054666470831454496
0.7500929832458496,0.007366277277469635,-0.0015404727309942245,0.0005740523338317871,0.0015426368918269873,-0.009677978232502937,0.003829851746559143,0.020509959228284674,0.08133321523077747,-0.005447203794247989
0.7601821422576904,0.00466001033782959,-0.005356794223189354,0.0020017623901367188,0.00442021619528532,-0.009142239578068256,0.0010031727142632008,0.020309929804699367,0.08127710638237472,-0.005423112251789158
0.7705249786376953,0.0022067800164222717,-0.006178567185997963,0.004815459251403809,0.00033652479760348797,-0.0044968873262405396,0.003124646842479706,0.020144250174661843,0.0812427712990684,-0.0053996490962407795
0.7801179885864258,1.8738210201263428e-05,-0.00676039420068264,0.0055291056632995605,0.0030360547825694084,0.004494787659496069,0.004374787677079439,0.02017278001665752,0.08127948922077796,-0.00536493750303797
0.7901809215545654,-0.004517227411270142,-0.00716293603181839,0.0049054622650146484,0.017172379419207573,0.007991785183548927,0.006893339101225138,0.02038063474147698,0.08139115040919882,-0.005322194851960706
0.8002209663391113,-0.00582575798034668,-0.00487765297293663,0.004916012287139893,0.033697474747896194,0.0034872698597609997,0.00964470487087965,0.02075864656225874,0.08154117095774037,-0.005256110793982401
0.8102829456329346,-0.005053326487541199,0.0009887665510177612,0.005140841007232666,0.03691057860851288,0.0022899124305695295,0.012663397938013077,0.021238819960830636,0.08165497811716799,-0.005165522830799696
0.8208539485931396,-0.003612630069255829,-0.0005235243588685989,0.00404810905456543,0.03829840570688248,0.004946016240864992,0.017502574250102043,0.02171028109037024,0.08183317259174001,-0.005042122190230293
0.8302860260009766,-0.004506334662437439,-0.004176104441285133,0.00399470329284668,0.04492168873548508,-0.005371070001274347,0.017919624224305153,0.022147162475726387,0.08199582181709883,-0.004898620498954254
0.8430230617523193,-0.003512084484100342,0.000300578773021698,0.0075792670249938965,0.06502440571784973,-0.0077168261632323265,0.017803991213440895,0.022778790467741603,0.08202517864580174,-0.0047732863395887485
0.8503291606903076,-0.0009284541010856628,0.006811123341321945,0.005981385707855225,0.08773265033960342,-0.021999359130859375,0.019952362403273582,0.023643816692980216,0.0819147167342045,-0.004641857292531795
0.8603789806365967,-0.0015240982174873352,0.012572331354022026,0.003381967544555664,0.10356337577104568,-0.02402495965361595,0.020897943526506424,0.02469036244780434,0.08167231319845808,-0.004516552754871932
0.8706939220428467,-0.002979859709739685,0.013412818312644958,0.0062749385833740234,0.1261829286813736,-0.016707390546798706,0.027708977460861206,0.025897445879967507,0.0813747192238337,-0.004374149843871034
0.8802931308746338,-0.005601651966571808,0.013943720608949661,0.0053746700286865234,0.179619699716568,-0.020457834005355835,0.03337927535176277,0.027405447518672382,0.08106896502298627,-0.004185122834912811
0.8903210163116455,-0.006877109408378601,0.025562360882759094,0.0028982162475585938,0.2811737358570099,-0.024013418704271317,0.04739629104733467,0.02951871701292761,0.08076123039917113,-0.003982404781790416
0.9002590179443359,-0.0025636255741119385,0.042782485485076904,-0.001610100269317627,0.3988422751426697,-0.044224813580513,0.07008328288793564,0.0327481016498666,0.08036060043046367,-0.0036685509358110615
0.9102699756622314,0.0018237903714179993,0.06377692520618439,-0.00983196496963501,0.5265573263168335,-0.06962525099515915,0.08284887671470642,0.037235275581607066,0.07970638778427233,-0.0032565273844516606
0.9208271503448486,0.0072555094957351685,0.07479168474674225,-0.00878077745437622,0.5913747549057007,-0.0663042888045311,0.08528007566928864,0.04251694030974447,0.0790035525097773,-0.002873817609299769
0.9302639961242676,-0.002080671489238739,0.06357306241989136,-0.003266453742980957,0.615949273109436,-0.07754309475421906,0.07810312509536743,0.0479817697960574,0.07831604771312001,-0.002510185521793264
0.9401881694793701,-0.0013241022825241089,0.048906415700912476,0.0010761022567749023,0.6001956462860107,-0.08054447174072266,0.050376422703266144,0.05320401362099139,0.07756151988888314,-0.0023503071636914712
0.9502499103546143,-0.0007334798574447632,0.027050502598285675,0.009589910507202148,0.5736441612243652,-0.08148030936717987,0.01605360209941864,0.05813492299958075,0.07679020292072053,-0.0024674009607943345
0.9607799053192139,-0.0042213499546051025,0.018471896648406982,0.015862107276916504,0.5768663883209229,-0.08547504991292953,-0.002824215916916728,0.06386446981177933,0.07601330043336944,-0.0028487400882725835
0.9711120128631592,-0.0017466098070144653,0.019491329789161682,0.010866701602935791,0.5905704498291016,-0.12500354647636414,-0.02318248338997364,0.06968814062466255,0.0749970350235768,-0.003410249137963834
0.9803650379180908,0.004303663969039917,0.03055395931005478,0.006609201431274414,0.5988253951072693,-0.1306108832359314,-0.031062671914696693,0.07560892242537853,0.07374794851569111,-0.004158507902753805
0.990502119064331,0.007934905588626862,0.028605766594409943,0.005419611930847168,0.6027876138687134,-0.16467538475990295,-0.021492868661880493,0.08159855337548874,0.07232486073678085,-0.004847086540218198
1.000532865524292,0.006146691739559174,0.022236227989196777,0.0022364258766174316,0.5800403356552124,-0.1895401030778885,-0.03845864161849022,0.08750292254942536,0.07061342772166718,-0.005567009698531853
1.0105621814727783,0.005773290991783142,0.01008325070142746,0.011459946632385254,0.5052558779716492,-0.19735275208950043,-0.05574548617005348,0.09293490769845522,0.06875051434190915,-0.006410361149589396
1.020611047744751,0.0015496909618377686,-0.017066150903701782,0.022254765033721924,0.38344135880470276,-0.2187572568655014,-0.08265113830566406,0.09734537605986618,0.066747997486331,-0.0073922345891541666
1.0306389331817627,-0.006585635244846344,-0.04740171134471893,0.037479281425476074,0.2591513693332672,-0.23605048656463623,-0.11575103551149368,0.10048769130598371,0.06463491155326684,-0.008606445759820315
1.0405299663543701,-0.009869690984487534,-0.06868772208690643,0.0445559024810791,0.1536027491092682,-0.2658790946006775,-0.12836191058158875,0.10245092015329219,0.06226892740765545,-0.009969003586919857
1.050473928451538,-0.003335852175951004,-0.05835474282503128,0.043259382247924805,0.05074668675661087,-0.2946990132331848,-0.13979725539684296,0.10342012657404898,0.05961318070502787,-0.011372334858189757
1.0604441165924072,0.0007504783570766449,-0.05857135355472565,0.04211372137069702,-0.14076493680477142,-0.31848934292793274,-0.16399319469928741,0.10298759205891088,0.056709368911174333,-0.01283629653235869
1.0709178447723389,-0.004639539867639542,-0.09003497660160065,0.054851531982421875,-0.441328227519989,-0.34897586703300476,-0.22782011330127716,0.10005808593404601,0.053547564337312586,-0.014635756895181738
1.0805408954620361,-0.012274544686079025,-0.12964928150177002,0.08424532413482666,-0.9000377655029297,-0.411371111869812,-0.32514676451683044,0.09332553042662763,0.050050005662418295,-0.017044732198520922
1.090562105178833,-0.012571774423122406,-0.18182995915412903,0.12646108865737915,-1.6884993314743042,-0.4998820722103119,-0.5840816497802734,0.08043329697588157,0.045755874696975535,-0.020924806671468472
1.10060715675354,-0.023071367293596268,-0.23954714834690094,0.20559167861938477,-2.83154034614563,-0.5933009386062622,-0.8161186575889587,0.05769558040752085,0.04074403593428011,-0.02695831436957996
1.1108019351959229,-0.028590291738510132,-0.327847421169281,0.24941402673721313,-4.238614082336426,-0.7847143411636353,-1.1650278568267822,0.022221573904125106,0.034159804270928726,-0.03540601272049065
1.1206080913543701,-0.01790658012032509,-0.41997843980789185,0.2756386995315552,-6.011784553527832,-0.7990283370018005,-1.606810450553894,-0.02940340698350793,0.026160857897283226,-0.04782253826155136
1.130467176437378,-0.015250587835907936,-0.4802294969558716,0.2924010753631592,-7.782206058502197,-1.0408211946487427,-2.053361177444458,-0.09882899654134489,0.016062316492285362,-0.06454247474394127
1.1406099796295166,-0.0053563192486763,-0.4988096058368683,0.30649399757385254,-9.738884925842285,-1.3096671104431152,-2.5770866870880127,-0.18642625607050112,0.0013516655867611396,-0.08728539735339315
1.150575876235962,0.002452971413731575,-0.4434073567390442,0.4237617254257202,-11.359618186950684,-1.9712519645690918,-3.0425658226013184,-0.29202255858005216,-0.02243192229792401,-0.11743265798618367
1.1606981754302979,-0.006460748612880707,-0.3133281469345093,0.5757264494895935,-13.470622062683105,-2.6742374897003174,-3.408188581466675,-0.4145634515096693,-0.05967694291820839,-0.1571468440392228
1.1710121631622314,0.015567898750305176,-0.19862812757492065,0.6960263848304749,-16.269105911254883,-3.0314199924468994,-3.6444568634033203,-0.5592702285779866,-0.11427404133696047,-0.21180712405607063
1.1806299686431885,-0.10528871417045593,-0.006748318672180176,0.7863115668296814,-19.870359420776367,-2.964545965194702,-3.3343520164489746,-0.7325273536696433,-0.1916849066652746,-0.29001260386797206
1.190674066543579,-0.23297825455665588,0.20628315210342407,0.7678484916687012,-23.044424057006836,-2.422447919845581,-2.5836946964263916,-0.9344046198221486,-0.31013844069706165,-0.4125658412666549
1.2006340026855469,-0.2041429877281189,0.4802876114845276,0.7143731117248535,-24.32610321044922,-1.4331259727478027,-2.143523693084717,-1.1432144739684285,-0.5326438451126925,-0.6467489411430983
1.2106568813323975,-0.16208824515342712,0.6999419331550598,0.5050711035728455,-23.362279891967773,-0.8402698040008545,-2.3070011138916016,-1.3004482546814822,-1.068241378060138,-1.201419510106716
1.2232978343963623,-0.247593492269516,0.9899461269378662,0.20215094089508057,-20.71428680419922,-0.8769487142562866,-2.802443265914917,-1.2940263318711156,-1.8958983985061013,-2.049235656413644
1.2309069633483887,-0.2701462507247925,1.1427342891693115,-0.23318371176719666,-17.84331512451172,-1.4632174968719482,-3.053280830383301,-1.1657376187693493,-2.3342135184893023,-2.499761440561198
1.2407410144805908,-0.07936066389083862,0.9030991196632385,-0.400817334651947,-15.409041404724121,-1.6717298030853271,-2.8910603523254395,-1.0200220327465068,-2.518163198159013,-2.6884027413334732
1.2510740756988525,0.0048799216747283936,0.7106512784957886,-0.40592145919799805,-12.89069652557373,-1.8937047719955444,-2.7571117877960205,-0.8857106342174724,-2.611795743913418,-2.7808594724109623
1.2622909545898438,-0.05331745743751526,0.9194212555885315,-0.4822961688041687,-10.17409896850586,-1.70133638381958,-2.526219129562378,-0.7713800790833648,-2.6659635943343085,-2.828859580654347
1.2717411518096924,0.029235273599624634,0.9479185938835144,-0.5526456236839294,-6.863687515258789,-1.7017571926116943,-2.3255414962768555,-0.6840025493752205,-2.697521243992612,-2.8506270766151327
1.2811391353607178,-0.016855984926223755,0.8258471488952637,-0.73200923204422,-3.908815383911133,-1.6869298219680786,-2.0619003772735596,-0.6266069262184198,-2.7164062332720427,-2.853699863019933
1.2929589748382568,0.03735816478729248,0.6262536644935608,-0.6964186429977417,-2.2779996395111084,-1.5089155435562134,-1.809775710105896,-0.5911787309428871,-2.728593715840807,-2.8470651870578365
1.3008029460906982,0.05371764302253723,0.42569106817245483,-0.43207043409347534,-2.029184341430664,-1.1155693531036377,-1.5207957029342651,-0.5653956308740099,-2.737269239798478,-2.838663158872746
1.3107960224151611,0.05231937766075134,0.15325647592544556,-0.06031501293182373,-2.3848633766174316,-0.6824343800544739,-1.2397099733352661,-0.5396934263035614,-2.743961840056499,-2.8339302236345283
1.3210108280181885,0.0651690661907196,-0.0726402997970581,0.16402161121368408,-2.299909830093384,-0.45973074436187744,-1.043721079826355,-0.5134716379672962,-2.748675261603113,-2.8324110262796065
1.3308289051055908,0.03723543882369995,-0.13063165545463562,0.16319823265075684,-1.753297209739685,-0.4520392417907715,-1.0038293600082397,-0.49065983156903203,-2.7521395323915465,-2.8305260487835797
1.3409059047698975,0.06538477540016174,-0.05709347128868103,0.1421225666999817,-1.2904808521270752,-0.47907933592796326,-0.8860689997673035,-0.47314021016425184,-2.755218029041726,-2.8270035467928456
1.350862979888916,0.0936775803565979,0.007802039384841919,0.12012767791748047,-0.9912200570106506,-0.43295764923095703,-0.7565072774887085,-0.4594909707993233,-2.7580716513142254,-2.8232807778824673
1.360949993133545,0.062877357006073,-0.038154274225234985,0.07685381174087524,-0.8963488340377808,-0.41456905007362366,-0.6563118100166321,-0.44828221025059384,-2.7608096585553628,-2.819865716540228
1.3711621761322021,0.05086398124694824,-0.10537979006767273,0.018514156341552734,-0.9356781840324402,-0.47151729464530945,-0.5193161368370056,-0.43772123666314505,-2.7641749383019363,-2.817480323043042
1.3808729648590088,0.05328896641731262,-0.14771169424057007,0.030476927757263184,-1.126983404159546,-0.5564569234848022,-0.4860689640045166,-0.4264003906323142,-2.768850137693879,-2.8164078330262514
1.3909261226654053,0.08155876398086548,-0.19662445783615112,0.09448730945587158,-1.296535849571228,-0.6093430519104004,-0.3331963121891022,-0.41350868172926725,-2.774993201763364,-2.817087200150396
1.4008870124816895,0.10128942131996155,-0.210658460855484,0.12508589029312134,-1.2285325527191162,-0.5932546854019165,-0.20243442058563232,-0.40064282511795796,-2.781899539662243,-2.819275674308761
1.41090989112854,0.0707140862941742,-0.20917245745658875,0.07148325443267822,-1.0975422859191895,-0.522458553314209,-0.04536917060613632,-0.3893287774911459,-2.7887489786997155,-2.822366217593746
1.4212181568145752,0.04008468985557556,-0.1447843313217163,0.03974652290344238,-0.9871018528938293,-0.3315621614456177,0.09858644753694534,-0.37967058362569955,-2.7946490851375887,-2.826539800948957
1.4309461116790771,0.006866365671157837,-0.1402580440044403,0.04013669490814209,-0.9377081990242004,-0.12466306984424591,0.2363848090171814,-0.37119714592760367,-2.7988113891439794,-2.8317697906052723
1.440997838973999,-0.010338962078094482,-0.15538406372070312,0.027023911476135254,-0.8698121309280396,0.01944075897336006,0.3261031210422516,-0.36361569816920897,-2.801506502906062,-2.8378680742241174
1.4509398937225342,0.004252821207046509,-0.14921078085899353,0.062388062477111816,-0.7533944845199585,0.16081759333610535,0.4253426194190979,-0.357263029154696,-2.803021117912328,-2.8445066567821953
1.4610140323638916,0.017404228448867798,-0.1386944055557251,0.019222736358642578,-0.5921657681465149,0.19032683968544006,0.4841868281364441,-0.3522804558969651,-2.8036033764269876,-2.8516032172328103
1.4714670181274414,0.01519709825515747,-0.11351171135902405,-0.09910601377487183,-0.40798553824424744,0.09799876809120178,0.5580485463142395,-0.3493334052034609,-2.804544012974345,-2.858701909725701
1.481032133102417,0.050613194704055786,-0.08362728357315063,-0.12484323978424072,-0.2873785197734833,-0.059780385345220566,0.5518731474876404,-0.34792894592265305,-2.8066134829078404,-2.8654832379528083
1.4913618564605713,0.04875198006629944,-0.03832659125328064,-0.1769009828567505,-0.21012288331985474,-0.2719517648220062,0.5154139399528503,-0.3473961969361533,-2.810406572890907,-2.8716988557445107
1.5010600090026855,0.03280830383300781,0.026072323322296143,-0.2014942169189453,-0.17710107564926147,-0.4453712999820709,0.4909064471721649,-0.34721041555638965,-2.815982143514414,-2.877435634052026
1.5112860202789307,0.020141273736953735,0.12551742792129517,-0.21071135997772217,-0.11471466720104218,-0.6080297231674194,0.43276697397232056,-0.34728777973578345,-2.822989232527261,-2.8826383305945287
1.5215680599212646,0.0025350451469421387,0.19405695796012878,-0.22503125667572021,0.016739515587687492,-0.7853863835334778,0.3268454670906067,-0.3479887510478524,-2.8313517767015957,-2.8867010047217767
1.5312800407409668,-0.006356567144393921,0.23669451475143433,-0.1840991973876953,0.08079466968774796,-0.8831334114074707,0.2006603628396988,-0.34934781834266393,-2.84060585944981,-2.8891842796560527
1.5412838459014893,-0.01375424861907959,0.26571157574653625,-0.14274811744689941,0.04383746534585953,-0.9173658490180969,0.07855405658483505,-0.35036034730681254,-2.8500511382318057,-2.8904187348200874
1.5511369705200195,-0.04290306568145752,0.268980473279953,-0.0925513505935669,0.06311874836683273,-0.9301479458808899,-0.02743789739906788,-0.35094158232769956,-2.8593442407203784,-2.8905145090887303
1.5611588954925537,-0.042194247245788574,0.2768842577934265,-0.003340423107147217,0.09622961282730103,-0.9240607023239136,-0.14686080813407898,-0.35154317270923024,-2.8682639219355006,-2.889383724405356
1.5716478824615479,-0.049921393394470215,0.26857414841651917,0.04836767911911011,0.10412668436765671,-0.8656301498413086,-0.23417547345161438,-0.35199183673001566,-2.8764538185524073,-2.8871373676691086
1.5811479091644287,-0.06028078496456146,0.2308107614517212,0.10838842391967773,0.1433788388967514,-0.7915174961090088,-0.30615490674972534,-0.35250980591734077,-2.8836716500781305,-2.883984784609282
1.5911619663238525,-0.06224200129508972,0.19538605213165283,0.15767037868499756,0.17894668877124786,-0.6756303310394287,-0.33663931488990784,-0.35329996915726974,-2.8897716869412893,-2.880203808460538
1.6012670993804932,-0.059302300214767456,0.17647939920425415,0.19421172142028809,0.2200179100036621,-0.4830433130264282,-0.32842379808425903,-0.35440725195464734,-2.8942224375054333,-2.876238977360251
1.6139509677886963,-0.062615767121315,0.13476890325546265,0.2078680396080017,0.31931203603744507,-0.3013952076435089,-0.2979348599910736,-0.3562876659790485,-2.8967346788007866,-2.8722695950399846
1.6238069534301758,-0.06188961863517761,0.09891766309738159,0.19340789318084717,0.39470821619033813,-0.14290092885494232,-0.25305479764938354,-0.3591799450393446,-2.897613577744931,-2.8684747324361513
1.6312780380249023,-0.049573227763175964,0.0905250608921051,0.19888877868652344,0.3993263840675354,-0.02981138601899147,-0.2095070332288742,-0.3625725237633604,-2.897207718668726,-2.8650352344245578
1.6412718296051025,-0.03952811658382416,0.03783676028251648,0.21352142095565796,0.39356765151023865,0.04858572781085968,-0.17465296387672424,-0.3659852733927129,-2.8960186033113855,-2.8620171328247364
1.6513240337371826,-0.027461856603622437,-0.005851715803146362,0.2317345142364502,0.4180551767349243,0.12678945064544678,-0.13438597321510315,-0.3696182783939563,-2.8941694379361627,-2.859319893790096
1.661280870437622,-0.022050440311431885,-0.02485564351081848,0.21071088314056396,0.43448787927627563,0.2063988745212555,-0.07691521942615509,-0.3736214278419069,-2.8916503320534988,-2.857081192580542
1.6716790199279785,-0.029548272490501404,-0.029850661754608154,0.16904932260513306,0.44931769371032715,0.2729046642780304,-0.02606588788330555,-0.3779577083905671,-2.888575149776117,-2.8553720491542425
1.681286096572876,-0.02602258324623108,-0.03192439675331116,0.14476317167282104,0.4275958836078644,0.33223870396614075,0.002142739249393344,-0.38244213112152065,-2.884999906325125,-2.854031427818173
1.6914269924163818,-0.03007274866104126,-0.048899441957473755,0.11587989330291748,0.4236277937889099,0.3562338054180145,0.030142415314912796,-0.3869442051251676,-2.8810684689279906,-2.853027103455407
1.701279878616333,-0.02228611707687378,-0.03793555498123169,0.07978105545043945,0.44918471574783325,0.3449724316596985,0.04053396359086037,-0.39161931630835733,-2.8771324480357032,-2.8521400852441454
1.7113440036773682,-0.00500372052192688,-0.022740453481674194,0.04596507549285889,0.41374149918556213,0.3424970209598541,0.03596903756260872,-0.39623251369743595,-2.8733099701887803,-2.85122656038604
1.7216589450836182,0.0035134106874465942,-0.036648452281951904,0.02111506462097168,0.4010046720504761,0.35926589369773865,0.07281360775232315,-0.40057793305111844,-2.869467570267398,-2.8506151455298614
1.7314200401306152,0.017794281244277954,-0.029955029487609863,-0.023412346839904785,0.4764815866947174,0.3295929431915283,0.09501344710588455,-0.40527766753835553,-2.8657530648804244,-2.850197798445331
1.7414350509643555,0.024041175842285156,-0.017253488302230835,-0.08233988285064697,0.5715857744216919,0.2490595281124115,0.10774298757314682,-0.4109564437506011,-2.8625925177446963,-2.8496529434094446
1.7512829303741455,0.03592705726623535,-0.006403237581253052,-0.10182100534439087,0.5811436176300049,0.17982879281044006,0.1320808231830597,-0.4171718784645869,-2.860194281802246,-2.8491287032496233
1.7613818645477295,0.04171854257583618,-0.009150296449661255,-0.10402429103851318,0.6411744356155396,0.09420239180326462,0.14489035308361053,-0.42362416483224885,-2.858582649788479,-2.848742992901912
1.7716410160064697,0.042695969343185425,-0.031145870685577393,-0.10143101215362549,0.918566882610321,-0.01217358186841011,0.16602253913879395,-0.4316144350518295,-2.8578355401379327,-2.8479825177402796
1.7813889980316162,0.050760746002197266,-0.008307099342346191,-0.10374724864959717,1.3109784126281738,-0.0943475067615509,0.2162664830684662,-0.4429543714831091,-2.8577714190050343,-2.846536412979115
1.7919480800628662,0.05033949017524719,0.043884217739105225,-0.13159525394439697,1.815262794494629,-0.09557442367076874,0.28451505303382874,-0.45862825440404914,-2.8578120277531203,-2.8443988270576566
1.8014459609985352,0.04042805731296539,0.04994916915893555,-0.15721166133880615,2.502041816711426,-0.09986978769302368,0.3615158200263977,-0.48031623238033416,-2.8572656274357815,-2.841083437069338
1.8114430904388428,0.04033224284648895,0.04589971899986267,-0.15189045667648315,3.2149171829223633,-0.03272990137338638,0.44253742694854736,-0.5090165521219222,-2.8557325758254075,-2.8363140551975317
1.8216769695281982,0.04450160264968872,0.07328909635543823,-0.13660025596618652,3.8577048778533936,0.11684773862361908,0.519462525844574,-0.5444270023433926,-2.852157522704139,-2.830027936013695
1.8314220905303955,0.02301737666130066,0.05829942226409912,-0.13066142797470093,4.453136444091797,0.25643011927604675,0.5761551260948181,-0.5859401309923453,-2.845944425820982,-2.8220189395489492
1.8415570259094238,0.008232921361923218,0.01895463466644287,-0.0879063606262207,4.929957389831543,0.30422767996788025,0.6256477236747742,-0.6327522964452181,-2.8373955929608106,-2.8120718463990335
1.8515079021453857,0.015273019671440125,0.011686444282531738,0.009780347347259521,5.299218654632568,0.40261974930763245,0.6532495617866516,-0.683567591811933,-2.826496840333984,-2.7999922800255406
1.8635749816894531,0.023588255047798157,0.016934752464294434,0.13047796487808228,5.556909561157227,0.5700522065162659,0.7249364256858826,-0.7373796028053745,-2.8124004439417027,-2.7858488627187694
1.8721401691436768,0.02044568955898285,0.02723383903503418,0.20030611753463745,5.674317359924316,0.7545541524887085,0.8302484750747681,-0.7931591457537822,-2.7949359471162567,-2.770145319563313
1.8814339637756348,0.006251588463783264,0.05633246898651123,0.22506463527679443,5.863236427307129,1.0763261318206787,0.9735205173492432,-0.8502841265696393,-2.7732313097682595,-2.7529380654869815
1.8915679454803467,-0.0180901437997818,0.08430266380310059,0.25052177906036377,6.337792873382568,1.3356536626815796,1.192382574081421,-0.910975867248783,-2.7457040283360485,-2.732976214247922
1.9014790058135986,-0.015195176005363464,0.15690463781356812,0.25648683309555054,6.983645915985107,1.5276319980621338,1.417612910270691,-0.9773380753424732,-2.710904300371215,-2.7077640396090605
1.9115121364593506,-0.023042142391204834,0.27918243408203125,0.27613091468811035,7.76350736618042,1.7165782451629639,1.6345564126968384,-1.050615668704142,-2.664636781234903,-2.672434385274504
1.9218471050262451,-0.054888710379600525,0.33634132146835327,0.2629430592060089,8.748323440551758,1.8980331420898438,1.8749065399169922,-1.1313964513433437,-2.598314389569954,-2.6182370112398603
1.9317259788513184,-0.0783761739730835,0.34120702743530273,0.21983501315116882,9.53359603881836,1.86036217212677,2.02620792388916,-1.2187516112951529,-2.494671443083232,-2.5266335447470145
1.9419660568237305,-0.09584605693817139,0.3495436906814575,0.24045707285404205,9.521065711975098,1.8675073385238647,1.9568367004394531,-1.3036498467827236,-2.3221319440953305,-2.365106390807437
1.9516241550445557,-0.1271388679742813,0.2718130350112915,0.3701331615447998,9.14358139038086,1.9167635440826416,1.7828319072723389,-1.3727891046831988,-2.0205708682026295,-2.075112330232155
1.961663007736206,-0.1635371893644333,0.051916658878326416,0.44149380922317505,8.466522216796875,1.980687141418457,1.4721834659576416,-1.4081987579053683,-1.5411247704591902,-1.6078861309442003
1.971855878829956,-0.15847526490688324,-0.16137123107910156,0.5099738240242004,7.936996936798096,2.1734681129455566,1.2805086374282837,-1.3978760863548823,-1.0293305803713115,-1.1102318931448742
1.981652021408081,-0.13118232786655426,-0.265203595161438,0.4947264790534973,7.86509895324707,2.0697033405303955,1.3418548107147217,-1.354744288439857,-0.6622515735918225,-0.7580988450002902
1.991745948791504,-0.05356980860233307,-0.1344813108444214,0.41143518686294556,8.254631042480469,1.923850178718567,1.2647002935409546,-1.2926040498731735,-0.4317523071454027,-0.5410359302287909
2.0016191005706787,-0.0027041658759117126,0.0693291425704956,0.3479233384132385,9.098292350769043,1.8649375438690186,1.2548930644989014,-1.2155700721078333,-0.2840025818524295,-0.40583206551041756
2.011772871017456,-0.03101649135351181,0.16293352842330933,0.237339049577713,10.130257606506348,1.6475962400436401,1.2966042757034302,-1.1247160735687567,-0.18396797371369009,-0.3166793532470781
2.0218989849090576,-0.0295155830681324,0.264299213886261,0.2303297519683838,10.916586875915527,1.3861312866210938,1.2140096426010132,-1.0221066577560707,-0.11675029294858448,-0.2573774880823834
2.031841993331909,-0.03961799293756485,0.2701417803764343,0.3076134920120239,11.042941093444824,1.3415586948394775,1.1122437715530396,-0.9132904239802084,-0.07145752771571412,-0.21882674836743626
2.0419628620147705,-0.09326177090406418,0.1659482717514038,0.3578386902809143,10.584500312805176,1.409335732460022,1.1204899549484253,-0.8054416272922384,-0.03786966343589146,-0.1927344797651418
2.051913022994995,-0.12431766092777252,0.06851667165756226,0.4132610559463501,9.798718452453613,1.7276042699813843,1.1301273107528687,-0.7036613248216054,-0.00959998631962434,-0.1739319354202468
2.061913013458252,-0.13234460353851318,-0.011958837509155273,0.4304381012916565,8.89648723602295,2.017883777618408,1.1577134132385254,-0.6100426588126666,0.017954141139801857,-0.15988020790484087
2.071908950805664,-0.1627161204814911,-0.057319819927215576,0.39142388105392456,7.879820823669434,1.9654417037963867,1.0664423704147339,-0.5256704734153504,0.04344061060908655,-0.14959778007187308
2.081825017929077,-0.170085608959198,-0.11140748858451843,0.4654805064201355,6.7923054695129395,2.0234031677246094,0.9037261009216309,-0.45180209294832097,0.06654724362609006,-0.14298699280362
2.0918619632720947,-0.16407853364944458,-0.21229234337806702,0.4725717306137085,5.926538467407227,2.157060384750366,0.8880600929260254,-0.38793473334746714,0.0892962831736487,-0.1387838506559383
2.101832151412964,-0.15388035774230957,-0.2178124487400055,0.38913339376449585,5.319243907928467,1.91974937915802,1.0347585678100586,-0.3310658440895267,0.11136320434733876,-0.13454774146667373
2.111950159072876,-0.0859910100698471,-0.10189646482467651,0.3650568127632141,4.817419528961182,1.6736693382263184,1.113921880722046,-0.27945453802154496,0.13069486813720285,-0.1297580222097079
2.121973991394043,-0.019471213221549988,0.020387470722198486,0.37867599725723267,4.406089782714844,1.481310486793518,1.2527941465377808,-0.23208717271331586,0.1479719162976509,-0.12430469757271773
2.1318719387054443,-0.007045358419418335,0.04682566225528717,0.30846017599105835,3.9794392585754395,1.1770871877670288,1.3234981298446655,-0.18863552040932133,0.16261068321440264,-0.11781847138095242
2.141956090927124,0.013362035155296326,0.007884934544563293,0.2483336329460144,3.5791871547698975,0.9392120838165283,1.271172285079956,-0.1491616827984637,0.17425841274532572,-0.1112305390082946
2.1518609523773193,0.04246176779270172,-0.0668477788567543,0.15586745738983154,3.1792893409729004,0.6831584572792053,1.2204082012176514,-0.11366214547732667,0.18324888002226988,-0.10492027412866445
2.161890983581543,0.0627785325050354,-0.07566261291503906,0.04352372884750366,2.819472312927246,0.4295817017555237,1.1339430809020996,-0.08193403613913854,0.1893799304911201,-0.09885293987783976
2.172131061553955,0.08656994998455048,-0.04004179686307907,-0.02218860387802124,2.3763630390167236,0.20140820741653442,1.0113860368728638,-0.05427434123737702,0.19281322973149603,-0.09323632891561592
2.1819419860839844,0.10090279579162598,-0.04004812240600586,-0.06215709447860718,1.8466798067092896,0.07091549038887024,0.9205286502838135,-0.031645782130250454,0.1944697575844257,-0.08784060610083598
2.1919820308685303,0.09611018002033234,-0.058743953704833984,-0.09017032384872437,1.2742868661880493,-0.03004414774477482,0.8133952617645264,-0.014646549811249548,0.19472026945709753,-0.0823144059489983
2.2019379138946533,0.07520748674869537,-0.08995882421731949,-0.09035623073577881,0.8018280267715454,-0.05645458400249481,0.7310827970504761,-0.003059993274085042,0.19438710833849285,-0.07676627324308354
2.2120449542999268,0.051885008811950684,-0.10202893614768982,-0.09966284036636353,0.5040008425712585,-0.1271553784608841,0.684554934501648,0.004599527790708585,0.19340024026910313,-0.0710366123523253
2.221982002258301,0.04430033266544342,-0.050368621945381165,-0.11134511232376099,0.426944375038147,-0.20361150801181793,0.668097198009491,0.010361572047366367,0.19179286572915233,-0.06527916606950249
2.2320210933685303,0.039693817496299744,0.027322012931108475,-0.12416958808898926,0.4594775438308716,-0.2927086055278778,0.6524056196212769,0.015924405244728105,0.18919435014159464,-0.05960774952737245
2.2420308589935303,0.035641178488731384,0.0842726081609726,-0.12761163711547852,0.5199733972549438,-0.35464996099472046,0.6417365074157715,0.021972773956175445,0.18585444291323208,-0.05416400695449077
2.2520179748535156,0.02193400263786316,0.08900900185108185,-0.11971825361251831,0.5197238326072693,-0.36823663115501404,0.6183369159698486,0.028298088629902643,0.1820540591877081,-0.04891826610820156
2.262040853500366,-0.0018157511949539185,0.06011175364255905,-0.09097278118133545,0.4227985143661499,-0.33815258741378784,0.5787433981895447,0.03405635923940584,0.17835426143966499,-0.04386536633857516
2.2724058628082275,-0.024998411536216736,0.01810036227107048,-0.061860620975494385,0.27023667097091675,-0.3060537576675415,0.5329748392105103,0.03848037426564073,0.17494429132404105,-0.038990280765543915
2.2820589542388916,-0.029285892844200134,-0.03169940412044525,-0.033333659172058105,0.07744596153497696,-0.26050424575805664,0.46172401309013367,0.041050810562271084,0.1719232802383735,-0.034384393948713454
2.2957870960235596,-0.029160797595977783,-0.05889429152011871,-0.009731113910675049,-0.08160573989152908,-0.19205409288406372,0.41722631454467773,0.04170377140739298,0.16944533932661296,-0.0300577005066796
2.306609869003296,-0.029955625534057617,-0.06451457738876343,-0.001177966594696045,-0.11906082183122635,-0.13947083055973053,0.4139391779899597,0.041347455577837915,0.16766266885646122,-0.025779647090642076
2.313184976577759,-0.02565142512321472,-0.0467761866748333,-0.007809162139892578,-0.07338441908359528,-0.133573517203331,0.39642757177352905,0.041019171922650255,0.16614144126803895,-0.021599805652502406
2.321964979171753,-0.018895894289016724,-0.007917925715446472,-0.003965973854064941,0.0395064651966095,-0.11143558472394943,0.40172529220581055,0.04148671574089941,0.16473986707882976,-0.017648362800165414
2.3320980072021484,-0.0104600191116333,0.011951170861721039,-0.009056150913238525,0.16816404461860657,-0.10122103244066238,0.42467615008354187,0.04319939066330656,0.16351571063710602,-0.013715741525855264
2.3423869609832764,-0.008968621492385864,0.030148644000291824,-0.016715943813323975,0.2652356028556824,-0.0954127237200737,0.42286333441734314,0.04604936207354049,0.16236425191892986,-0.009881204481084139
2.3521039485931396,-0.011928319931030273,0.04125712066888809,-0.004856288433074951,0.29972994327545166,-0.08058957010507584,0.41538891196250916,0.049578253404707666,0.1613078137820163,-0.006174268453065462
2.362107038497925,-0.02185364067554474,0.01584320142865181,0.012175202369689941,0.26068297028541565,-0.041925929486751556,0.3795229494571686,0.0530079596858852,0.1604922680779572,-0.002676611852918921
2.3726210594177246,-0.039119333028793335,-0.02152053639292717,0.035247802734375,0.17851512134075165,-0.018202491104602814,0.3438293933868408,0.055778935885310015,0.16002941549315294,0.0005305846103316328
2.3821840286254883,-0.04257667064666748,-0.03903372585773468,0.05144906044006348,0.07204330712556839,0.011782838962972164,0.298407644033432,0.057525140777328156,0.15982214145324158,0.003507044126274331
2.3921759128570557,-0.03359264135360718,-0.04110268875956535,0.060731709003448486,-0.027816982939839363,0.04884019121527672,0.2690950334072113,0.058173323097794015,0.15994001096591756,0.006269152887118557
2.402129888534546,-0.03386276960372925,-0.0480695515871048,0.057986676692962646,-0.0714009627699852,0.08090611547231674,0.2648455500602722,0.0580727500708374,0.1604454149275679,0.008986169408046548
2.412184953689575,-0.03673841059207916,-0.04448840022087097,0.05067974328994751,-0.06879372894763947,0.08612458407878876,0.2679300010204315,0.05780824420099521,0.1611003530424267,0.011741393309266417
2.422424077987671,-0.03837394714355469,-0.023751936852931976,0.04676538705825806,-0.05542014539241791,0.09996116906404495,0.28659167885780334,0.057639886599591135,0.1618759508665292,0.014565015833734192
2.4321439266204834,-0.042141109704971313,-0.018505699932575226,0.04551088809967041,-0.08110660314559937,0.12313839048147202,0.3199842572212219,0.0574842581362256,0.1628019556364022,0.017672429682557795
2.442110061645508,-0.04628428816795349,-0.029982537031173706,0.053449273109436035,-0.12015799432992935,0.17753736674785614,0.37213122844696045,0.05703879623206893,0.16406062101907726,0.02124579070254837
2.4522321224212646,-0.05431443452835083,-0.04079454764723778,0.0719757080078125,-0.13698013126850128,0.24953593313694,0.42225298285484314,0.056372807249448556,0.16594865443900217,0.0254052254770079
2.4621951580047607,-0.06371621787548065,-0.0374438650906086,0.08276927471160889,-0.09356177598237991,0.29826289415359497,0.47762730717658997,0.05595390209170947,0.16844241603713528,0.03005744272754943
2.472327947616577,-0.07015791535377502,-0.010173369199037552,0.08818858861923218,-0.030795328319072723,0.35574111342430115,0.512640118598938,0.056186197651421535,0.17142437795595278,0.03506074510611919
2.4822371006011963,-0.08083018660545349,0.0281902477145195,0.09220653772354126,-0.004080710932612419,0.4717589318752289,0.5334451794624329,0.056953382316390744,0.17522430150978016,0.040264629112134465
2.4923388957977295,-0.09361167252063751,0.04797061160206795,0.08983707427978516,-0.02977968379855156,0.6164743304252625,0.5394993424415588,0.057753132680199125,0.18035155871799657,0.04560532186742341
2.503980875015259,-0.09728005528450012,0.043704595416784286,0.07075971364974976,-0.06469816714525223,0.772045910358429,0.508069634437561,0.058233404957739654,0.18700125168473808,0.05086955001464618
2.512166976928711,-0.08992971479892731,0.02546413615345955,0.05316817760467529,-0.08229260891675949,0.8659049868583679,0.4400365352630615,0.05839532097043791,0.1949939197497887,0.05571253214726082
2.5223419666290283,-0.07572050392627716,0.010763581842184067,0.04278045892715454,-0.0578317753970623,0.8454295992851257,0.33273929357528687,0.05845011043101954,0.20338035372315397,0.059676370949569485
2.532489061355591,-0.04205067455768585,-0.0036768652498722076,0.050980567932128906,-0.017640145495533943,0.78205406665802,0.23159776628017426,0.058612611923201136,0.21132359016966903,0.06250111616935201
2.543186902999878,0.0025368332862854004,-0.004259537905454636,0.046915650367736816,0.004134625196456909,0.7380746603012085,0.1957460194826126,0.05900717923475373,0.21883726860844457,0.06455716615326737
2.5539050102233887,0.03500485420227051,0.02939290925860405,0.0016159415245056152,0.030954256653785706,0.6373594999313354,0.18329493701457977,0.059594863478784656,0.22560209904741943,0.06639333689015521
2.562485933303833,0.06514410674571991,0.06765496730804443,-0.03981751203536987,0.07350196689367294,0.5372585654258728,0.17113502323627472,0.06048976372871382,0.23140258277492703,0.06798647219724277
2.572442054748535,0.086820587515831,0.061288658529520035,-0.06737655401229858,0.11351463198661804,0.4402497112751007,0.1757390946149826,0.061785791377058766,0.23615808955275394,0.06946821746494647
2.5825798511505127,0.09216448664665222,0.05942671746015549,-0.08799982070922852,0.1557239443063736,0.3624052405357361,0.18933968245983124,0.06354362607002281,0.2400831464186076,0.07093242727202194
2.5923988819122314,0.09484022855758667,0.05281790345907211,-0.1067548394203186,0.16733212769031525,0.2924232482910156,0.19119909405708313,0.06559080994713773,0.24325982069148355,0.0723915459298602
2.605315923690796,0.09312835335731506,0.035322315990924835,-0.10956799983978271,0.1455322504043579,0.2353530377149582,0.19047094881534576,0.06756983186707043,0.2457860575711828,0.07386860811906296
2.6124119758605957,0.08196945488452911,0.016245514154434204,-0.10245460271835327,0.10585061460733414,0.1791432946920395,0.1743534952402115,0.06924890751261567,0.2477599069376891,0.07533748545355758
2.6224958896636963,0.06466560065746307,0.0033575519919395447,-0.08436894416809082,0.08425046503543854,0.11006093770265579,0.15679863095283508,0.07055481169640884,0.24912488654786827,0.07673034558211954
2.632462978363037,0.04911087453365326,-0.001853950321674347,-0.060926616191864014,0.06301175802946091,0.01751582697033882,0.12843568623065948,0.07163265572662833,0.2496715854045795,0.0779398521995818
2.642470121383667,0.03817571699619293,-0.0005909204483032227,-0.041607439517974854,0.028772328048944473,-0.042250391095876694,0.0982024297118187,0.07236352229565414,0.24945840620101362,0.07890821627317392
2.654279947280884,0.03568805754184723,0.004514716565608978,-0.03558605909347534,-0.055648814886808395,-0.07780465483665466,0.08488449454307556,0.0724798368243709,0.24876646091426963,0.07982848556582767
2.6625778675079346,0.031041130423545837,0.0024922043085098267,-0.04451572895050049,-0.1479571908712387,-0.06660299748182297,0.07855479419231415,0.0716606409333765,0.24795507819258775,0.08087654232113785
2.673079013824463,0.024146229028701782,0.002555862069129944,-0.05113476514816284,-0.19711248576641083,-0.06036161631345749,0.0739283487200737,0.0701335459653632,0.24724705638515926,0.0820651063399326
2.682494878768921,0.029352977871894836,0.012206658720970154,-0.05750703811645508,-0.15479227900505066,-0.0918564721941948,0.04921294003725052,0.06853476719680919,0.24647408984484834,0.08311719746909375
2.6925570964813232,0.05527503788471222,0.04173913598060608,-0.056100666522979736,-0.08500494062900543,-0.16639462113380432,0.028535090386867523,0.06747092128854411,0.24511833632308497,0.08376290864072435
2.7040109634399414,0.07104942202568054,0.06614246964454651,-0.03884190320968628,-0.07668590545654297,-0.2186548411846161,0.005865731742233038,0.06675668614727699,0.24315537982185617,0.08413536359196298
2.7125608921051025,0.0641082227230072,0.07603694498538971,-0.02104330062866211,-0.1068054586648941,-0.2419268786907196,-0.02648555114865303,0.06583063892195785,0.24082315007313032,0.08424944142546754
2.7225520610809326,0.047289133071899414,0.06968361884355545,-0.0030875802040100098,-0.13045254349708557,-0.24186940491199493,-0.05494723096489906,0.06454048807034207,0.23841395650389272,0.08413582575071595
2.732571840286255,0.03726127743721008,0.06823167949914932,0.008665084838867188,-0.11763528734445572,-0.2481914758682251,-0.08295436948537827,0.06316204423875188,0.2361618117176669,0.08375095985671589
2.7425529956817627,0.026673033833503723,0.07020626962184906,0.015621364116668701,-0.11622007936239243,-0.24111510813236237,-0.10456319898366928,0.061838130113706875,0.2339553419994873,0.08307512583953189
2.7547409534454346,0.006367415189743042,0.06128443777561188,0.024690449237823486,-0.11323840916156769,-0.19835911691188812,-0.10587720572948456,0.06048213190010721,0.23203056170350286,0.08227919019709039
2.763309955596924,-0.022714287042617798,0.054755568504333496,0.02460402250289917,-0.08907508105039597,-0.16704699397087097,-0.09266936033964157,0.05915413385633521,0.23061253421857364,0.08152291391888858
2.7726869583129883,-0.03649395704269409,0.050750743597745895,0.016114532947540283,-0.031856000423431396,-0.1574404537677765,-0.08253630250692368,0.057710327312457045,0.23005996334858114,0.08075034581806467
2.7825870513916016,-0.039217859506607056,0.04304615408182144,0.012280523777008057,0.01440230943262577,-0.15374824404716492,-0.08038180321455002,0.05619835211000753,0.23011062829129403,0.07989636850416695
2.7927539348602295,-0.04648159444332123,0.024517007172107697,0.018971800804138184,0.038980089128017426,-0.17050644755363464,-0.08590919524431229,0.05515416365959519,0.22972088781302585,0.07896618848935122
2.8066861629486084,-0.053768619894981384,-0.008419305086135864,0.03476947546005249,0.022092236205935478,-0.16474440693855286,-0.10332424193620682,0.05438221610684593,0.2288724434306098,0.07792542895332902
2.814164876937866,-0.05973824858665466,-0.030079960823059082,0.04500401020050049,-0.007158325985074043,-0.148781418800354,-0.12402153760194778,0.05347218942901681,0.22795463365928595,0.07676894101332526
2.8234009742736816,-0.0668075829744339,-0.0465155690908432,0.04055988788604736,-0.03094746172428131,-0.16056159138679504,-0.1340625137090683,0.052324288426170706,0.2268786937618874,0.07552045286591627
2.832631826400757,-0.07174339890480042,-0.06088367849588394,0.03307825326919556,-0.04819755628705025,-0.15053719282150269,-0.13945354521274567,0.05110762138555208,0.22553893652399565,0.074261291678405
2.8427560329437256,-0.06636151671409607,-0.055677447468042374,0.02380269765853882,-0.033057767897844315,-0.15135997533798218,-0.11273207515478134,0.04999529875383938,0.2239947509191281,0.07311232356943378
2.855268955230713,-0.05751509964466095,-0.03541840240359306,0.006736874580383301,-0.005430400371551514,-0.163926362991333,-0.09339167177677155,0.04916567824398106,0.2222032941978124,0.07216870566755292
2.862847089767456,-0.04613886773586273,-0.024624664336442947,-0.006159842014312744,0.01977398805320263,-0.16428668797016144,-0.07375090569257736,0.048621475030687235,0.22024696183745865,0.07134555377997459
2.872753858566284,-0.03885680437088013,-0.03402381390333176,-0.013180553913116455,0.022529294714331627,-0.17112942039966583,-0.049647435545921326,0.04845369939515352,0.21811287571999127,0.07071946927250765
2.8826711177825928,-0.03808712959289551,-0.030650708824396133,-0.013035953044891357,0.011643723584711552,-0.17021700739860535,-0.039312347769737244,0.04880598626026408,0.21587270075155526,0.07027423653532086
2.892781972885132,-0.040207043290138245,-0.029403667896986008,-0.008749902248382568,-0.009783271700143814,-0.16953496634960175,-0.04078560695052147,0.04942816085237334,0.21351722473386217,0.06992142058631219
2.903813123703003,-0.04131205379962921,-0.04046638309955597,-0.01009058952331543,-0.030418092384934425,-0.16896909475326538,-0.040756046772003174,0.05025306927013429,0.21092267853309624,0.0695993991903291
2.9127559661865234,-0.0413278192281723,-0.036689162254333496,-0.01264798641204834,-0.051774248480796814,-0.1658816933631897,-0.03573784977197647,0.05140726991788848,0.20804598451473152,0.06937454342863027
2.9228010177612305,-0.03343464434146881,-0.020620130002498627,-0.01660364866256714,-0.06112663820385933,-0.15706680715084076,-0.039237458258867264,0.05260059481116581,0.205010329501697,0.0692113281326219
2.932760000228882,-0.02089567482471466,-0.009152904152870178,-0.021474480628967285,-0.043233923614025116,-0.16393697261810303,-0.04644849896430969,0.05346417496881287,0.20177843550092253,0.0689867527103887
2.9427640438079834,-0.008536666631698608,-0.0017751753330230713,-0.026240646839141846,-0.020220914855599403,-0.18290798366069794,-0.062194813042879105,0.05388450642074912,0.19893016869231808,0.0685791131029825
2.9537770748138428,0.0006603747606277466,0.01359478384256363,-0.0251157283782959,0.0022204783745110035,-0.1917683333158493,-0.06796694546937943,0.05472934202915995,0.19630965032188213,0.06799627068379543
2.962898015975952,0.00477956235408783,0.02547953650355339,-0.02196413278579712,0.006908324081450701,-0.2099020928144455,-0.07848776876926422,0.05559856862945585,0.1935782668821477,0.06730961512778258
2.9730818271636963,0.0009905993938446045,0.024579327553510666,-0.0167502760887146,-0.0008561220020055771,-0.2145727574825287,-0.09084483236074448,0.056454461227805904,0.19063433582557354,0.06651176778414156
2.9827539920806885,-6.310641765594482e-05,0.01859418675303459,-0.012391090393066406,-0.01572871208190918,-0.20743699371814728,-0.09838445484638214,0.05753589297820964,0.18773706552860037,0.06564221125170146
2.992962121963501,0.0013645142316818237,0.0202045775949955,-0.01024395227432251,-0.017315156757831573,-0.19741418957710266,-0.09904811531305313,0.05847648158482352,0.18483011141299954,0.06476191562698476
3.003962993621826,0.0016058683395385742,0.024896543473005295,-0.009731829166412354,-0.0013268855400383472,-0.19292548298835754,-0.10416814684867859,0.058835565463646745,0.18224064729057599,0.06380913562617982
3.012852907180786,0.0011729598045349121,0.02867245301604271,-0.007177114486694336,0.034138694405555725,-0.18488353490829468,-0.10260061174631119,0.058918998417075874,0.18022715125523284,0.0627665977096121
3.022706985473633,-0.0007869154214859009,0.038259875029325485,-0.007006227970123291,0.07241210341453552,-0.18328842520713806,-0.10931768268346786,0.05909204740720842,0.17869792697883233,0.06162129514174622
3.0328328609466553,-0.0030195116996765137,0.04278731718659401,-0.006719708442687988,0.09556828439235687,-0.18514437973499298,-0.11975381523370743,0.05907233501591748,0.17742907691519633,0.0603058047381053
3.0429799556732178,-0.003946408629417419,0.035254303365945816,-0.0016083717346191406,0.08609337359666824,-0.1694783866405487,-0.13167449831962585,0.05871032254854237,0.17633437414153785,0.05886443933941298
3.053277015686035,-0.00595642626285553,0.022053442895412445,0.0054094791412353516,0.07240445911884308,-0.15854185819625854,-0.13466016948223114,0.05820391148300024,0.17528475605730717,0.0573837839002577
3.062937021255493,-0.0076361000537872314,0.016286995261907578,0.008260071277618408,0.06657073646783829,-0.15180370211601257,-0.14150774478912354,0.057762037509688106,0.174303625539869,0.05586569039691291
3.0728728771209717,-0.008903920650482178,0.01517615094780922,0.012047350406646729,0.060800205916166306,-0.14035263657569885,-0.1394193023443222,0.05727599994744228,0.17338454224462377,0.05433394179025578
3.0828189849853516,-0.01032230257987976,0.013041071593761444,0.011801183223724365,0.05754934623837471,-0.1227257028222084,-0.1264330893754959,0.0566352454223347,0.17253963918813098,0.05289517559181943
3.0928561687469482,-0.005892649292945862,0.014804702252149582,0.00876462459564209,0.062438108026981354,-0.10584286600351334,-0.10861786454916,0.055941106874075275,0.17178357015897572,0.05161438251085629
3.104262113571167,-0.0007985830307006836,0.013908032327890396,0.0030603408813476562,0.059896908700466156,-0.10531684011220932,-0.0907868817448616,0.054981929248017855,0.17100128796467848,0.05051542583474704
3.112908124923706,0.0075675249099731445,0.009703606367111206,0.0025083422660827637,0.050208594650030136,-0.10729023814201355,-0.07291387021541595,0.053888672444633745,0.17010278982934296,0.04960445911664764
3.122825860977173,0.018053069710731506,0.0020587854087352753,0.009460747241973877,0.03529578819870949,-0.1145516186952591,-0.06347307562828064,0.05304807194317325,0.16913110610366067,0.04885408673167637
3.1328940391540527,0.022213995456695557,-0.007072892040014267,0.0175631046295166,0.0029482366517186165,-0.1277819275856018,-0.05426359921693802,0.05253689736493341,0.16801532155471374,0.04823971962490239
3.142963171005249,0.018622025847434998,-0.00846438854932785,0.021536648273468018,-0.03360031917691231,-0.12757226824760437,-0.04354773089289665,0.05192276055363529,0.16679193086702895,0.04777666427673965
3.153285026550293,0.019593417644500732,-0.006292838603258133,0.01838475465774536,-0.059638846665620804,-0.1286521553993225,-0.03386367857456207,0.051071944970655515,0.16553494291920798,0.047483705392719386
3.162958860397339,0.019053831696510315,-0.00048498809337615967,0.012875676155090332,-0.07541075348854065,-0.12537266314029694,-0.03433947637677193,0.05011892917747908,0.16424697066370936,0.0472499327986698
3.1730170249938965,0.019166022539138794,0.0026778019964694977,0.010254383087158203,-0.08900406211614609,-0.11997177451848984,-0.032045695930719376,0.04897734459239489,0.1631637463713715,0.047048276015241204
3.182882070541382,0.01602707803249359,0.005548607558012009,0.010543465614318848,-0.09368569403886795,-0.10981767624616623,-0.03923271968960762,0.04777264036890633,0.1622982699506399,0.04682756175717566
3.1929991245269775,0.01705661416053772,0.004827670753002167,0.005813241004943848,-0.09225371479988098,-0.10509082674980164,-0.03924869745969772,0.04669955831577197,0.16175641107779481,0.046564234646390985
3.203291177749634,0.017507478594779968,0.0038309246301651,0.001986265182495117,-0.08819881081581116,-0.08929544687271118,-0.036019984632730484,0.04590031806989723,0.16167998122342647,0.046285840309966186
3.2130520343780518,0.01380603015422821,0.011519432067871094,0.0014124512672424316,-0.07000303268432617,-0.08204818516969681,-0.02877592109143734,0.04553179870837613,0.1618409500224144,0.04605566624332794
3.2230031490325928,0.011394545435905457,0.01758372038602829,0.0005347728729248047,-0.04304252564907074,-0.08043190836906433,-0.02733808010816574,0.04543143777822493,0.161918182539348,0.04583276199869456
3.2330210208892822,0.007506132125854492,0.01939946785569191,0.003056764602661133,-0.025430507957935333,-0.07291807234287262,-0.021572869271039963,0.04546194019771407,0.16197770739801212,0.045613540371974896
3.243136167526245,0.0033881813287734985,0.01883813738822937,0.0030458569526672363,-0.010188687592744827,-0.056070953607559204,-0.015212762169539928,0.04543463520616182,0.1620529355572476,0.04542688558759364
3.2532989978790283,-0.003540128469467163,0.016683198511600494,0.0015898346900939941,0.002145743230357766,-0.04938455671072006,-0.014756562188267708,0.04541590752493875,0.16219291402635042,0.04526784174669808
3.263077974319458,-0.0034655779600143433,0.013278532773256302,0.0027051568031311035,0.013091618195176125,-0.04046878218650818,-0.014527689665555954,0.04538339964355735,0.16228731649875244,0.04508298504684506
3.2731080055236816,-0.0010138005018234253,0.010349657386541367,0.004828035831451416,0.02244916744530201,-0.0318867452442646,-0.012240300886332989,0.04544531094258076,0.1624475310926382,0.04489362010919206
3.2829699516296387,0.00046885013580322266,0.010397583246231079,0.003932476043701172,0.03084736131131649,-0.027406640350818634,-0.018141867592930794,0.04558493413405991,0.16266267776889695,0.04467141829058357
3.2935659885406494,0.003240048885345459,0.005615942180156708,0.001993715763092041,0.03230571001768112,-0.02671874687075615,-0.024332651868462563,0.04553346784112069,0.16277664572822217,0.04438900046273919
3.3052430152893066,0.003016248345375061,0.0014912374317646027,0.004404425621032715,0.027599487453699112,-0.019546277821063995,-0.02985258586704731,0.04528422979251475,0.16284700784694503,0.04405706418678045
3.313533067703247,-0.0014222264289855957,-0.0012343265116214752,0.006666243076324463,0.024071864783763885,-0.00886061042547226,-0.03833075612783432,0.044938686825871155,0.16291999011231922,0.043663046938437124
3.3234920501708984,-0.0048469603061676025,-0.00419216975569725,0.0056504011154174805,0.024154921993613243,-0.0012935041449964046,-0.038312967866659164,0.04460502895668158,0.16297084284006516,0.043240617142850206
3.3335070610046387,-0.006250321865081787,-0.004920288920402527,0.0029630064964294434,0.030662091448903084,0.015108639374375343,-0.03929434344172478,0.04436494802961043,0.16295314728167756,0.04280562811691996
3.3436849117279053,-0.006009280681610107,-0.004021342843770981,0.002476990222930908,0.051622264087200165,0.017780056223273277,-0.03810065984725952,0.0443636240890013,0.16303367565887142,0.042366924614907084
3.355811834335327,-0.006113529205322266,-0.0018524862825870514,0.006199836730957031,0.07797424495220184,0.02422623708844185,-0.03672034293413162,0.04467121098986622,0.16323455146679247,0.041890971216808785
3.363553047180176,-0.007366642355918884,-0.002148006111383438,0.011107444763183594,0.10204853862524033,0.020693331956863403,-0.034705132246017456,0.04524602361318887,0.16348843248516748,0.04139747884638356
3.3736488819122314,-0.008439183235168457,-0.004869356751441956,0.012931883335113525,0.10872375220060349,0.014495090581476688,-0.03680902719497681,0.04609611420060528,0.16376252063022614,0.04086432054179588
3.383599042892456,-0.00763191282749176,-0.007859509438276291,0.013940513134002686,0.09570255875587463,0.02700156159698963,-0.03594499081373215,0.046982654953125466,0.16406499736736485,0.04033024270506919
3.3935279846191406,-0.006472975015640259,-0.016614526510238647,0.012248218059539795,0.07311362773180008,0.025883033871650696,-0.025811929255723953,0.047749987126516895,0.1643040273270671,0.03990023781868538
3.404744863510132,-0.006434723734855652,-0.02323094755411148,0.009600937366485596,0.05273142084479332,0.028788186609745026,-0.02561272494494915,0.04835166147677333,0.16445581425786668,0.03954004852332121
3.413444995880127,-0.006606727838516235,-0.024971865117549896,0.010913252830505371,0.05166668817400932,0.033246319741010666,-0.004800920374691486,0.048854379445418906,0.16458798085791665,0.03930649993227936
3.4282939434051514,-0.007652193307876587,-0.023587577044963837,0.006952106952667236,0.05879320949316025,0.020496612414717674,0.006682310253381729,0.04936954241229286,0.16467760916088922,0.03924228270188356
3.4381940364837646,0.000876009464263916,-0.015084829181432724,-0.0007052421569824219,0.07012709230184555,-0.00853637047111988,0.015307489782571793,0.049968974011994044,0.1645756425406624,0.039253452314543386
3.4446699619293213,0.013688340783119202,-0.01235537976026535,-0.0014036893844604492,0.05744529888033867,-0.034819506108760834,0.015578599646687508,0.05057822278466554,0.16418319553817373,0.03931326754768805
3.4540860652923584,0.020419463515281677,-0.015112113207578659,0.0008632540702819824,0.02616088092327118,-0.06489991396665573,0.0034226011484861374,0.051041695615565215,0.16351917236520583,0.03935951653201716
3.4634759426116943,0.020745590329170227,-0.01836477220058441,0.005550086498260498,-0.008823268115520477,-0.09518395364284515,-0.019365057349205017,0.05122249245495786,0.16260133942462196,0.03927674235861617
3.473449945449829,0.021895408630371094,-0.021793756633996964,0.007227957248687744,-0.02598920464515686,-0.10649865865707397,-0.03646867349743843,0.05133369546192753,0.16152854298524183,0.039019552624691
3.483376979827881,0.02176608145236969,-0.012164410203695297,-0.0017562508583068848,-0.003549410030245781,-0.12484171986579895,-0.026761986315250397,0.05164032849733791,0.16036206964684452,0.03872974059688096
3.4933650493621826,0.020085662603378296,0.013200223445892334,-0.017258882522583008,0.04392676427960396,-0.13740544021129608,-0.020355485379695892,0.05236299291443786,0.1590700770334983,0.03846778801986865
3.5036189556121826,0.015490740537643433,0.03251373767852783,-0.021586358547210693,0.09336728602647781,-0.14437919855117798,-0.013048037886619568,0.05353545407179678,0.15767393254982448,0.038196244911647394
3.5133750438690186,0.00604403018951416,0.03348567709326744,-0.020155251026153564,0.11669577658176422,-0.1378408670425415,-0.005316348746418953,0.054845005771576145,0.15646446198967337,0.03793571252264981
3.5234148502349854,-0.006012812256813049,0.029504384845495224,-0.012213647365570068,0.12533099949359894,-0.1132516860961914,-0.00408511608839035,0.056221672094288355,0.1557363578893996,0.037669937052429735
3.5337159633636475,-0.021409347653388977,0.018792901188135147,-0.0028061270713806152,0.1302710473537445,-0.08795183897018433,-0.00025559699861332774,0.05770436626461808,0.1554406537964316,0.0374124930197659
3.543609857559204,-0.03507348895072937,0.013083796948194504,0.0045198798179626465,0.1388607621192932,-0.0611763633787632,0.0026793661527335644,0.0593222533033656,0.15541671565826135,0.03717703549771115
