timestamp,accel_x,accel_y,accel_z,rotation_x,rotation_y,rotation_z, pitch,roll,yaw
0.03586912155151367,-0.0055033862590789795,0.009460993111133575,0.002139568328857422,0.008508417755365372,-0.01563631370663643,0.006946016568690538,0.07000406450292997,0.12805317392516471,-0.004490082271689187
0.04914212226867676,-0.007848843932151794,0.009817108511924744,0.005539000034332275,-0.009177900850772858,-0.0020667086355388165,0.006977973971515894,0.07000924157422955,0.12795624402778744,-0.004421317033246575
0.06333804130554199,-0.012418165802955627,0.0062988996505737305,0.00595933198928833,-0.01744210720062256,0.004606418777257204,0.0028908210806548595,0.06987816479618882,0.12796206785808178,-0.004340774626977783
0.06637001037597656,-0.01203109323978424,0.005013316869735718,0.0037171244621276855,-0.01032134611159563,0.008849632926285267,-0.0002495782682672143,0.06973665022751471,0.12803227133185252,-0.004312326489612916
0.0675039291381836,-0.008706077933311462,0.005731463432312012,0.0042768120765686035,-0.000680553144775331,0.0020684704650193453,-0.0017131983768194914,0.0696917451869048,0.1280949719385999,-0.004313833924001559
0.07380414009094238,-0.007340148091316223,0.009895332157611847,0.006048858165740967,0.0012691470328718424,-0.006281870882958174,-0.0066506993025541306,0.06970525954836031,0.12807167923264823,-0.004346889794383763
0.08385419845581055,-0.003259316086769104,0.008797280490398407,0.004443347454071045,-0.00920077133923769,-0.0063911499455571175,-0.009392955340445042,0.0696599535395,0.1280027728412293,-0.004416110563280246
0.09421014785766602,-0.0006849616765975952,0.003229595720767975,0.006264805793762207,-0.021481139585375786,-0.008596247062087059,-0.01046940591186285,0.06949347391424242,0.12792860786690854,-0.004487317475370335
0.10387516021728516,-0.0005067437887191772,-0.0024379342794418335,0.006997346878051758,-0.025372551754117012,-0.011527322232723236,-0.012358917854726315,0.06924221158634003,0.12782335311319903,-0.00456497511343889
0.11383605003356934,-0.0019562244415283203,-0.00467798113822937,0.00806659460067749,-0.022989287972450256,-0.010930774733424187,-0.010174061171710491,0.06898519699214113,0.12771301395597368,-0.004645710360373214
0.12378907203674316,-0.003921061754226685,0.00010300427675247192,0.009204387664794922,-0.01951010152697563,-0.0009195073507726192,-0.009163657203316689,0.06876075494866361,0.1276457422539087,-0.004715442728324492
0.1341562271118164,-0.008604422211647034,0.003144778311252594,0.006863057613372803,-0.014088436961174011,0.005734667181968689,-0.005341755226254463,0.06858251717842705,0.12767392011060566,-0.0047683235881950435
0.14530420303344727,-0.013173341751098633,0.0010749101638793945,0.005943000316619873,-0.007044509518891573,0.01288649719208479,-0.004120802506804466,0.0684655004893145,0.12777202421239467,-0.004802815301821112
0.1542661190032959,-0.016193285584449768,0.0013101771473884583,0.005437970161437988,-0.001759998849593103,0.01821761205792427,0.0002720816992223263,0.06842601354883529,0.12792456577063446,-0.004811130369483197
0.16426897048950195,-0.015936091542243958,0.0011287406086921692,0.0068035125732421875,0.0033964633475989103,0.018000520765781403,0.0053793322294950485,0.06844297745789202,0.12809656488792248,-0.0047809778848257834
0.17437505722045898,-0.01441967487335205,-0.0017665326595306396,0.005007028579711914,0.008962203748524189,0.015920059755444527,0.01120046991854906,0.06852336588916336,0.1282610629538684,-0.004706215403312527
0.1842632293701172,-0.01186002790927887,-0.0018119066953659058,0.0037941336631774902,0.013676365837454796,0.009647870436310768,0.015997568145394325,0.06864611186389093,0.12837395235267504,-0.004579981830018745
0.19418907165527344,-0.008034348487854004,-0.0017603561282157898,0.0021042823791503906,0.015173593536019325,0.003262143349274993,0.02029431238770485,0.06904957978060734,0.12836646647637023,-0.004414165755393311
0.20426511764526367,-0.004520103335380554,-0.0009280741214752197,0.002705395221710205,0.012347914278507233,-0.0013608378358185291,0.020603397861123085,0.0692261548537696,0.12822447496457878,-0.004226778332235469
0.21404600143432617,-0.00309029221534729,0.0009779557585716248,-0.00010222196578979492,0.00709456205368042,-0.00046175485476851463,0.01732691191136837,0.06920953926598629,0.1278741869713057,-0.004034720287174098
0.2241840362548828,-0.00290679931640625,0.0021003559231758118,-0.00235748291015625,0.0023471780586987734,-0.0031350357457995415,0.014784871600568295,0.06921806742635396,0.1273649906573847,-0.0038495902494985264
0.23424625396728516,-0.00537697970867157,0.0020280256867408752,-0.0024757981300354004,0.00034075253643095493,-0.007384908385574818,0.009153617545962334,0.06919144930890608,0.1267461963204253,-0.0036835449742751813
0.24420714378356934,-0.006811410188674927,0.004571706056594849,-0.000247955322265625,-0.006178698968142271,-0.006989606190472841,0.0043436819687485695,0.06912571685698088,0.12617524540187736,-0.00358601120804425
0.25424623489379883,-0.008009284734725952,0.00924140214920044,0.00014770030975341797,-0.007567271590232849,-0.002324014436453581,0.0001824930077418685,0.06911093466992643,0.12570494264575308,-0.0035271408452752936
0.26415514945983887,-0.00944170355796814,0.008644483983516693,-8.618831634521484e-05,-0.004802843555808067,-0.0028398684225976467,-0.0025218406226485968,0.06910911010102293,0.12537924572001244,-0.0035006369091471097
0.27411913871765137,-0.010340817272663116,0.008005253970623016,-0.0017409324645996094,0.002703808480873704,-0.008039424195885658,-0.00471442099660635,0.0691566346935673,0.1251626729365458,-0.0035165610799241043
0.2841670513153076,-0.00831373780965805,0.009876251220703125,0.00037604570388793945,0.0004478448536247015,-0.007493475917726755,-0.005742933601140976,0.06921196087047399,0.1250421778421234,-0.00356585429433982
0.2946960926055908,-0.007622547447681427,0.00845722109079361,0.0054239630699157715,-0.004875015467405319,-0.005337913986295462,-0.0029053357429802418,0.06915080898064932,0.12497539643938486,-0.0036110785085001432
0.30418825149536133,-0.008260957896709442,0.002871498465538025,0.007212400436401367,-0.004653207026422024,-0.006165091414004564,-0.0026108436286449432,0.06902745031456708,0.12489476642345733,-0.0036316702723337303
0.314176082611084,-0.007346093654632568,0.0027028024196624756,0.006770610809326172,-0.0004616579972207546,-0.010621892288327217,-0.004452153109014034,0.06893483127294427,0.12469424298332553,-0.003661301257077162
0.3244190216064453,-0.004386112093925476,0.0033506304025650024,0.006465256214141846,-0.0034012552350759506,-0.01190988440066576,-0.005162471439689398,0.06877354717156305,0.1244156046670216,-0.0036917996963278265
0.33440613746643066,-0.0018608644604682922,0.005622990429401398,0.008146941661834717,-0.008336358703672886,-0.012362089939415455,-0.008821920491755009,0.06843587274289264,0.12408140296983122,-0.003741799970424567
0.34429407119750977,-0.003811188042163849,0.002982392907142639,0.01183176040649414,-0.017310112714767456,-0.00767013244330883,-0.008801627904176712,0.0680526800500058,0.12373624020234057,-0.0038010489229736255
0.3543710708618164,-0.006900601089000702,0.0007724910974502563,0.011470615863800049,-0.024170683696866035,-0.00011341320350766182,-0.010173155926167965,0.06762708525169338,0.12343162428260986,-0.003853256788277369
0.3644371032714844,-0.00635383278131485,-0.0014332681894302368,0.010224759578704834,-0.01449247170239687,0.0037829247303307056,-0.008807859383523464,0.06717506044729618,0.12326090111392322,-0.003911731666103042
0.37433624267578125,-0.006057485938072205,8.519738912582397e-05,0.008377134799957275,0.000576758524402976,0.00794997252523899,-0.005126039031893015,0.06692292661830333,0.1231598403777658,-0.003964523194669282
0.38449716567993164,-0.005792930722236633,0.004436947405338287,0.0087929368019104,0.013516109436750412,0.011108793318271637,-0.0005054547218605876,0.06698710936823773,0.12309353542267315,-0.003989306326289268
0.3957681655883789,-0.004640236496925354,0.008084900677204132,0.008206665515899658,0.014307068660855293,0.011760467663407326,-0.0012450144859030843,0.0671258531123038,0.12307091614911758,-0.004000491222813039
0.40442514419555664,-0.004837192595005035,0.006304949522018433,0.0064705610275268555,0.004891295917332172,0.013393696397542953,-0.002743735443800688,0.06719236645616204,0.1231316853488148,-0.004026653678663263
0.4144320487976074,-0.0036571696400642395,0.001544766128063202,0.007389426231384277,-0.00556560605764389,0.014286387711763382,-0.007437556516379118,0.06707057417599625,0.12329503006261959,-0.004074366544612599
0.4245030879974365,-0.0044334158301353455,-0.0021434351801872253,0.008030056953430176,-0.010367401875555515,0.010509980842471123,-0.01106957532465458,0.0669373808933133,0.12336900606788025,-0.004149338681456999
0.43466711044311523,-0.006762266159057617,-0.003208532929420471,0.007412850856781006,-0.0020125331357121468,0.00820767879486084,-0.014343399554491043,0.06687922577237984,0.12333189684558421,-0.004256544952308212
0.44515204429626465,-0.004120983183383942,0.00032147765159606934,0.006166636943817139,0.010997574776411057,-0.00031283916905522346,-0.013501787558197975,0.06697623175231253,0.1232387198973676,-0.0043914729425046746
0.45443201065063477,-0.0011485666036605835,0.004480019211769104,0.002770721912384033,0.018349764868617058,-0.0020156647078692913,-0.013520696200430393,0.06712203816462173,0.12310432136512996,-0.004533092179673926
0.46448516845703125,-0.00029387325048446655,0.008344680070877075,0.0008025765419006348,0.015216721221804619,-0.006200733594596386,-0.012548482045531273,0.06717211390488051,0.12295043509263062,-0.004676157664575917
0.47449493408203125,-0.0017782822251319885,0.0023438557982444763,0.00011038780212402344,0.003333696397021413,-0.0018712328746914864,-0.010509033687412739,0.06704563853142254,0.12281505152277733,-0.004805997374211434
0.4846160411834717,-0.0034812018275260925,-0.0024247318506240845,0.0009287595748901367,-0.009735800325870514,-0.0006596720777451992,-0.008297811262309551,0.06685425580375433,0.12271488578642017,-0.004888520631784508
0.4950430393218994,-0.0027919411659240723,-0.00626131147146225,0.0019524097442626953,-0.008970407769083977,-0.0021076323464512825,-0.002642854582518339,0.0667252637168935,0.12264954224936879,-0.004929632682777739
0.5045590400695801,-0.0008453354239463806,-0.006398998200893402,-0.0006607770919799805,-0.002618385711684823,-0.0034986454993486404,0.0028115124441683292,0.0667402108745938,0.12254839388604809,-0.004927848256104478
0.5146279335021973,-0.0001179426908493042,-0.0014030560851097107,-0.00011050701141357422,0.004210225772112608,-0.008511779829859734,0.005715955980122089,0.06685358806458157,0.122354091031574,-0.004873388598486058
0.5245721340179443,-0.0007048025727272034,0.002693556249141693,-0.0010901093482971191,0.010244249366223812,-0.00961974449455738,0.004078484605997801,0.06693733511078101,0.12220780325106398,-0.004820560079777618
0.534581184387207,-0.0008637979626655579,0.003972359001636505,-0.00011646747589111328,0.013805695809423923,-0.014408107846975327,0.00011223868932574987,0.06696497920079302,0.12209123793803826,-0.004820095875441874
0.5446572303771973,-0.0013917386531829834,0.0011998564004898071,0.0017696022987365723,0.0075738816522061825,-0.017547396942973137,-0.007311269640922546,0.06686253195704371,0.12194555238938928,-0.004870790637379325
0.5545549392700195,-0.00103730708360672,0.0002899169921875,0.0051836371421813965,-0.004674529191106558,-0.0172595102339983,-0.01010173000395298,0.06680695695933143,0.12175669728046125,-0.004954882264434986
0.5646331310272217,-0.00014123320579528809,-0.0010691359639167786,0.005428910255432129,-0.01741921901702881,-0.017589297145605087,-0.011013702489435673,0.06674476850374318,0.12152932013905386,-0.0050481135489989235
0.5747790336608887,-0.0009074881672859192,-0.0034905225038528442,0.00843113660812378,-0.026055851951241493,-0.01426460687071085,-0.012567657046020031,0.06667306610927687,0.12134720228199698,-0.005137663191397246
0.5852301120758057,-0.0011537149548530579,-0.0026979222893714905,0.01083827018737793,-0.03439638763666153,-0.01377622876316309,-0.011838111095130444,0.06651928631114604,0.12120941260807556,-0.005219806848720551
0.595102071762085,-0.0007436498999595642,-0.005205661058425903,0.013937175273895264,-0.03847422078251839,-0.006717519834637642,-0.012791522778570652,0.0661775507168526,0.12113156122328204,-0.005310551207019778
0.6046221256256104,-0.0003596693277359009,-0.006608977913856506,0.017522037029266357,-0.0314694419503212,-0.0007479554042220116,-0.010299761779606342,0.06576515350977585,0.12111030673345283,-0.005374433627881451
0.6146790981292725,-0.002245105803012848,-0.005071021616458893,0.01699209213256836,-0.014273676089942455,0.0018158697057515383,-0.007616094779223204,0.06545612353586917,0.12111651716112325,-0.005439368506140092
0.6246671676635742,-0.0021868273615837097,0.0011741891503334045,0.014136552810668945,0.002456101356074214,0.00996185839176178,-0.003218363504856825,0.06539932695812248,0.1211650571612854,-0.005482177861191612
0.6347270011901855,-0.0013670697808265686,0.005920059978961945,0.010604381561279297,0.016973258927464485,0.010520055890083313,0.0039037279784679413,0.06553735019581683,0.1212782591949185,-0.005484264818683935
0.6457791328430176,-0.0017065182328224182,0.008052505552768707,0.007232308387756348,0.01834726519882679,0.009682004339993,0.0012884505558758974,0.06579351087929736,0.12139193389493318,-0.005485409865281895
0.6548421382904053,-6.809830665588379e-05,0.007312178611755371,0.00720137357711792,0.008705291897058487,0.015132163651287556,0.0019848672673106194,0.06604554802058052,0.12151141704129213,-0.005492795259349848
0.6649811267852783,0.00062570720911026,0.005062766373157501,0.008149385452270508,0.004149804823100567,0.010902308858931065,0.0033390847966074944,0.06620738962245058,0.12165956841533669,-0.005465782304321637
0.674828052520752,-0.0024011433124542236,0.002844870090484619,0.006463408470153809,-0.0009930250234901905,0.005433241371065378,-0.0015917582204565406,0.06637022909897361,0.12175899503284665,-0.005460948741945732
0.6849031448364258,-0.0014519914984703064,0.0024361982941627502,0.006201744079589844,-0.0022456261795014143,0.0004799836315214634,-0.001398678869009018,0.06652647137068905,0.12181875551570318,-0.005479984184933444
0.6951751708984375,0.0015266835689544678,0.0054940953850746155,0.0023969411849975586,-0.0011779649648815393,-0.0011115213856101036,-0.002199491485953331,0.06663967404373512,0.12180103144593557,-0.005489703128158712
0.7052271366119385,6.668269634246826e-05,0.004668474197387695,0.00138092041015625,0.004535014741122723,-0.005993627943098545,-0.004592661280184984,0.0666380238249019,0.12174990794954399,-0.005521616639171352
0.7164859771728516,-0.002510868012905121,0.0059224143624305725,0.0014584064483642578,0.0051310304552316666,-0.006742509081959724,-0.004473618231713772,0.06653369797934983,0.12167082779528392,-0.0055743529222614776
0.7247772216796875,-0.0027619078755378723,0.0061684176325798035,0.0023508667945861816,-0.004056042991578579,-0.0031362343579530716,-0.007744938600808382,0.06632146817484119,0.12159903796189948,-0.005632740371763317
0.7348790168762207,-0.0046757906675338745,0.003848433494567871,0.0028107762336730957,-0.009861734695732594,-0.0044286660850048065,-0.009723400697112083,0.06607614682943462,0.12158823670531553,-0.005718185662039272
0.7452349662780762,-0.004921130836009979,0.000857040286064148,0.0026723146438598633,-0.007851546630263329,-0.0048956070095300674,-0.008593687787652016,0.06586138734522788,0.12158771883593848,-0.005806156067238919
0.754817008972168,-0.003220297396183014,0.00035978853702545166,0.002843618392944336,-0.0007723323069512844,-0.008751863613724709,-0.005843974184244871,0.06576064429502719,0.12148729400177574,-0.005869713093232814
0.7649490833282471,-0.0020754262804985046,0.0006444752216339111,0.004355311393737793,0.0040312111377716064,-0.01570955105125904,-0.006353916600346565,0.06574011682761789,0.12136342309563945,-0.005936996424243452
0.7747571468353271,-0.0020428895950317383,0.003580532968044281,0.006322622299194336,0.0032200126443058252,-0.012741990387439728,-0.007928110659122467,0.06567003057929074,0.12128378688657603,-0.006017754279627055
0.7849879264831543,-0.002594098448753357,0.0025818869471549988,0.00638580322265625,-0.003016944508999586,-0.009800439700484276,-0.010186577215790749,0.06557144407408959,0.12119248972438364,-0.006107353553924882
0.7951831817626953,-0.004911497235298157,-0.0005466118454933167,0.006471216678619385,-0.00398606900125742,-0.006621424574404955,-0.012618576176464558,0.06540279191127232,0.12108135438755194,-0.006210946264136366
0.8049812316894531,-0.008047305047512054,-0.0010508820414543152,0.006674587726593018,0.0029487027786672115,-0.001790627371519804,-0.010392813012003899,0.06524914778183873,0.12099553559629078,-0.00631958216977775
0.8149571418762207,-0.007848933339118958,-0.0006097033619880676,0.006519675254821777,0.018375596031546593,-0.0068037621676921844,-0.008402366191148758,0.06527839260566627,0.120872529031293,-0.006423118661648647
0.8249711990356445,-0.006236366927623749,0.0035589784383773804,0.00701528787612915,0.02515360713005066,-0.012597557157278061,-0.007547278888523579,0.06549551615479202,0.12069432567316225,-0.0065294373827086485
0.8352279663085938,-0.0048508793115615845,0.006843440234661102,0.006670117378234863,0.013713199645280838,-0.008665665984153748,-0.006549392361193895,0.0656828526396585,0.12054487322941884,-0.006619402517265972
0.845344066619873,-0.0036406517028808594,-0.0004883259534835815,0.005882740020751953,0.004889248870313168,-0.011331580579280853,-0.003769105300307274,0.06576703245189758,0.12044829314313493,-0.006683607717813222
0.8549742698669434,-0.002584218978881836,-0.005143783986568451,0.0058743953704833984,-0.004103980027139187,-0.01672741025686264,-0.006052765995264053,0.06568904556595266,0.12030543569453242,-0.006730558220569506
0.8651132583618164,0.0010906383395195007,-0.003938294947147369,0.009003698825836182,-0.007890412583947182,-0.019342856481671333,-0.004512233659625053,0.06556675195643606,0.12010676135170231,-0.00677173373639958
0.8750052452087402,0.0003820359706878662,-0.0016538053750991821,0.01056218147277832,0.007172958925366402,-0.022535720840096474,-6.368965841829777e-05,0.06556241294325152,0.11983624048807406,-0.006794134906008608
0.8851132392883301,0.00021585822105407715,0.00208224356174469,0.008833825588226318,0.036901891231536865,-0.022957388311624527,0.0059788101352751255,0.06580472039115941,0.11948222217697327,-0.006776042959876307
0.895949125289917,0.0012739002704620361,0.011918418109416962,0.006545305252075195,0.06449410319328308,-0.035765063017606735,0.005351369269192219,0.06634948912946359,0.11905006961164133,-0.006770574533934812
0.905055046081543,0.003385379910469055,0.0206882506608963,0.004090011119842529,0.06518922746181488,-0.040781836956739426,-0.0038657248951494694,0.06692662980039041,0.11858681382054953,-0.006832508348273067
0.9150829315185547,0.002906613051891327,0.019111014902591705,0.008978664875030518,0.026028504595160484,-0.04359040409326553,-0.013881075195968151,0.06721160310902613,0.11811744946744276,-0.006969126366725085
0.9250280857086182,-0.0013387277722358704,0.004700317978858948,0.017625629901885986,-0.025866052135825157,-0.0508655421435833,-0.027072245255112648,0.06717460964243702,0.11765858830336615,-0.00717199544847137
0.9351639747619629,-0.0021870508790016174,-0.009187564253807068,0.0259932279586792,-0.07692763954401016,-0.07256683707237244,-0.03353014215826988,0.06672872173925663,0.11707907196400086,-0.007409507582138249
0.9454522132873535,-0.0012249425053596497,-0.014895595610141754,0.03166818618774414,-0.12648148834705353,-0.1020217165350914,-0.033502500504255295,0.06574876928151004,0.1163315820071606,-0.007639898611345639
0.9550800323486328,0.0019705817103385925,-0.021463796496391296,0.03568607568740845,-0.15662874281406403,-0.13590112328529358,-0.017127787694334984,0.06431975538578583,0.11523666786491481,-0.007748991466254566
0.9660329818725586,0.005460821092128754,-0.018252335488796234,0.04220396280288696,-0.18292193114757538,-0.17086824774742126,0.041773080825805664,0.06266031873570639,0.11385883678576661,-0.0074384750844114726
0.9751119613647461,0.013411298394203186,-0.000254850834608078,0.0463484525680542,-0.23578567802906036,-0.2514728009700775,0.02073730155825615,0.06055798518546099,0.11179719838343913,-0.0068218685582206095
0.9852609634399414,0.023256875574588776,0.019074667245149612,0.057222723960876465,-0.359049916267395,-0.3458506166934967,-0.029809601604938507,0.057466961313775176,0.10891278846843092,-0.006573335448917588
0.995476245880127,0.02990970015525818,-0.03390343487262726,0.06606698036193848,-0.5537890195846558,-0.4397909641265869,-0.07908500730991364,0.052852199387916354,0.10504294679341793,-0.006620570232782752
1.0051250457763672,0.019605062901973724,-0.10115058720111847,0.07017266750335693,-0.8836973309516907,-0.5163896679878235,-0.181851327419281,0.045777095727205785,0.10037370303726771,-0.007164676979965792
1.015308141708374,0.01720467209815979,-0.10789711773395538,0.08546680212020874,-1.534391164779663,-0.5478906035423279,-0.3801039457321167,0.033878842813756256,0.0951455606056652,-0.008828183631598914
1.0251960754394531,0.013066187500953674,-0.10803070664405823,0.10580319166183472,-2.502882242202759,-0.5538382530212402,-0.577940046787262,0.013567075838259992,0.08963173359934508,-0.011671611740303778
1.0352230072021484,-0.004086501896381378,-0.21301044523715973,0.13030165433883667,-3.7681498527526855,-0.5400257706642151,-0.9640781283378601,-0.01824819578086767,0.0841100419407758,-0.016586051383809065
1.0453929901123047,-0.024114124476909637,-0.35090014338493347,0.16845977306365967,-5.006977081298828,-0.5287187099456787,-1.2861723899841309,-0.06306956877421296,0.0785195778118889,-0.024277196872324085
1.055246114730835,-0.0498388409614563,-0.4013563394546509,0.20705968141555786,-6.055070877075195,-0.7016279101371765,-1.6546231508255005,-0.11952088285836644,0.07157418834257079,-0.0347223363416179
1.0653491020202637,-0.025046303868293762,-0.37809479236602783,0.20609647035598755,-7.044450759887695,-0.8481884598731995,-2.0250260829925537,-0.18603544978555772,0.06142254020665045,-0.04907185683039248
1.0752160549163818,0.006817348301410675,-0.3042730689048767,0.24346399307250977,-8.065887451171875,-1.1603628396987915,-2.2512996196746826,-0.2628559164474232,0.04747345869385007,-0.06679796286554746
1.085299015045166,0.009181546047329903,-0.23724061250686646,0.2619086503982544,-9.249449729919434,-1.5037802457809448,-2.4442121982574463,-0.3502541795188452,0.027673617349675914,-0.08797753643573168
1.095433235168457,-0.01321860309690237,-0.19913557171821594,0.29719239473342896,-10.5530424118042,-1.5858747959136963,-2.533670425415039,-0.4495703516916153,0.0022076479903623157,-0.11350716504648689
1.1053252220153809,-0.01866871491074562,-0.20481204986572266,0.3241049647331238,-12.046928405761719,-1.5615941286087036,-2.4373462200164795,-0.5623202383121488,-0.028329590036611882,-0.14384016596864585
1.1153631210327148,-0.044775258749723434,-0.18202722072601318,0.27208411693573,-13.690030097961426,-1.4927860498428345,-2.167595386505127,-0.6898660864648655,-0.06466625590507201,-0.17970882540803598
1.1253180503845215,-0.0673460066318512,-0.11706995964050293,0.22786688804626465,-15.242262840270996,-1.3742886781692505,-1.8540133237838745,-0.8326769052664643,-0.1102118046638446,-0.22484220424835086
1.135404109954834,-0.06094813346862793,-0.0142747163772583,0.15927237272262573,-16.327207565307617,-1.2139053344726562,-1.673231840133667,-0.9870505943159793,-0.17446142010996668,-0.2896074815103055
1.145928144454956,-0.011876694858074188,0.055974721908569336,0.07028639316558838,-17.138206481933594,-0.8454506397247314,-1.783591866493225,-1.1466782438449687,-0.2850018360673156,-0.4034743376606456
1.1554179191589355,0.01705940067768097,0.07822239398956299,-0.014873325824737549,-17.259902954101562,-0.6018425226211548,-1.9692552089691162,-1.298399897845143,-0.5279318629733762,-0.6538146545669808
1.1655611991882324,-0.04386188089847565,0.18299764394760132,-0.09494757652282715,-16.794193267822266,-0.432182252407074,-2.255389928817749,-1.4002368531290594,-1.1793940808389247,-1.314165500297703
1.175525188446045,-0.09808145463466644,0.3491167426109314,-0.14425776898860931,-15.885190963745117,-0.3503446578979492,-2.679075002670288,-1.3638234518771741,-2.0628071148432743,-2.207714006762303
1.1856379508972168,-0.1134006530046463,0.3968003988265991,-0.1953110694885254,-15.023244857788086,-0.4502549171447754,-3.069291114807129,-1.2418555868516246,-2.4407551733329904,-2.5941352421734307
1.195681095123291,-0.11542347073554993,0.3217718005180359,-0.24767667055130005,-14.016501426696777,-0.40841159224510193,-3.1092655658721924,-1.1052135928891382,-2.5891140667170434,-2.749948422914159
1.2056069374084473,-0.08969968557357788,0.25800687074661255,-0.1956486999988556,-12.683438301086426,-0.23564814031124115,-3.141806125640869,-0.973424549791477,-2.6590442530850864,-2.8269395921048273
1.2156119346618652,-0.08982124924659729,0.3726794719696045,-0.2719224691390991,-10.846420288085938,0.02005794644355774,-3.0737550258636475,-0.8536413567260108,-2.6926970325880553,-2.868183417819927
1.225480079650879,-0.0942225456237793,0.48951923847198486,-0.32605797052383423,-8.504169464111328,-0.10459281504154205,-2.758058547973633,-0.7534464805643442,-2.708493577980562,-2.8894289592128315
1.2354979515075684,-0.007365494966506958,0.5326212644577026,-0.2757667899131775,-5.793137073516846,-0.42255082726478577,-2.422349214553833,-0.6772275937395779,-2.7163605427884505,-2.8979812214723575
1.2456080913543701,0.07886546850204468,0.6777573227882385,-0.1266433596611023,-3.2177047729492188,-0.9487816095352173,-2.1032721996307373,-0.6272893503515871,-2.7216749979696657,-2.895053228603576
1.2554559707641602,0.11844170093536377,0.8793600797653198,-0.0992347002029419,-1.6009039878845215,-1.0898466110229492,-1.8047224283218384,-0.5980017408524405,-2.72622540386949,-2.884793159204945
1.2655739784240723,0.18255731463432312,0.6969150900840759,-0.02837049961090088,-1.0482399463653564,-0.849980354309082,-1.473165512084961,-0.5797024523307471,-2.729510105916063,-2.872879367488436
1.2755470275878906,0.1086052656173706,0.36573320627212524,0.0083085298538208,-1.1424673795700073,-0.4042891561985016,-1.17953360080719,-0.564644142539127,-2.7308015303567714,-2.8635118121256395
1.2856111526489258,0.012501507997512817,0.06713825464248657,0.04905122518539429,-1.2975469827651978,0.0162796750664711,-0.867867648601532,-0.549270005986073,-2.729843803462917,-2.858247242128421
1.2955641746520996,-0.01784762740135193,-0.13927531242370605,0.08067119121551514,-1.1619298458099365,0.21978379786014557,-0.6223276853561401,-0.5348158083344532,-2.727453503982727,-2.8562082752003386
1.3056180477142334,-0.019391685724258423,-0.1543315052986145,0.10301458835601807,-0.6854435801506042,0.20172813534736633,-0.4239943027496338,-0.5241676462329888,-2.724660605648668,-2.855064436584608
1.3155732154846191,0.00966101884841919,-0.04108583927154541,0.11976230144500732,-0.18275249004364014,0.10257945209741592,-0.2650105059146881,-0.5189289533462997,-2.722281334865467,-2.8534487018312467
1.3256020545959473,0.03326055407524109,0.015061110258102417,0.1067497730255127,0.04531104117631912,0.06422939896583557,-0.15506508946418762,-0.5175827117799509,-2.720553944643478,-2.851479099578035
1.3356809616088867,0.037197232246398926,-0.015770673751831055,0.08424639701843262,0.038704004138708115,0.06883853673934937,-0.02234034053981304,-0.5178036282809465,-2.7193236031048404,-2.8502815302062046
1.3458900451660156,0.02060455083847046,-0.08304703235626221,0.05543273687362671,-0.0873086228966713,0.06976868212223053,0.0604061521589756,-0.5176637068316444,-2.718732192189458,-2.8506456669432505
1.3556241989135742,0.009306550025939941,-0.13437828421592712,0.055462539196014404,-0.1301298439502716,0.02350878156721592,0.12169001996517181,-0.517014899924019,-2.71898342128557,-2.8521246875601687
1.3656470775604248,0.017114847898483276,-0.11556929349899292,0.05639469623565674,-0.11008259654045105,-0.02109619230031967,0.17179781198501587,-0.5165294692530891,-2.720036085525277,-2.8542846493189336
1.3756442070007324,0.010627597570419312,-0.10046252608299255,0.022138357162475586,-0.05189305543899536,-0.06778114289045334,0.18343210220336914,-0.516581438617829,-2.7215637709843863,-2.8565292454457447
1.385688066482544,0.01143994927406311,-0.07253038883209229,-0.015775680541992188,-0.05397719517350197,-0.05857188254594803,0.19023610651493073,-0.5168522747169834,-2.723277467964992,-2.8586951656755133
1.3959879875183105,0.01459851861000061,-0.04342001676559448,-0.038267672061920166,-0.09699683636426926,-0.011829146184027195,0.21102580428123474,-0.516996624174661,-2.724892387787677,-2.861173161246166
1.405703067779541,0.0003553330898284912,-0.04872196912765503,-0.027211666107177734,-0.11603020131587982,0.022031303495168686,0.22209538519382477,-0.5169347563237107,-2.726221335441416,-2.863978755805108
1.4156601428985596,-0.006415426731109619,-0.025515764951705933,-0.015641331672668457,-0.07372722029685974,0.059630345553159714,0.2133764624595642,-0.5169023504876494,-2.7271256544403553,-2.8667060462870646
1.425652027130127,-0.009270042181015015,0.023856669664382935,-0.01075965166091919,0.003857190487906337,0.07093155384063721,0.20209915935993195,-0.5174524393723123,-2.727622355487682,-2.8691013832061616
1.4356932640075684,-0.019422143697738647,0.027180761098861694,-0.009194910526275635,0.09520760923624039,0.06460468471050262,0.17739301919937134,-0.5186844011812294,-2.727799857489501,-2.8708602844040283
1.4458389282226562,-0.022767096757888794,0.03086712956428528,-0.0037699341773986816,0.1452118307352066,0.0455249547958374,0.1539790779352188,-0.5205023972393029,-2.7278272570532516,-2.872048946560418
1.455651044845581,-0.018332093954086304,0.058534324169158936,0.0011525750160217285,0.17525336146354675,0.009036187082529068,0.1237623319029808,-0.5225753751243437,-2.7278875792113575,-2.8727667039307536
1.4658150672912598,-0.02060684561729431,0.05461549758911133,-0.006334900856018066,0.16039344668388367,-0.04470369219779968,0.07218360900878906,-0.5242281913599971,-2.728163028137791,-2.873020617511971
1.4757251739501953,-0.02210482954978943,0.0243414044380188,-0.010251164436340332,0.03984678164124489,-0.04994426295161247,-0.013362983241677284,-0.5251457268423699,-2.728568799230755,-2.8728270323409535
1.485806941986084,-0.020362377166748047,0.007133543491363525,-0.006903648376464844,-0.07392965257167816,-0.03571747988462448,-0.01575077325105667,-0.5247708809263459,-2.7288911010869668,-2.8726732604570815
1.4958560466766357,-0.0260755717754364,-0.03411182761192322,-0.022242963314056396,-0.14041227102279663,-0.029365044087171555,-0.03386399522423744,-0.5234678764080155,-2.729248106502458,-2.8729130794921476
1.505749225616455,-0.031295180320739746,-0.04960551857948303,-0.02912217378616333,-0.06978584080934525,-0.05660199001431465,-0.03340577334165573,-0.5224356122298752,-2.729682623999843,-2.873008659171024
1.5158061981201172,-0.012603908777236938,0.0049247145652771,-0.011594414710998535,0.003953363746404648,-0.0680202916264534,-0.01902363821864128,-0.5221592597619736,-2.7300796703207593,-2.8727957771766923
1.5257649421691895,-0.004099369049072266,0.014718294143676758,-0.012781977653503418,0.055090419948101044,-0.06315984576940536,-0.0004503806121647358,-0.5225845786067177,-2.7303693977332855,-2.8724147713473993
1.5358471870422363,-0.008098125457763672,-0.0014691352844238281,-0.013250946998596191,0.0660272166132927,-0.04583731293678284,0.021887946873903275,-0.5237623390149163,-2.730593244133374,-2.8721277930771896
1.545863151550293,-0.005000114440917969,0.0011359453201293945,-8.690357208251953e-05,0.04000743851065636,-0.007568844128400087,0.03937463462352753,-0.5250893679125592,-2.730469665542361,-2.8719788562363675
1.5558230876922607,-0.0034686625003814697,0.0011157393455505371,0.010582566261291504,0.0379759781062603,0.014703970402479172,0.046531081199645996,-0.5259769767884189,-2.730007088137524,-2.872004787968555
1.565885066986084,-0.004179477691650391,-0.015809714794158936,0.014664173126220703,0.061798904091119766,0.012201176956295967,0.04722435772418976,-0.5267045355723738,-2.7294100092267497,-2.8719756362020834
1.5759902000427246,0.0007429718971252441,-0.00745081901550293,0.02168339490890503,0.07784471660852432,0.016152242198586464,0.03321400284767151,-0.5267786853345291,-2.728319832253729,-2.87155750242319
1.5870051383972168,0.008873999118804932,0.008617758750915527,0.030931174755096436,0.11218875646591187,0.01427653431892395,0.041267186403274536,-0.5267242539327727,-2.7269286596196087,-2.870906621382244
1.5970072746276855,0.010822087526321411,-0.002440929412841797,0.0370025634765625,0.10500700771808624,0.02060047537088394,0.009658126160502434,-0.5279205494745939,-2.7262808077211975,-2.8704875746894034
1.6060142517089844,0.014886230230331421,0.005347728729248047,0.032735228538513184,0.09038913249969482,0.03610775247216225,0.005454166792333126,-0.5291848660962061,-2.7256198638746714,-2.8699793618194125
1.615934133529663,0.014979034662246704,0.010212481021881104,0.031034231185913086,0.06975442916154861,0.05526173859834671,0.008982589468359947,-0.5298424421547705,-2.724674800557485,-2.869533413049755
1.625932216644287,0.010579466819763184,-0.008186638355255127,0.023737788200378418,0.08290332555770874,0.06178160011768341,0.014868228696286678,-0.5303696068019527,-2.723983163118123,-2.8693079737556197
1.6359672546386719,0.0166720449924469,0.0009292960166931152,0.017030835151672363,0.10624166578054428,0.05089752748608589,0.014236260205507278,-0.5309634841108147,-2.7235712950642674,-2.869179316667582
1.6462581157684326,0.01978418231010437,0.01902705430984497,0.008357226848602295,0.12411974370479584,0.04858608543872833,-0.00031929975375533104,-0.5309981434312288,-2.7231564775907775,-2.868870871029332
1.6558821201324463,0.01979103684425354,0.017342209815979004,0.0034644007682800293,0.13304638862609863,0.048638276755809784,0.01705729402601719,-0.5314300849430617,-2.7230154967433244,-2.868655816082939
1.6660652160644531,0.009072840213775635,-0.0017989277839660645,-0.0044939517974853516,0.18291816115379333,0.03199063986539841,0.02149539813399315,-0.5325533663603953,-2.7233499233163267,-2.8686537866020543
1.6760220527648926,0.012650787830352783,0.0008109807968139648,-0.006714820861816406,0.273952454328537,0.001524076098576188,0.029850000515580177,-0.5339522516158954,-2.723923678683619,-2.868436234837612
1.6861371994018555,0.0194055438041687,0.018109798431396484,-0.003918170928955078,0.3499501049518585,-0.026478217914700508,0.029606536030769348,-0.5365477339040189,-2.7246253786670427,-2.867870842347062
1.6961889266967773,0.02048763632774353,0.02189922332763672,-0.011584222316741943,0.27366146445274353,-0.019849078729748726,0.004696125164628029,-0.5392422381065195,-2.7253340075141694,-2.8670973886702695
1.7066080570220947,0.02135753631591797,0.023875951766967773,-0.01621943712234497,0.13803504407405853,0.024072349071502686,0.02196459472179413,-0.5403176347436363,-2.725593616755385,-2.8666079667624036
1.716203212738037,0.01037493348121643,-0.005872964859008789,-0.012171328067779541,0.06375201791524887,0.027761895209550858,0.021589355543255806,-0.5408450216894035,-2.7260327242046385,-2.866852051878023
1.7261252403259277,0.002958357334136963,-0.03597980737686157,-0.01090174913406372,0.09590553492307663,0.0006823837757110596,0.005501198582351208,-0.5418076709138265,-2.726498490043484,-2.8670079637450354
1.7360961437225342,0.007752269506454468,-0.004507243633270264,-0.004573166370391846,0.17889496684074402,-0.01798131689429283,0.0035538950469344854,-0.5433117430726127,-2.7269328822705705,-2.866741868328396
1.7460711002349854,0.010021418333053589,0.01880645751953125,-0.009569048881530762,0.24689918756484985,-0.019474105909466743,0.01063886284828186,-0.5450082404503199,-2.726759395091308,-2.8658699061330974
1.756089210510254,0.008603662252426147,0.011990606784820557,-0.020613789558410645,0.3466518819332123,-0.03569595143198967,0.03222830966114998,-0.5476634176015766,-2.7266514748258834,-2.86483191437584
1.7661242485046387,0.006474584341049194,0.012206792831420898,-0.018118739128112793,0.4170651137828827,-0.04141713306307793,0.03364697843790054,-0.5516330117935956,-2.7268227219703225,-2.863628281170993
1.7761139869689941,0.012638062238693237,0.017010092735290527,-0.008104383945465088,0.4656592905521393,-0.035210903733968735,0.06627016514539719,-0.55639151339789,-2.726861046654913,-2.8623092258681835
1.7862491607666016,0.011816740036010742,0.0075917840003967285,-0.0021962523460388184,0.5381845235824585,-0.030487827956676483,0.09496396780014038,-0.5617958942128228,-2.726804525146704,-2.861034602876084
1.7961292266845703,0.010459989309310913,-0.0035675764083862305,-0.003936767578125,0.7063716650009155,-0.042835842818021774,0.12660391628742218,-0.5673286771762327,-2.7263839986636538,-2.859374973414385
1.8061840534210205,0.011159271001815796,0.0012058019638061523,0.008442282676696777,1.0454775094985962,-0.03126511722803116,0.1778111755847931,-0.5758589453037741,-2.7254130935340877,-2.8568441162269504
1.816188097000122,0.016086667776107788,0.012179791927337646,0.01666158437728882,1.5645110607147217,0.013768935576081276,0.26595833897590637,-0.5886623382207302,-2.7234373014195055,-2.852967855860274
1.826314926147461,0.01970881223678589,0.041938602924346924,0.007650256156921387,2.1662683486938477,0.0853346437215805,0.3539265990257263,-0.6069887541902041,-2.7197162828521337,-2.8471694283402367
1.8362860679626465,0.021715909242630005,0.08996742963790894,-0.025076568126678467,2.7853643894195557,0.22038887441158295,0.4706108570098877,-0.631279191565488,-2.7135999292746886,-2.839236165601694
1.8461921215057373,0.01245453953742981,0.10568106174468994,-0.04836243391036987,3.3897933959960938,0.3159814476966858,0.6099437475204468,-0.6616789949311558,-2.7047787559510477,-2.829109016330776
1.8562779426574707,-0.0018253624439239502,0.08708018064498901,-0.04269075393676758,3.9415736198425293,0.4014958143234253,0.7380761504173279,-0.697761079105797,-2.6933878010391408,-2.8167404728871066
1.866258144378662,-0.0035765469074249268,0.07870727777481079,0.0034270882606506348,4.47899866104126,0.4320366680622101,0.8733757138252258,-0.7391884205402547,-2.679304314273705,-2.80173272188309
1.8761320114135742,0.001752406358718872,0.0805063247680664,0.0669558048248291,5.13403844833374,0.45552095770835876,1.022042155265808,-0.7862831794232068,-2.6621161949586902,-2.7832829026041446
1.8861291408538818,0.009505748748779297,0.08547616004943848,0.11359536647796631,5.9553303718566895,0.4365680515766144,1.2047027349472046,-0.8404875356318484,-2.640369160676269,-2.7595719405809414
1.8962371349334717,0.014215618371963501,0.09842276573181152,0.1417894959449768,6.899688243865967,0.39888352155685425,1.3926182985305786,-0.9028443704553354,-2.61192980389647,-2.7279071679804434
1.906243085861206,0.019749611616134644,0.14164292812347412,0.180251806974411,8.070477485656738,0.3665636479854584,1.6185011863708496,-0.9745383743150123,-2.5721766802887815,-2.6834758907219736
1.9166700839996338,0.02237740159034729,0.20708680152893066,0.20975041389465332,9.364090919494629,0.32356691360473633,1.873561978340149,-1.0565360360164855,-2.512686111972196,-2.617501293600711
1.9261741638183594,0.019418299198150635,0.264804482460022,0.24027571082115173,10.959236145019531,0.35097751021385193,2.1548218727111816,-1.1485035294077106,-2.4138187189319558,-2.510854227479794
1.9361772537231445,0.022841423749923706,0.3461083769798279,0.30300429463386536,12.474015235900879,0.2736333906650543,2.4289281368255615,-1.2461412339618574,-2.230930370695607,-2.3180914471350382
1.9463019371032715,0.0025679022073745728,0.448250949382782,0.36181581020355225,13.905570983886719,0.2304290384054184,2.467132568359375,-1.3300802947156989,-1.8603559689361775,-1.9355248380541912
1.9562621116638184,-0.02183595299720764,0.5465205907821655,0.47556865215301514,14.747288703918457,0.3810392916202545,2.223745584487915,-1.3509231363836174,-1.2287869182561164,-1.290949565203734
1.9663491249084473,-0.10556866228580475,0.4502521753311157,0.5789923667907715,14.89503002166748,0.9248612523078918,2.0391018390655518,-1.2811596168511454,-0.6997485177143721,-0.752184851536765
1.9763450622558594,-0.19230598211288452,0.2266387939453125,0.6664572954177856,14.716459274291992,1.287177324295044,2.021148681640625,-1.1652043269903443,-0.4218698823332518,-0.46924447032533634
1.9864230155944824,-0.23753294348716736,0.18538957834243774,0.7109524011611938,14.305047988891602,1.4893828630447388,1.9717116355895996,-1.034891437582009,-0.2730754180279609,-0.3184591215709537
1.9965271949768066,-0.24799202382564545,0.31122899055480957,0.7669284343719482,13.600210189819336,1.5536952018737793,1.9102314710617065,-0.9030296118773313,-0.18408868959041758,-0.22912673651676704
2.0064351558685303,-0.23991353809833527,0.3419087529182434,0.8121541142463684,12.694433212280273,1.7326648235321045,1.8658093214035034,-0.775642525691944,-0.12421133612017975,-0.1709020156111302
2.016408920288086,-0.19733846187591553,0.235937237739563,0.8512054681777954,11.616947174072266,1.9296876192092896,1.8205574750900269,-0.6563620728747074,-0.0790560526860992,-0.13013614914720295
2.028569221496582,-0.18080095946788788,0.12176299095153809,0.8104715943336487,10.353657722473145,2.1258416175842285,1.7392704486846924,-0.5474301854555635,-0.04177529959562122,-0.10045214570430348
2.0366370677948,-0.2264769971370697,0.07278463244438171,0.763579785823822,8.798995971679688,2.3257358074188232,1.60450279712677,-0.451866276834232,-0.009084401510115728,-0.07850678473024547
2.0466060638427734,-0.24400216341018677,0.0021277964115142822,0.7082070708274841,7.019774913787842,2.466939926147461,1.4323005676269531,-0.37243513579750204,0.021460823478857145,-0.06243436174568629
2.056533098220825,-0.21972724795341492,-0.14781731367111206,0.6622240543365479,5.153636932373047,2.496046781539917,1.1995038986206055,-0.3111382496294753,0.05027100563884201,-0.05065679039230775
2.0664451122283936,-0.2015756368637085,-0.331223726272583,0.6060309410095215,3.5045111179351807,2.4522180557250977,0.9086361527442932,-0.26738166693906346,0.07743353003099496,-0.042515133435920345
2.0780491828918457,-0.1664431095123291,-0.473236083984375,0.5214294195175171,2.1817941665649414,2.337789297103882,0.62127286195755,-0.23861653315728082,0.10272638301181784,-0.037269753292927456
2.086522102355957,-0.11447888612747192,-0.5303598046302795,0.4126947522163391,1.3259326219558716,2.181823492050171,0.41913706064224243,-0.22085628060599044,0.12610777689232525,-0.0340514101805432
2.096555233001709,-0.06176489591598511,-0.44738948345184326,0.3130558133125305,0.9377170205116272,1.9736603498458862,0.34086090326309204,-0.2094303078511611,0.14744858443265413,-0.03183065922798625
2.1065492630004883,-0.015965551137924194,-0.28322669863700867,0.20197558403015137,0.985554575920105,1.6111961603164673,0.3835676312446594,-0.1995726057019708,0.16595562175736694,-0.029722408119364097
2.116528034210205,0.03994132578372955,-0.09108875691890717,0.09767699241638184,1.2852445840835571,1.2006334066390991,0.4725973904132843,-0.18774013529123793,0.18042146883846275,-0.0274374417993742
2.1282081604003906,0.11199085414409637,0.08788168430328369,0.026037216186523438,1.6611566543579102,0.782771110534668,0.5860773921012878,-0.1722770133334716,0.19078449995646016,-0.02490434840389965
2.136596202850342,0.17005042731761932,0.24199062585830688,-0.029806137084960938,2.036006450653076,0.4870375096797943,0.7092968225479126,-0.15278330547974486,0.1975629923885212,-0.02211462659310676
2.1467630863189697,0.16757500171661377,0.29658937454223633,-0.0702749490737915,2.169480800628662,0.2390114665031433,0.7730756402015686,-0.13047724414637216,0.2014839853393456,-0.01893218087822175
2.1565520763397217,0.10941776633262634,0.22866970300674438,-0.10380220413208008,2.0578296184539795,0.12224516272544861,0.7543027400970459,-0.10804238372892341,0.20366798028434505,-0.015667084474820136
2.1666181087493896,0.026739373803138733,0.12681376934051514,-0.11065685749053955,1.7921619415283203,0.1348702311515808,0.6958908438682556,-0.08763850389394467,0.2052634623270459,-0.01249961773202953
2.1780080795288086,-0.03606191277503967,0.022791117429733276,-0.11821925640106201,1.4400975704193115,0.13701380789279938,0.6135541200637817,-0.07042191242531898,0.20681977380905026,-0.009355084114128347
2.186756134033203,-0.07500308752059937,-0.032260529696941376,-0.12590235471725464,1.0892975330352783,0.155877485871315,0.5151584148406982,-0.05685773783458,0.2085134988763248,-0.006454473391309902
2.1968190670013428,-0.0900229960680008,-0.04990166053175926,-0.11318135261535645,0.7831301093101501,0.21593841910362244,0.4560546278953552,-0.04676005279598541,0.2104851514224383,-0.003661653249350478
2.2071609497070312,-0.09043070673942566,-0.06150544062256813,-0.10616034269332886,0.622653067111969,0.235155388712883,0.4490889608860016,-0.03902380811688714,0.21289324957556044,-0.0007020494741579193
2.2168021202087402,-0.08441013097763062,-0.03474734351038933,-0.1111823320388794,0.6165978312492371,0.18930160999298096,0.4567383825778961,-0.032067211772513565,0.21519004486604068,0.0023982832096775424
2.2307450771331787,-0.06555826961994171,0.016032885760068893,-0.10810691118240356,0.664399266242981,0.13657918572425842,0.457976371049881,-0.024832625928526218,0.21687217983750348,0.005520511976492335
2.2396092414855957,-0.042010173201560974,0.05756697431206703,-0.08657270669937134,0.7094962000846863,0.08569203317165375,0.45794013142585754,-0.01709503553834888,0.21808288492204458,0.008497811039193441
2.248197078704834,-0.03607945144176483,0.07205626368522644,-0.06385165452957153,0.6658526062965393,0.054053060710430145,0.42279383540153503,-0.009334169844907108,0.21875297038801392,0.011339294151784666
2.2567992210388184,-0.04652102291584015,0.05029604211449623,-0.03869420289993286,0.5316034555435181,0.09745912998914719,0.36691486835479736,-0.002575590004904093,0.2195147166441948,0.013873225150979952
2.2668352127075195,-0.06259433925151825,-0.001179043436422944,-0.010763466358184814,0.37013253569602966,0.14955773949623108,0.3107205927371979,0.0025441835945863634,0.22074026342100145,0.016198011029480576
2.2782392501831055,-0.07889392971992493,-0.05422695726156235,0.003766298294067383,0.25585711002349854,0.18000006675720215,0.26808470487594604,0.006213222292086352,0.22238951514974192,0.01833630726296389
2.286792039871216,-0.08527582883834839,-0.0685419961810112,0.020982444286346436,0.1803545504808426,0.18928292393684387,0.19852615892887115,0.008835514069335432,0.22421292915721702,0.020159601575477405
2.296781063079834,-0.07321695983409882,-0.055997636169195175,0.03463834524154663,0.12771956622600555,0.205393448472023,0.1576402336359024,0.010729335727286023,0.226185152895574,0.02151818818709948
2.307586193084717,-0.06469951570034027,-0.05314875394105911,0.04205590486526489,0.0764719694852829,0.23899219930171967,0.1315130740404129,0.012052422216320751,0.22834694900737615,0.022701056101921774
2.31683611869812,-0.05758501589298248,-0.06171094626188278,0.02739626169204712,0.052222561091184616,0.2855170965194702,0.11765240132808685,0.012950744830788135,0.23096269803484634,0.02375363115751693
2.3285679817199707,-0.05648711323738098,-0.05034884810447693,0.01103895902633667,0.07752081006765366,0.325210303068161,0.13413603603839874,0.013845397536306295,0.23402430066795626,0.02481876799674394
2.3368139266967773,-0.056445613503456116,-0.026586409658193588,-0.009779572486877441,0.13009987771511078,0.30342164635658264,0.12011928111314774,0.015162298474125738,0.2371720737966322,0.02583532124936139
2.3468189239501953,-0.04078969359397888,-0.005308911204338074,-0.021644651889801025,0.16434437036514282,0.2809174656867981,0.08743968605995178,0.01686298737843429,0.24006814023465128,0.02647495315696337
2.3568220138549805,-0.020264029502868652,0.00030295364558696747,-0.010883331298828125,0.11970818787813187,0.2731407582759857,0.0692841187119484,0.018492560665798328,0.24280732348318504,0.026890401487184915
2.366868019104004,-0.00500941276550293,-0.008537160232663155,-0.004157543182373047,0.024556493386626244,0.29381704330444336,0.03086748905479908,0.019311407991280335,0.24559938818295537,0.027188522338515726
2.378526210784912,-0.002508401870727539,-0.02523163892328739,3.707408905029297e-05,-0.05065889656543732,0.3188036382198334,0.017436634749174118,0.019218474458415416,0.2486696690514732,0.027446527067291348
2.386906147003174,0.005571797490119934,-0.042630575597286224,-0.0023614168167114258,-0.04045995697379112,0.32612812519073486,0.01693611964583397,0.0187567097598732,0.25191961485647646,0.02772103396985072
2.396827220916748,0.025907784700393677,-0.024461422115564346,-0.018217027187347412,0.03454184904694557,0.29374831914901733,0.03398514539003372,0.018767908054197063,0.25502953404576795,0.02797450549620226
2.4069552421569824,0.04357248544692993,0.010449906811118126,-0.027835369110107422,0.12294905632734299,0.2560211718082428,0.06353899091482162,0.019667565010926584,0.25775289754713565,0.028235822599223703
2.4168920516967773,0.05136033892631531,0.02966417744755745,-0.027985870838165283,0.15649369359016418,0.22194363176822662,0.08230654895305634,0.02127352763546753,0.26012378833450056,0.02858827608623833
2.428826093673706,0.055094003677368164,0.02522677183151245,-0.026237547397613525,0.12734904885292053,0.22137761116027832,0.08295045047998428,0.02290951477712476,0.26231853075153344,0.029004318480007674
2.436998128890991,0.04699218273162842,9.821727871894836e-05,-0.02125537395477295,0.041754238307476044,0.23982931673526764,0.07417213916778564,0.023950068584453702,0.26460092174574124,0.029552806986291032
2.4469542503356934,0.03480693697929382,-0.03843845799565315,-0.01706552505493164,-0.04399501904845238,0.26288288831710815,0.057578194886446,0.024094469051577253,0.2671103092699354,0.030199933863774012
2.4569010734558105,0.017345279455184937,-0.05808522552251816,-0.01146078109741211,-0.07170680910348892,0.28492987155914307,0.04843689501285553,0.0236431301568289,0.2698359721976937,0.030873018411597848
2.466856002807617,0.003965646028518677,-0.05542420595884323,0.003271818161010742,-0.04101409390568733,0.2689228057861328,0.04014509171247482,0.02320648940941882,0.2726347762045255,0.031466984434758004
2.4782209396362305,-0.00628894567489624,-0.04223538190126419,0.01778942346572876,0.010979065671563148,0.21582895517349243,0.005387375131249428,0.023120154101292343,0.2750446790314014,0.031756693879082754
2.4870240688323975,-0.01463770866394043,-0.028665859252214432,0.039560675621032715,0.06644345819950104,0.20022781193256378,-0.010391801595687866,0.023506181493378783,0.27709593133726496,0.03158919646808243
2.497021198272705,-0.009977281093597412,-0.024121304973959923,0.05009430646896362,0.105767160654068,0.18985852599143982,0.018210815265774727,0.024358355864494342,0.2790632407055602,0.03138873878539893
2.506977081298828,-0.00948864221572876,0.0006321463733911514,0.030999481678009033,0.11690975725650787,0.19725048542022705,0.011980030685663223,0.025476288672090477,0.2809766920411611,0.031244871278869907
2.516993999481201,-0.0073261559009552,0.027872605249285698,0.005796670913696289,0.13816924393177032,0.21479032933712006,0.016503674909472466,0.026731463661799865,0.2830406759855792,0.031007592094683616
2.528095245361328,-0.006809532642364502,0.021680923178792,-0.01120537519454956,0.1666681468486786,0.226126566529274,0.03475591540336609,0.02827656548264175,0.28524988116528377,0.030834521599419247
2.5370101928710938,-0.01018226146697998,0.026344390586018562,-0.016318440437316895,0.19274447858333588,0.2380082607269287,0.04301757365465164,0.030117946881243668,0.28755781066550484,0.030709626398097795
2.5470309257507324,-0.008140534162521362,0.03934306651353836,-0.009787380695343018,0.21999119222164154,0.22739440202713013,0.060720883309841156,0.032253398768173756,0.2899058157578548,0.030627681696273272
2.5570480823516846,0.003648906946182251,0.031938303261995316,-0.004859805107116699,0.22508367896080017,0.1913250833749771,0.05751070752739906,0.034585042651315456,0.29199088340099394,0.030571405977282706
2.567186117172241,0.022898435592651367,0.018387600779533386,-0.004963219165802002,0.21303397417068481,0.1757628172636032,0.05757089704275131,0.03685915565552862,0.29382489122045213,0.030462116003102876
2.5783910751342773,0.038959622383117676,0.013060547411441803,0.0021761655807495117,0.18033622205257416,0.16428112983703613,0.07270564138889313,0.03894938609785254,0.2955151125650975,0.030509242336654297
2.5870862007141113,0.040408432483673096,0.005541518330574036,0.0014903545379638672,0.14952121675014496,0.14279189705848694,0.07898233830928802,0.040754894145556095,0.2970547327921095,0.03075880643690871
2.5970959663391113,0.04247385263442993,0.0004269927740097046,-0.004707992076873779,0.12948812544345856,0.12527762353420258,0.07774209976196289,0.04232508247473081,0.2983629731724591,0.031108175063855915
2.6071081161499023,0.050156354904174805,-0.0025579817593097687,-0.010709762573242188,0.11494296789169312,0.10965391993522644,0.08871906995773315,0.04262101888859688,0.298806596894148,0.031557337927835855
2.6171460151672363,0.049854665994644165,0.0027058087289333344,-0.01792699098587036,0.09772030264139175,0.09133163839578629,0.09559348225593567,0.042925979387640256,0.2991266129508047,0.03217063845891175
2.628718137741089,0.049711257219314575,0.005771484225988388,-0.027982890605926514,0.08082450926303864,0.06658022105693817,0.09161621332168579,0.042939903079217315,0.2994368345352593,0.032822452164780774
2.637296199798584,0.05843836069107056,0.004155237227678299,-0.029944777488708496,0.04750064015388489,0.03794245049357414,0.08544114232063293,0.04298691577000455,0.29982208372198754,0.03348640918196344
2.6474781036376953,0.055196553468704224,0.0022433996200561523,-0.025904953479766846,0.0034703328274190426,0.015847444534301758,0.07406220585107803,0.04295186879011014,0.3003564354348,0.034163951999979285
2.657104969024658,0.04032519459724426,-0.005097568035125732,-0.019645094871520996,-0.03211216256022453,-0.0033169295638799667,0.06453927606344223,0.04262965334055119,0.3011614598138463,0.03482893995671878
2.6672871112823486,0.03011995553970337,-0.012815561145544052,-0.013884246349334717,-0.0618012472987175,-0.027018174529075623,0.05787929147481918,0.0421439019651472,0.30191975881328276,0.035518363148430154
2.678101062774658,0.017613977193832397,-0.008595887571573257,-0.009288251399993896,-0.08071049302816391,-0.06107574328780174,0.04322151839733124,0.041602343618648986,0.3022900684083884,0.03618251770921618
2.687526226043701,0.011184483766555786,-0.004427768290042877,-0.004338741302490234,-0.09226275235414505,-0.08219629526138306,0.038851380348205566,0.0409481435596718,0.3025114078181441,0.036768649022515094
2.697317123413086,0.006744176149368286,-0.0007364377379417419,0.0012028813362121582,-0.11573345959186554,-0.1058100163936615,0.04020266607403755,0.040030564708747184,0.3024678206489983,0.03741980718733248
2.7073841094970703,-0.0010077059268951416,0.0016647502779960632,0.00016427040100097656,-0.14340168237686157,-0.12058430165052414,0.02988899126648903,0.03879920347331587,0.3021651866750393,0.03810945638973932
2.7173871994018555,-0.01150020956993103,0.0043787769973278046,0.0006331205368041992,-0.1768919974565506,-0.12937593460083008,0.023882761597633362,0.037315986828549856,0.30194984443510725,0.03879892707104529
2.728614091873169,-0.023244410753250122,-0.001418333500623703,0.0018554925918579102,-0.19744166731834412,-0.12161614000797272,0.022391924634575844,0.03563763663530922,0.3017815350691347,0.03953209377216458
2.737431049346924,-0.03733929991722107,-0.008794225752353668,0.004546046257019043,-0.20816302299499512,-0.12092238664627075,0.0276655163615942,0.03405912122421238,0.3013762112240526,0.04035803486100502
2.7473530769348145,-0.04995247721672058,-0.010819569230079651,0.005148172378540039,-0.2027658075094223,-0.12561962008476257,0.027066197246313095,0.032551745166762285,0.3005872187390651,0.041212352764895176
2.7572970390319824,-0.05114316940307617,-0.0038849692791700363,0.0058841705322265625,-0.19384022057056427,-0.12345314770936966,0.015348022803664207,0.030971135859637157,0.29954944744064305,0.04198525928041256
2.7674789428710938,-0.049153268337249756,-0.006195502355694771,0.007970213890075684,-0.18346478044986725,-0.1220305785536766,0.009697861038148403,0.029407578841357526,0.29847399416473114,0.042661495166066155
2.7783031463623047,-0.0535944402217865,-0.015222176909446716,0.009026765823364258,-0.17608410120010376,-0.12471530586481094,-0.00046502798795700073,0.02784180332138332,0.2973592924797009,0.043235515865708375
2.7873730659484863,-0.052450716495513916,-0.016711516305804253,0.007237076759338379,-0.16075047850608826,-0.12618546187877655,-0.0076808626763522625,0.026336657339143213,0.29615040193380987,0.0436819669690097
2.797375202178955,-0.037740468978881836,-0.014190850779414177,0.0012694597244262695,-0.14208517968654633,-0.1379353255033493,-0.009315777570009232,0.02496586907375657,0.29475076378868703,0.04404804237005193
2.8073761463165283,-0.02293527126312256,-0.008048811927437782,-0.005877137184143066,-0.13263867795467377,-0.15101997554302216,-0.01887333020567894,0.023844402320902368,0.293015869149195,0.044332352218670025
2.8174009323120117,-0.016534477472305298,-0.006451690569519997,-0.007438540458679199,-0.11835481971502304,-0.1481429487466812,-0.024194326251745224,0.02306092857122753,0.2908670704449795,0.04450032704580996
2.828300952911377,-0.013259142637252808,-0.014158541336655617,-0.0059830546379089355,-0.10596749931573868,-0.14346909523010254,-0.024236295372247696,0.02258662823403339,0.2882097804518599,0.04461676079170844
2.8374030590057373,-0.01705920696258545,-0.014542542397975922,-0.006917357444763184,-0.09699477255344391,-0.1409423053264618,-0.031761057674884796,0.022049906638519842,0.28529496893877665,0.04466843252334227
2.8475289344787598,-0.021211057901382446,-0.010823359712958336,-0.006738424301147461,-0.09061162173748016,-0.13581222295761108,-0.03854631632566452,0.02169490547200471,0.2824483285962609,0.04462429482680269
2.8575220108032227,-0.01682564616203308,-0.010840708389878273,-0.009418725967407227,-0.08604057133197784,-0.13504043221473694,-0.04725059121847153,0.0217080747846084,0.2795667241769286,0.044493995237557066
2.8680901527404785,-0.010551244020462036,-0.010228591039776802,-0.008983075618743896,-0.09170523285865784,-0.13698634505271912,-0.056130845099687576,0.02164879551844163,0.27681726122666556,0.044275986489852794
2.8792741298675537,-0.009490370750427246,-0.01527472585439682,0.0008394122123718262,-0.09865661710500717,-0.13339081406593323,-0.0614561028778553,0.021302281396455663,0.2747289307004658,0.043977785882713664
2.8874521255493164,-0.010676801204681396,-0.020898472517728806,0.0033580660820007324,-0.10055340081453323,-0.12898360192775726,-0.06361693888902664,0.02059170485600982,0.27319890744195285,0.04365701912769136
2.897458076477051,-0.011722475290298462,-0.019497042521834373,0.004684388637542725,-0.08464660495519638,-0.12242183089256287,-0.0605231449007988,0.019872021735040966,0.2719513517119012,0.04330229027881302
2.907419204711914,-0.016356289386749268,-0.017989857122302055,0.005866885185241699,-0.07436218112707138,-0.12169195711612701,-0.05328669399023056,0.01959387566150664,0.27080417596804746,0.0429605750004954
2.9175620079040527,-0.01871505379676819,-0.013890780508518219,0.007430911064147949,-0.06515083461999893,-0.10736867040395737,-0.036884553730487823,0.019420464251675356,0.26952977754702945,0.042715671243161946
2.9303770065307617,-0.02264636754989624,-0.012838833034038544,0.01232236623764038,-0.05028042942285538,-0.10567335039377213,-0.02243882231414318,0.01925166910831809,0.2681301489261049,0.0425921300779411
2.9374141693115234,-0.02543121576309204,-0.013293635100126266,0.013255417346954346,-0.04044324532151222,-0.10854051262140274,-0.011939844116568565,0.01925463208668492,0.2667931474552913,0.04254911379985623
2.9475090503692627,-0.022115617990493774,-0.013511676341295242,0.01775604486465454,-0.04076407477259636,-0.10491608083248138,0.0010848784586414695,0.01928073396768824,0.26563387702590835,0.04259508141848054
2.9575130939483643,-0.016505002975463867,-0.009517703205347061,0.018076777458190918,-0.04486001655459404,-0.0963769182562828,0.01478471141308546,0.019490573944912215,0.2646276394938404,0.04279630908001589
2.9676742553710938,-0.015192896127700806,-0.0034912806004285812,0.012302637100219727,-0.048576854169368744,-0.09399010986089706,0.019516989588737488,0.019825537358803318,0.26363357583423036,0.04309515882066118
2.978724956512451,-0.014067381620407104,0.0020070821046829224,0.0024195313453674316,-0.047432493418455124,-0.08689837902784348,0.027924057096242905,0.020074920765606703,0.2626587238440738,0.04344801928480499
2.987597942352295,-0.010519713163375854,0.007601363584399223,-0.004774749279022217,-0.038284070789813995,-0.08254330605268478,0.04002934694290161,0.020313411385318714,0.26160918711515835,0.04389243748999087
2.9975640773773193,-0.006232857704162598,0.01681216061115265,-0.011380136013031006,-0.025548037141561508,-0.08047349750995636,0.047447316348552704,0.020536831466107203,0.26052130625226133,0.04440760843733596
3.0076589584350586,-0.0021696090698242188,0.02727440930902958,-0.01366579532623291,0.0001491880975663662,-0.08246541023254395,0.058485373854637146,0.020928365629414244,0.25935025795741623,0.04495798043280389
3.0176491737365723,-0.0008198320865631104,0.03581782430410385,-0.014235913753509521,0.022135712206363678,-0.08470486104488373,0.06151898205280304,0.02156787345168745,0.25806780029416504,0.04552279121281636
3.0283350944519043,0.00042891502380371094,0.043980203568935394,-0.015589594841003418,0.03136476129293442,-0.08630897104740143,0.055739279836416245,0.022345181913660257,0.2569069130194702,0.04603054663874161
3.0376062393188477,0.0025537610054016113,0.04841845855116844,-0.015502989292144775,0.023958513513207436,-0.08972341567277908,0.035101380199193954,0.02293837585615443,0.2559124038138629,0.0464045051080986
3.0476722717285156,0.005387306213378906,0.04120964556932449,-0.014026105403900146,0.0021671317517757416,-0.08458945900201797,0.008715953677892685,0.023145386859881448,0.2549403431668719,0.046583176454980106
3.0576162338256836,0.003538578748703003,0.030300121754407883,-0.009491145610809326,-0.02425435557961464,-0.08087088912725449,-0.016869833692908287,0.022901695420090247,0.25397937322196396,0.04656774296820179
3.067819118499756,0.003808319568634033,0.020313188433647156,-0.007847428321838379,-0.039207689464092255,-0.07763146609067917,-0.03652263060212135,0.022222445418745424,0.2530818014431042,0.046377475970776856
3.078338146209717,0.005266427993774414,0.01586434617638588,-0.004248619079589844,-0.04423706978559494,-0.08026959002017975,-0.04613291099667549,0.021176066081878487,0.25226320474969893,0.04607348458053156
3.087728977203369,0.002231597900390625,0.013545641675591469,0.0014618635177612305,-0.044457077980041504,-0.0835762619972229,-0.04881935194134712,0.019833641860134265,0.25149796514315514,0.045712919858041566
3.09774112701416,0.0010271817445755005,0.013800706714391708,0.008317172527313232,-0.04395294189453125,-0.07954103499650955,-0.04433059319853783,0.01833367174601594,0.25073326163310006,0.045365337774595574
3.10764217376709,0.001840054988861084,0.010993627831339836,0.008813142776489258,-0.045466165989637375,-0.06855926662683487,-0.03643495962023735,0.01668600968924165,0.2500757518742667,0.045086698718670555
3.1177821159362793,-0.001038670539855957,0.008031798526644707,0.004328131675720215,-0.04941057413816452,-0.057844843715429306,-0.027508042752742767,0.014990451972317662,0.24955956675017807,0.04488282685175903
3.1286981105804443,-0.0032146424055099487,0.0029720766469836235,0.0017470121383666992,-0.0512811616063118,-0.05115218460559845,-0.015581450425088406,0.013546910511436592,0.24921737729532512,0.044797605678009375
3.137937068939209,-0.0025839805603027344,-0.0009979112073779106,0.0004248619079589844,-0.04214998334646225,-0.047263968735933304,-0.004565284121781588,0.012491265473918226,0.24887801663004855,0.04482096319936485
3.1486639976501465,0.004707694053649902,-0.0014156540855765343,0.0006552338600158691,-0.03674021735787392,-0.05130802467465401,0.0056949700228869915,0.01182933405880336,0.2485316963653164,0.04492334405295845
3.157876968383789,0.011541903018951416,0.0002558240666985512,0.0019626617431640625,-0.03670719638466835,-0.05438850447535515,0.014918562956154346,0.01133402681418434,0.24820141295930925,0.045106910206541735
3.1684200763702393,0.01357179880142212,-0.0022724270820617676,0.003152310848236084,-0.04481003060936928,-0.05799282342195511,0.018523842096328735,0.010835164066540084,0.24779025548372988,0.04537143710584814
3.1784820556640625,0.009940415620803833,-0.008418068289756775,0.006299793720245361,-0.05927259474992752,-0.05762317776679993,0.0204240083694458,0.010213174070110097,0.24736340059051998,0.04567879043455734
3.1878161430358887,0.008113116025924683,-0.012929984368383884,0.009166061878204346,-0.07273297756910324,-0.05458992347121239,0.026337023824453354,0.00950065888110579,0.24696431804994398,0.04606326139928381
3.1979169845581055,0.00845608115196228,-0.01449799444526434,0.010220587253570557,-0.06889083236455917,-0.05556916818022728,0.032721154391765594,0.008802374503059804,0.24648311949318422,0.046531177710949584
3.207932949066162,0.0102681964635849,-0.01060278806835413,0.0058525800704956055,-0.04804297536611557,-0.06170038506388664,0.04174831137061119,0.008364066655710415,0.2458881045605631,0.04703686477990111
3.2180261611938477,0.014979243278503418,-0.003919951617717743,0.0019432902336120605,-0.03227626159787178,-0.0616186298429966,0.0496552400290966,0.00821095993718721,0.24527828220093262,0.04757491016950482
3.2288899421691895,0.013325557112693787,0.0027332380414009094,0.005111992359161377,-0.025499382987618446,-0.06059375777840614,0.05429014936089516,0.008196061049489863,0.24485948987589937,0.048156981430974924
3.238011121749878,0.007597580552101135,0.003995079547166824,0.0068122148513793945,-0.026202192530035973,-0.05582137405872345,0.04533287510275841,0.008145639192013332,0.24464531906417636,0.04869756719758374
3.248049259185791,-0.0014067739248275757,0.003909994848072529,0.00980299711227417,-0.031251996755599976,-0.03905140236020088,0.03180795907974243,0.008091076524079617,0.24458401649959952,0.04913168033657859
3.258023262023926,-0.012460574507713318,-0.002045001834630966,0.01314312219619751,-0.03595700114965439,-0.017341047525405884,0.022559862583875656,0.008087007610566816,0.24465354789479288,0.049469223643458626
3.2682950496673584,-0.02701905369758606,-0.001406974159181118,0.012821614742279053,-0.02655484527349472,0.005250725895166397,0.01629786565899849,0.008175716200428994,0.24490700782234526,0.04973198703271214
3.2784252166748047,-0.03632009029388428,0.0029035089537501335,0.009433627128601074,-0.005656220018863678,0.01621522568166256,0.0147995725274086,0.008427374866525849,0.2453409484558479,0.04991176929988859
3.2879860401153564,-0.03204666078090668,0.007589648477733135,0.004577755928039551,0.026156537234783173,0.011808582581579685,0.010179520584642887,0.008825809906607758,0.245781281417428,0.050002619341064654
3.2980051040649414,-0.024718105792999268,0.01519046537578106,-0.0005301237106323242,0.04731827974319458,0.009654884226620197,0.012118567712605,0.00930078615061821,0.24624987670603496,0.0500107517077186
3.3079261779785156,-0.013852894306182861,0.014593195170164108,0.0009227395057678223,0.050071243196725845,-0.004898269660770893,0.00653562368825078,0.009710619222261468,0.24659603907052427,0.04998554023566163
3.318063259124756,-0.007100701332092285,0.007877468131482601,0.003275275230407715,0.036713626235723495,-0.009046143852174282,-0.004097313620150089,0.00999869199350264,0.24669886118702639,0.049888841178572854
3.328761100769043,-0.005861401557922363,0.0004979493096470833,0.00521320104598999,0.016314126551151276,-0.009619921445846558,-0.010624242015182972,0.010095980740423633,0.24656977612080327,0.049743913293067106
3.338016986846924,-0.008196383714675903,-0.005625065416097641,0.003248929977416992,-0.007170693017542362,-0.0014722459018230438,-0.015851760283112526,0.010107002991603812,0.24623976259778171,0.04960064266563948
3.3481030464172363,-0.016156509518623352,-0.00198440533131361,-0.0020844340324401855,-0.015551511198282242,0.013671331107616425,-0.010847095400094986,0.009948211310992647,0.2457150690960688,0.049505562100642525
3.3579959869384766,-0.02353338897228241,0.002430749125778675,-0.010059714317321777,-0.011233195662498474,0.021317532286047935,-0.004619559273123741,0.009678904302037335,0.24507653710180693,0.04947148018067591
3.3680810928344727,-0.02350032329559326,0.005696696229279041,-0.014886438846588135,0.01052040234208107,0.024401117116212845,0.010024471208453178,0.009465840095867298,0.24460153842893229,0.0495007616762829
3.378415107727051,-0.014437586069107056,0.010814700275659561,-0.016816258430480957,0.03752671927213669,0.015183651819825172,0.025409817695617676,0.00938059424652222,0.24425635731169992,0.04962538032491977
3.388598918914795,-0.007880449295043945,0.0163797065615654,-0.017109274864196777,0.05660613998770714,-0.0007139109075069427,0.03169003129005432,0.009574513139095455,0.2440723817583372,0.04979040262883221
3.4006030559539795,-0.0006256848573684692,0.020841453224420547,-0.0131911039352417,0.059833090752363205,-0.0184516292065382,0.030278291553258896,0.010053738964009398,0.24387780511813978,0.0499588562798525
3.408572196960449,0.006431058049201965,0.014777148142457008,-0.006145834922790527,0.03753369674086571,-0.022642601281404495,0.021542750298976898,0.010596521585777476,0.24362019172587282,0.050093240020012225
3.4181180000305176,0.004480212926864624,0.0030391886830329895,-0.00043594837188720703,0.012094646692276001,-0.02539178356528282,0.013300797902047634,0.011004582496047645,0.2432730254994605,0.05020868550913164
3.428528070449829,9.554624557495117e-05,-0.005659009329974651,0.0007045865058898926,0.002506967866793275,-0.03464839980006218,-0.0002760502393357456,0.011110706987494308,0.24265002329159757,0.050263636289747254
3.4382450580596924,0.0021669864654541016,-0.006015061400830746,0.00045794248580932617,-0.00022250600159168243,-0.04282376915216446,-0.010731087997555733,0.011014050076450026,0.24171050355869808,0.05020881912111583
3.4481680393218994,0.007867932319641113,0.0005377428606152534,-2.5987625122070312e-05,0.004741659387946129,-0.0402519553899765,-0.009128077886998653,0.010837717217688524,0.24074175199327622,0.05011407832628537
3.458116054534912,0.006817042827606201,0.006197077222168446,-0.0013580918312072754,0.018968265503644943,-0.04205997288227081,-0.0067935511469841,0.01063767149668081,0.24000076195105882,0.050016727119876675
3.468189239501953,0.003326699137687683,0.01044178195297718,-0.0030638575553894043,0.038605500012636185,-0.039669208228588104,-0.005972977727651596,0.010487830711206103,0.2394151224308647,0.04988299339315604
