timestamp,accel_x,accel_y,accel_z,rotation_x,rotation_y,rotation_z, pitch,roll,yaw
0.04400515556335449,0.002588920295238495,0.0032883957028388977,0.0092315673828125,-0.013123435899615288,-0.023406237363815308,-0.01412157341837883,0.08655670102181086,0.10249603348137297,-0.004442514021421163
0.05743598937988281,-0.0005024150013923645,0.005049116909503937,0.009403645992279053,-0.0060117305256426334,-0.02528749406337738,-0.017166631296277046,0.08647078226551289,0.1022272654849216,-0.0045821561038476
0.07021212577819824,-0.0017458423972129822,0.008913055062294006,0.010333418846130371,0.0019694799557328224,-0.021991876885294914,-0.01824478805065155,0.08642831239335128,0.10197268541557229,-0.00476497821608464
0.07759785652160645,-0.003984145820140839,0.009807690978050232,0.01049661636352539,0.009151492267847061,-0.024932539090514183,-0.02125335857272148,0.08642266492785872,0.1017215257030745,-0.004966415291545756
0.08252501487731934,-0.00421644002199173,0.007145211100578308,0.010576903820037842,0.01366591639816761,-0.020387500524520874,-0.019284963607788086,0.0864304916048582,0.10152489621478429,-0.005183827962625373
0.0892629623413086,-0.004376046359539032,0.005602166056632996,0.010209500789642334,0.013651803135871887,-0.027241148054599762,-0.01714671216905117,0.08647453602580137,0.10134763171780002,-0.005368773475487116
0.09383893013000488,-0.004486054182052612,0.00560653954744339,0.010162174701690674,0.007713752798736095,-0.025955548509955406,-0.017332546412944794,0.08650955954692399,0.10118181467878253,-0.005567525161666979
0.10294604301452637,-0.0032681748270988464,0.0004444122314453125,0.009325087070465088,0.0049445973709225655,-0.02767195738852024,-0.012057891115546227,0.08652019516855032,0.10100001802948018,-0.005728284381219742
0.11143612861633301,-0.004775151610374451,-0.0037337765097618103,0.006572365760803223,-0.003358656307682395,-0.028328023850917816,-0.012625622563064098,0.0864922941146091,0.10078058419354563,-0.005850690088358024
0.12129807472229004,-0.004974648356437683,-0.005222983658313751,0.009936094284057617,-0.014644334092736244,-0.025457672774791718,-0.011598441749811172,0.08634530448581694,0.1005341302554949,-0.005960129193206171
0.13145184516906738,-0.007004886865615845,-0.007157154381275177,0.012344837188720703,-0.018283359706401825,-0.021443622186779976,-0.008886544965207577,0.08608865646750222,0.10031722418935067,-0.0060424733810760176
0.141279935836792,-0.009845957159996033,-0.00868251919746399,0.013012528419494629,-0.014120573177933693,-0.015719689428806305,-0.010373121127486229,0.08582881374230879,0.10011783185961182,-0.006118325361590382
0.15206098556518555,-0.01060396432876587,-0.005874693393707275,0.012415468692779541,-0.009999249130487442,-0.008852329105138779,-0.00872409250587225,0.08564524240364134,0.0999881299637598,-0.006206484758398248
0.1611931324005127,-0.011430785059928894,0.0012432336807250977,0.011028707027435303,-0.006996268406510353,-0.002654620446264744,-0.006585573777556419,0.08551476510728513,0.09992831307708652,-0.006273805064386062
0.1713721752166748,-0.011061549186706543,0.0017164647579193115,0.005699574947357178,-0.0006720594828948379,-0.0055071329697966576,-0.0035485047847032547,0.085438404544406,0.0998784295438026,-0.0063180431869150405
0.18126511573791504,-0.006010487675666809,0.0014992505311965942,0.003954529762268066,0.0008494043722748756,-0.015243650414049625,-0.009356326423585415,0.0854501099023792,0.09977039067147797,-0.006378399934017448
0.1913900375366211,-0.0028198957443237305,0.0014636591076850891,0.006353795528411865,-0.012200085446238518,-0.017018646001815796,-0.014160669408738613,0.08544502092369612,0.09958413726625209,-0.006490828840713884
0.2014319896697998,-0.002734936773777008,-0.004758007824420929,0.0102616548538208,-0.025123873725533485,-0.021171581000089645,-0.018721066415309906,0.08531112394561834,0.0993741736918866,-0.006633826546916278
0.2116858959197998,-0.004921063780784607,-0.009770803153514862,0.008837103843688965,-0.02586210146546364,-0.023176409304142,-0.018344495445489883,0.08511940791827184,0.09913045784152591,-0.006795784896944445
0.22156786918640137,-0.00240238755941391,-0.006134122610092163,0.005494415760040283,-0.016643835231661797,-0.03299974277615547,-0.016799863427877426,0.08498668685712948,0.09878978425037563,-0.006939084393928402
0.23166298866271973,0.002690821886062622,-0.0010584145784378052,0.0040024518966674805,-0.009201898239552975,-0.04081478714942932,-0.0174131877720356,0.08491994027894878,0.09834619872411494,-0.007087312668206921
0.24164605140686035,0.00434509664773941,0.0012675896286964417,0.0064258575439453125,-0.016614757478237152,-0.04041961953043938,-0.01698947884142399,0.08478880742591516,0.09786169804421539,-0.00724208920637538
0.2516920566558838,0.0016648173332214355,-0.0005329474806785583,0.010761141777038574,-0.03328964114189148,-0.026364963501691818,-0.01927223429083824,0.08451317082145045,0.09745403793472586,-0.007390092337463951
0.26174187660217285,-0.0023232102394104004,-0.005373135209083557,0.012738227844238281,-0.03847481682896614,-0.017076924443244934,-0.018926022574305534,0.08412717690667176,0.09722558893411826,-0.007542649013038361
0.27150988578796387,-0.0024602338671684265,-0.003139384090900421,0.011191129684448242,-0.02285795658826828,-0.010533849708735943,-0.018735820427536964,0.08379628542574835,0.09709948455184558,-0.007706603472003688
0.28159308433532715,-0.0007488653063774109,0.003606081008911133,0.011843442916870117,0.0017571095377206802,-0.007599045522511005,-0.011402273550629616,0.08375142684199294,0.09701979227013285,-0.007838778435582524
0.2915010452270508,0.0015462860465049744,0.009811066091060638,0.009424448013305664,0.017937544733285904,-0.00748364208266139,-0.012643732130527496,0.083960447994743,0.09692280247985112,-0.007960834833190917
0.30189013481140137,-0.0006582513451576233,0.009613364934921265,0.013419091701507568,0.01647946424782276,0.0012568524107336998,-0.013945485465228558,0.08420610987504192,0.09690136804584587,-0.008118131940245885
0.3114621639251709,-0.004456289112567902,0.0027405843138694763,0.016378164291381836,-0.008416698314249516,0.011236338876187801,-0.020300213247537613,0.08426102530034331,0.09702350034423653,-0.008283266492128696
0.32151198387145996,-0.007377780973911285,-0.00438951700925827,0.015609204769134521,-0.0290553979575634,0.024111656472086906,-0.027111247181892395,0.08404237587378705,0.09727499247580293,-0.008508111604944316
0.3314821720123291,-0.006819717586040497,-0.010020546615123749,0.018059730529785156,-0.02760542370378971,0.029575087130069733,-0.030237799510359764,0.08373558422314592,0.09760213410241812,-0.008763745210593723
0.3415539264678955,-0.007521197199821472,-0.007246926426887512,0.01943153142929077,-0.008077794685959816,0.028692781925201416,-0.028985846787691116,0.08357896842303669,0.09790813455277977,-0.009038672306727806
0.3517000675201416,-0.009903214871883392,0.0039534494280815125,0.01750391721725464,0.016579382121562958,0.0349215604364872,-0.026442261412739754,0.0836253321259966,0.09823327462199492,-0.009328414494254278
0.3616030216217041,-0.010851152241230011,0.008689112961292267,0.010658681392669678,0.03307420387864113,0.03947477042675018,-0.019942818209528923,0.08382985533152906,0.0986215669737595,-0.009582226347110465
0.371722936630249,-0.015580840408802032,0.009395316243171692,0.0032653212547302246,0.03466537594795227,0.05137953907251358,-0.021892786026000977,0.08409447791777533,0.09910024345764629,-0.009823736616939922
0.381817102432251,-0.019427329301834106,0.009227722883224487,0.0013889074325561523,0.029985401779413223,0.06040152907371521,-0.02533678337931633,0.08432443220587006,0.09967285478660914,-0.010089190137153429
0.3917579650878906,-0.020132943987846375,0.00439085066318512,0.0001316070556640625,0.02837575599551201,0.0661558210849762,-0.02836112305521965,0.08456960829602912,0.1002942960604218,-0.01037510401786434
0.40267014503479004,-0.02061156928539276,0.0043509602546691895,-0.0032455921173095703,0.03072066605091095,0.05451088771224022,-0.029830122366547585,0.08486648312882492,0.10085659482682566,-0.010682915875637466
0.4118020534515381,-0.016044676303863525,0.011787347495555878,-0.009213030338287354,0.035617124289274216,0.04312063753604889,-0.035191334784030914,0.08525470797148678,0.1013017877315066,-0.011035918040992708
0.42192816734313965,-0.009730450809001923,0.014746412634849548,-0.014756381511688232,0.036280516535043716,0.029431987553834915,-0.03600546345114708,0.08565174919124766,0.10161605753329545,-0.01142277222796174
0.4318389892578125,-0.006880119442939758,0.01112569123506546,-0.016881883144378662,0.02811170183122158,0.013148888014256954,-0.039622727781534195,0.08589238538112816,0.10175981042885869,-0.01182503685793394
0.44175004959106445,-0.0026953518390655518,0.010378040373325348,-0.018904685974121094,0.022776590660214424,0.0003795633092522621,-0.045755453407764435,0.08601494081499023,0.10174160062736819,-0.012268533385361088
0.45174288749694824,-0.0011064186692237854,0.003630504012107849,-0.018281996250152588,0.016871962696313858,-0.010970918461680412,-0.0414859801530838,0.08607303919885469,0.1015707311378625,-0.012715409004083335
0.4618818759918213,-0.0016940683126449585,0.0015347376465797424,-0.018830180168151855,0.020107436925172806,-0.03016139194369316,-0.03972110524773598,0.08612895920920739,0.10120963090057572,-0.013116745685400607
0.47188305854797363,-2.0191073417663574e-06,0.005553901195526123,-0.016958117485046387,0.022572509944438934,-0.03998814523220062,-0.03840081766247749,0.08624230223865702,0.10070431371227899,-0.013526818156101711
0.4818451404571533,0.00037235766649246216,0.0013737082481384277,-0.013952016830444336,0.023363200947642326,-0.04811105132102966,-0.03356131911277771,0.08639617521293085,0.10011247687391749,-0.013890781731173597
0.49194788932800293,-0.00011776387691497803,-0.0010643303394317627,-0.008099853992462158,0.01957167685031891,-0.04795245826244354,-0.032589636743068695,0.08646081842886379,0.0995145819353306,-0.01423343351010336
0.5019769668579102,-0.0031465142965316772,-0.001850619912147522,-0.001029372215270996,0.010260732844471931,-0.04304904490709305,-0.026933083310723305,0.08643739132577778,0.09901402501887362,-0.01454070670003054
0.5121071338653564,-0.004320390522480011,-0.007483780384063721,0.0015653371810913086,0.004459436051547527,-0.037129197269678116,-0.021832438185811043,0.08637344235187301,0.09859686108220227,-0.014782917664489205
0.5219271183013916,-0.0016949772834777832,-0.007512763142585754,0.004948079586029053,0.0020767056848853827,-0.030673161149024963,-0.019808435812592506,0.08628308485067282,0.09825658979256396,-0.015000748200269268
0.5319130420684814,0.002437397837638855,-0.0064963772892951965,0.011013150215148926,0.006075608544051647,-0.013833371922373772,-0.011858739890158176,0.08626179210407352,0.09804373041392205,-0.01515661402539502
0.541964054107666,0.0007895305752754211,-0.008732065558433533,0.015288174152374268,0.007302526384592056,0.0033876921515911818,-0.004934786818921566,0.08628448968618838,0.09799768011176879,-0.015234552189323384
0.5520730018615723,-0.0017026066780090332,-0.006077669560909271,0.011138498783111572,0.01989934593439102,0.01011315081268549,-0.0027996771968901157,0.08636042564521383,0.09808026617218084,-0.015283563458552094
0.5620028972625732,0.003340393304824829,-0.001318328082561493,0.0065421462059021,0.032550692558288574,0.013958488591015339,-0.004054026212543249,0.08660409374319082,0.098213192459342,-0.015348513798705249
0.5719401836395264,0.0044394731521606445,-0.00041613727807998657,0.00815802812576294,0.03548601269721985,0.016951482743024826,-0.002115138340741396,0.08695828404250557,0.09838507128875387,-0.015423854281312079
0.5819840431213379,0.002719782292842865,-0.001668885350227356,0.012185335159301758,0.0343986451625824,0.020025569945573807,-0.012242874130606651,0.08730904440321363,0.09855281953623166,-0.015531051673462044
0.5920898914337158,0.0019673332571983337,-0.006265848875045776,0.017260074615478516,0.028732899576425552,0.03204246237874031,-0.01225816085934639,0.08765726814840742,0.09877614512337407,-0.01569164477079422
0.6023671627044678,0.0015355870127677917,-0.011486507952213287,0.017425835132598877,0.03307065740227699,0.032964449375867844,-0.009945204481482506,0.08800741995835458,0.09910700330752813,-0.01582973203702697
0.6120560169219971,0.0018166974186897278,-0.005993358790874481,0.011050105094909668,0.04643571376800537,0.03180442005395889,-0.011422939598560333,0.08843631756215611,0.09947373232809206,-0.015980150524925657
0.6220428943634033,0.0035546645522117615,-0.001850411295890808,0.009972035884857178,0.05965245142579079,0.03486412391066551,-0.006144820712506771,0.08902628802630258,0.09981923138756973,-0.01612228424547825
0.6320888996124268,0.00155649334192276,-0.0036280453205108643,0.008813619613647461,0.066195547580719,0.031229399144649506,0.0005015238421037793,0.08969271784551547,0.10013241392956194,-0.016218105049911988
0.6420590877532959,0.0014734193682670593,-0.0008491501212120056,0.007352054119110107,0.06108788028359413,0.027813095599412918,-0.0027310210280120373,0.09032266742534231,0.10045293645808143,-0.016290474158826913
0.6527090072631836,0.0035110563039779663,-0.0040077269077301025,0.0064980387687683105,0.047979600727558136,0.024052711203694344,-0.00592644140124321,0.09084360385717925,0.10074201420729978,-0.01638429521827439
0.6620528697967529,0.0026396960020065308,-0.008550435304641724,0.0074160099029541016,0.03348854184150696,0.01602168381214142,-0.0035660818684846163,0.09124640831074263,0.1009629747606632,-0.016475305197774768
0.6720919609069824,0.0012890100479125977,-0.011020712554454803,0.010151803493499756,0.024662109091877937,0.00467328866943717,-0.002546783769503236,0.09156983546642576,0.10108176627908003,-0.016535928405997
0.6821520328521729,0.0009488239884376526,-0.009152211248874664,0.01600480079650879,0.027420077472925186,0.006169718690216541,0.0004828283563256264,0.0918985837544969,0.10115097085573876,-0.016588787456988968
0.6921241283416748,0.0005131065845489502,-0.00867047905921936,0.01812034845352173,0.03422741964459419,0.0024656173773109913,0.008443123660981655,0.0922444492572387,0.10119358074445395,-0.01658050168097845
0.7022430896759033,-0.0011133477091789246,-0.003618113696575165,0.01637744903564453,0.03167024999856949,0.0011172587983310223,0.012628814205527306,0.0925833041237765,0.1012212756679231,-0.016515400986831307
0.712054967880249,0.00025356560945510864,-0.002090178430080414,0.013399958610534668,0.022450752556324005,0.010273117572069168,0.020291900262236595,0.0928765221317672,0.10127669543648359,-0.016381397144359107
0.7221050262451172,-0.000316523015499115,-0.007433004677295685,0.012895584106445312,0.012936344370245934,0.014709677547216415,0.028289105743169785,0.09307348694623074,0.10140734926844992,-0.01615358089414715
0.7321419715881348,-0.0005069822072982788,-0.007694154977798462,0.012613356113433838,0.005325978621840477,0.005705574061721563,0.03418353572487831,0.09320966729222652,0.10150850924970709,-0.015852220817042906
0.7425880432128906,0.006574749946594238,-0.0027783066034317017,0.011413037776947021,-0.0005236546276137233,-0.00528076384216547,0.03680461645126343,0.09331947761683872,0.10150788303940604,-0.01550462134926741
0.75229811668396,0.012415677309036255,-0.002457074820995331,0.013267338275909424,-0.006955005694180727,-0.018588179722428322,0.03596465662121773,0.0933968962536886,0.10135779598390923,-0.01513751054882053
0.7622830867767334,0.011296451091766357,-0.0020791813731193542,0.018682777881622314,-0.018922453746199608,-0.03145045042037964,0.03038107417523861,0.09337797759022107,0.10108572338408722,-0.01478842973908918
0.7723739147186279,0.006246387958526611,-0.0035420507192611694,0.02489989995956421,-0.03893982246518135,-0.03512512519955635,0.02398916706442833,0.09318072854631514,0.10074436071624236,-0.014488419696558851
0.7823741436004639,0.0023419633507728577,-0.004897870123386383,0.0279768705368042,-0.049243856221437454,-0.029190536588430405,0.019399208948016167,0.09278450508356528,0.10039993005702438,-0.01423090735972269
0.792741060256958,-0.003911629319190979,-0.002669595181941986,0.0277559757232666,-0.049739837646484375,-0.022720029577612877,0.017913857474923134,0.09232526780273298,0.10013127727953229,-0.013987614313448537
0.8023841381072998,-0.008063927292823792,0.0009723231196403503,0.029646873474121094,-0.048655662685632706,-0.014104703441262245,0.015884261578321457,0.09189125640065206,0.09992897512820266,-0.01377429112138934
0.8126280307769775,-0.009723052382469177,0.004636652767658234,0.029902100563049316,-0.03925933316349983,7.297378033399582e-06,0.020415417850017548,0.09151039458673552,0.09985973316126706,-0.013548926196949817
0.8223278522491455,-0.011647641658782959,0.00795116275548935,0.027265727519989014,-0.02426040917634964,0.009837291203439236,0.019092626869678497,0.09123795760308172,0.09992083587939074,-0.01332452821849129
0.8324260711669922,-0.014228008687496185,0.010764539241790771,0.02766174077987671,-0.021308911964297295,0.01783427596092224,0.014550711028277874,0.09105987928975877,0.10009024186924136,-0.013136436566826955
0.8423440456390381,-0.014525443315505981,0.009967684745788574,0.025517165660858154,-0.025456517934799194,0.030319973826408386,0.007075483910739422,0.09085727345553693,0.1003577639641155,-0.013000382204761206
0.8530051708221436,-0.014902777969837189,0.004136107861995697,0.023978710174560547,-0.03520340472459793,0.03827417269349098,0.001070481608621776,0.09059407099312619,0.10072076713645442,-0.012929802431588493
0.8623111248016357,-0.015571363270282745,-0.002354457974433899,0.022184312343597412,-0.04703476279973984,0.04549053683876991,-0.008529948070645332,0.09022075934446185,0.10114570243802816,-0.01292303520546705
0.8725249767303467,-0.012346774339675903,-0.003158941864967346,0.0182991623878479,-0.043171532452106476,0.04845397174358368,-0.009631218388676643,0.08978069749239767,0.1016294311056624,-0.012970306455635504
0.8823730945587158,-0.00816337764263153,-0.0029575079679489136,0.009546458721160889,-0.035716813057661057,0.04106795787811279,-0.011861881241202354,0.0893854632613613,0.10206988843705395,-0.013033445940487928
0.8925180435180664,-0.003225572407245636,0.0016104653477668762,0.003358125686645508,-0.03031975030899048,0.03691919893026352,-0.014917113818228245,0.08905404360104162,0.102442546866336,-0.013136948601412065
0.902597188949585,-0.00031253695487976074,0.003055006265640259,-0.0013834834098815918,-0.024056527763605118,0.03849685564637184,-0.014683554880321026,0.08875790382362127,0.10281083893963734,-0.013261725023311409
0.9124970436096191,-0.0025391653180122375,-0.002436921000480652,-0.005543410778045654,-0.015305979177355766,0.02842557802796364,-0.013464732095599174,0.08852936632909443,0.1031001897460118,-0.013372170885069683
0.9224469661712646,-0.0019015222787857056,-0.0030920058488845825,-0.007605254650115967,-0.02038516104221344,0.022438526153564453,-0.018999313935637474,0.08831596081638692,0.10330168890279377,-0.013519150377129606
0.9350979328155518,-0.0008994415402412415,-0.004098974168300629,-0.007402241230010986,-0.03367633372545242,0.0306708887219429,-0.018910309299826622,0.08802502138858948,0.10350427951411167,-0.0136842394981723
0.9426100254058838,-0.004891969263553619,-0.011058203876018524,-0.011401772499084473,-0.020332830026745796,0.02885274961590767,-0.011558921076357365,0.08776338759849217,0.10374295709843336,-0.013790668676703642
0.952502965927124,-0.005310334265232086,-0.009259141981601715,-0.012463629245758057,0.004861223977059126,0.012882526963949203,0.0014870531158521771,0.08773127431409361,0.10385690615158434,-0.013831522634705069
0.9624719619750977,-0.0016742944717407227,-0.0030900761485099792,-0.01509171724319458,0.024982471019029617,-0.000819170381873846,0.0009315178031101823,0.08795025942851409,0.10385443345654016,-0.013835966038331345
0.9725589752197266,0.006981268525123596,-0.001536339521408081,-0.018891453742980957,0.025718435645103455,-0.0093190036714077,0.009172828868031502,0.08823862911861201,0.103760803191184,-0.013802120098295593
0.982666015625,0.0026008114218711853,-0.005445167422294617,-0.016854166984558105,0.026139747351408005,-0.010660437867045403,0.006141353398561478,0.08848113804338613,0.10362563843793354,-0.013742726077605037
0.9924299716949463,-0.0032504647970199585,-0.017686419188976288,-0.014087319374084473,0.005518275313079357,-0.023184884339571,0.011583256535232067,0.0886306166677325,0.10344942707554251,-0.013677029782553772
1.0025770664215088,-0.0007599443197250366,-0.017182327806949615,-0.009530365467071533,0.0024196875747293234,-0.02777191251516342,0.00928308442234993,0.08870776212785081,0.10313874214810058,-0.013581235488542912
1.013077974319458,-0.0007495880126953125,-0.012146614491939545,-0.006975293159484863,0.02453792281448841,-0.0376865491271019,0.01620469242334366,0.08886126336892752,0.10279088950857598,-0.013451650547786383
1.0226099491119385,0.0026028528809547424,-0.008867576718330383,-0.014196217060089111,0.041413310915231705,-0.04689176753163338,0.019129110500216484,0.08930392798234853,0.10229127755761397,-0.013289250390003319
1.0326368808746338,0.0021543502807617188,0.0028201863169670105,-0.009397029876708984,0.037263572216033936,-0.036450669169425964,0.02029658667743206,0.08974773051770041,0.10182400485882459,-0.013126620326715525
1.0426180362701416,-0.003793850541114807,-0.004881858825683594,-0.003224670886993408,0.05165769159793854,-0.0276944600045681,0.032714907079935074,0.09019569845921764,0.10150196840835882,-0.012892202524258847
1.052509069442749,-0.004246935248374939,-0.003052845597267151,-0.001739799976348877,0.09293389320373535,-0.05902131274342537,0.04698055610060692,0.0909444033055165,0.10108834134567571,-0.012569034480483762
1.0625779628753662,0.001159965991973877,0.011873513460159302,0.007628738880157471,0.09727351367473602,-0.058575499802827835,0.038182538002729416,0.09195898567356411,0.10047637740358847,-0.012247656583478884
1.0725529193878174,-0.0002847015857696533,-0.0064725205302238464,0.011144101619720459,0.10012895613908768,-0.06129743158817291,0.04752975329756737,0.09308799741856871,0.09983507050015102,-0.011913244838796015
1.0828449726104736,-0.00493495911359787,-0.007977455854415894,0.006216883659362793,0.0928041934967041,-0.05404484272003174,0.0378560870885849,0.09419717581321246,0.09924108498760223,-0.011576758847773037
1.0930490493774414,-0.003331124782562256,0.003971658647060394,0.010367810726165771,0.06175684928894043,-0.04388829693198204,0.03294564038515091,0.09505700069410346,0.09872382126742701,-0.01130520485198676
1.1026499271392822,-0.005282282829284668,-0.004031851887702942,0.017236709594726562,0.01872096210718155,-0.018228475004434586,0.015968257561326027,0.09550890893504908,0.09841804163078402,-0.01110782115642012
1.112612009048462,-0.011502787470817566,-0.019379548728466034,0.02464348077774048,0.0004696045070886612,-0.015400154516100883,0.004688385874032974,0.09549622925724013,0.09836657707136116,-0.011031053532476737
1.122838020324707,-0.01708865910768509,-0.022788822650909424,0.03351336717605591,-0.009073566645383835,-0.02572602964937687,0.00854490976780653,0.09545897370530589,0.09804392584938601,-0.010955160325894985
1.1347191333770752,-0.004833400249481201,-0.012779690325260162,0.04556852579116821,-0.014235488139092922,-0.033590562641620636,0.009679894894361496,0.09535104840609353,0.09767079157803979,-0.010872972900357056
1.1427791118621826,0.0039212629199028015,0.003069959580898285,0.03586292266845703,-0.0590469054877758,-0.0412098690867424,0.012456772848963737,0.09490228238735991,0.09733170030593619,-0.01072024862309376
1.1537630558013916,-0.004769213497638702,-0.01105576753616333,0.03639155626296997,-0.1495649218559265,-0.045447938144207,0.010058224201202393,0.0939406008128806,0.0968999371837415,-0.010506710858576292
1.1627790927886963,-0.006429009139537811,-0.033791810274124146,0.05279409885406494,-0.27967312932014465,-0.05586835369467735,-0.012105667963624,0.09187129739724678,0.09635432265381884,-0.010289600699745478
1.1730639934539795,-0.011903800070285797,-0.057723015546798706,0.07847505807876587,-0.4730908274650574,-0.07376852631568909,-0.05924314260482788,0.08812757035312976,0.095702963210685,-0.010273529214732553
1.1842310428619385,-0.022706270217895508,-0.09109824895858765,0.11138993501663208,-0.7352150678634644,-0.083489328622818,-0.10459250956773758,0.08210479470498576,0.09494540484084385,-0.010522455102299823
1.1926419734954834,-0.026937685906887054,-0.11343257874250412,0.1367037296295166,-1.0479164123535156,-0.11404923349618912,-0.18430784344673157,0.07315596110412159,0.09402328144654044,-0.01110251971684344
1.202754020690918,-0.02023874968290329,-0.12908902764320374,0.160003662109375,-1.4498172998428345,-0.24944062530994415,-0.33866652846336365,0.06061470003464049,0.09233165438871584,-0.01245477301210052
1.2126281261444092,-0.01371309906244278,-0.16368065774440765,0.20395374298095703,-2.0222795009613037,-0.3891616761684418,-0.5917396545410156,0.042997493852281646,0.08933837724171868,-0.015507881337411884
1.2227928638458252,-0.018069423735141754,-0.21822087466716766,0.2602578401565552,-2.878962755203247,-0.48032301664352417,-0.8777961730957031,0.0180928512895863,0.08508030804250288,-0.020670828908116834
1.2349340915679932,-0.0454346165060997,-0.2856851816177368,0.31363624334335327,-3.987273693084717,-0.5548061728477478,-1.2406648397445679,-0.016826234454563004,0.07993944398944414,-0.028400399671327518
1.2429759502410889,-0.06081803888082504,-0.37567585706710815,0.3552005887031555,-5.455026626586914,-0.6403871178627014,-1.6507114171981812,-0.06488471857932751,0.07352034477299679,-0.03921940687407418
1.253183126449585,-0.08142527937889099,-0.4618706703186035,0.41705965995788574,-6.96135139465332,-0.7512922286987305,-2.0561540126800537,-0.12829910163473254,0.06516068517330856,-0.053500988611400055
1.2630031108856201,-0.09085544943809509,-0.518623948097229,0.46845608949661255,-8.639372825622559,-0.7340085506439209,-2.3000147342681885,-0.2073627708455865,0.054809596865968126,-0.0709611939511065
1.2729198932647705,-0.07347453385591507,-0.5100860595703125,0.47901278734207153,-10.223020553588867,-0.7812767624855042,-2.4268798828125,-0.30290493321916706,0.04225260735485756,-0.09076127491906219
1.2843968868255615,-0.07039093226194382,-0.36971139907836914,0.46616989374160767,-11.728232383728027,-0.9631953835487366,-2.488842725753784,-0.4137990524903488,0.02571961415692288,-0.11297392834971096
1.2928531169891357,-0.04319310188293457,-0.31350648403167725,0.46408897638320923,-13.048303604125977,-1.0704262256622314,-2.5088558197021484,-0.5382139119427842,0.003548764107161086,-0.13916594247870445
1.302983045578003,0.0030652694404125214,-0.2308948040008545,0.4449595808982849,-14.149520874023438,-1.1868562698364258,-2.345118761062622,-0.6743093872827529,-0.025629453357878522,-0.17065972101019528
1.3129000663757324,0.007169712334871292,-0.017094552516937256,0.3637540340423584,-15.024397850036621,-1.5691004991531372,-2.070876359939575,-0.8192608180886776,-0.06601856041362203,-0.20988660589335037
1.3229291439056396,0.016190260648727417,0.21914392709732056,0.26465684175491333,-15.536505699157715,-1.9897968769073486,-1.7755999565124512,-0.9701477701822045,-0.1260658419412829,-0.26381512729344303
1.3343188762664795,0.08159500360488892,0.3773995637893677,0.21120882034301758,-15.768786430358887,-2.3142383098602295,-1.6843698024749756,-1.1216757057907,-0.22421245348421417,-0.35196506861559956
1.3430840969085693,0.1134277805685997,0.46839433908462524,0.1533222198486328,-15.762042045593262,-2.6310410499572754,-1.782204031944275,-1.2666099030447941,-0.41674508570180946,-0.5317393158485811
1.3530080318450928,0.04518674314022064,0.5829583406448364,0.1163252592086792,-15.596210479736328,-2.604340076446533,-1.9398870468139648,-1.3832035706810073,-0.8862292731060281,-0.9873685197536817
1.3629319667816162,-0.034792035818099976,0.6630147695541382,0.029605980962514877,-15.355141639709473,-2.607074737548828,-2.1023759841918945,-1.4000195257942822,-1.8017745091708055,-1.8892744903429934
1.3729441165924072,-0.10870207846164703,0.6187610626220703,-0.0918211042881012,-14.965021133422852,-2.5234577655792236,-2.3609211444854736,-1.3014933075034008,-2.376613834020239,-2.450425473543343
1.3852651119232178,-0.15383011102676392,0.517736554145813,-0.1329350769519806,-14.432574272155762,-2.434821605682373,-2.5236921310424805,-1.1689185683009173,-2.60222429955358,-2.6625039912350363
1.3930389881134033,-0.15058816969394684,0.447628378868103,-0.18634474277496338,-13.547462463378906,-2.551506757736206,-2.599461317062378,-1.0326517693798938,-2.7113845927855644,-2.7568685080190125
1.4029450416564941,-0.10750849545001984,0.5432117581367493,-0.175676167011261,-12.2728853225708,-2.803882122039795,-2.6642632484436035,-0.9030487330542861,-2.775855873002749,-2.802507809481065
1.4130840301513672,-0.06748427450656891,0.6512572169303894,-0.1793731451034546,-10.547435760498047,-2.8885302543640137,-2.631038188934326,-0.7861374537935533,-2.8200491471210563,-2.823004048853398
1.423192024230957,-0.041330501437187195,0.6722647547721863,-0.22222816944122314,-8.278175354003906,-2.9451122283935547,-2.5266950130462646,-0.6883855754574132,-2.8526057791470993,-2.8281271527617835
1.4348971843719482,-0.03741520643234253,0.6737363934516907,-0.3515079617500305,-6.004332542419434,-3.0435190200805664,-2.464348554611206,-0.6128987408060247,-2.879265009113167,-2.8224104463933744
1.4434049129486084,-0.013934805989265442,0.6115850806236267,-0.37520378828048706,-4.2349958419799805,-2.9396984577178955,-2.3690645694732666,-0.5577564741166545,-2.902228818254389,-2.809340590776278
1.4539220333099365,0.04064878821372986,0.39287275075912476,-0.28157246112823486,-3.2483835220336914,-2.5951995849609375,-2.1915454864501953,-0.5164895008973298,-2.9217789784499013,-2.793258843050692
1.4631609916687012,0.028538376092910767,0.15363743901252747,-0.1190146803855896,-2.8815786838531494,-2.1003365516662598,-1.9387695789337158,-0.4823934097189706,-2.9376885695986816,-2.777420437140934
1.473116159439087,0.024893611669540405,-0.05533298850059509,0.07974445819854736,-2.6864686012268066,-1.637576937675476,-1.637658953666687,-0.451515316028943,-2.9502157785653593,-2.763907056763626
1.4841580390930176,0.06401382386684418,-0.1438300907611847,0.23558318614959717,-2.3579139709472656,-1.294540524482727,-1.3819448947906494,-0.42378071258208144,-2.960125514316204,-2.7527316138695364
1.4935338497161865,0.07829752564430237,-0.13788363337516785,0.3070244789123535,-1.8409003019332886,-1.020681619644165,-1.1448031663894653,-0.40071930837558134,-2.9678566377871762,-2.7432114341582383
1.5031499862670898,0.10470354557037354,-0.1310332715511322,0.29810237884521484,-1.338913083076477,-0.7711221575737,-0.9123989343643188,-0.3834155862486545,-2.97375636891594,-2.7351077774558568
1.5131499767303467,0.0923902690410614,-0.1442716121673584,0.20757871866226196,-1.0875625610351562,-0.537992000579834,-0.6626149415969849,-0.37029685810280555,-2.9779852122821113,-2.72888472224534
1.523285150527954,0.05497106909751892,-0.18819895386695862,0.10621106624603271,-1.0249253511428833,-0.37881729006767273,-0.42409637570381165,-0.3590243909304839,-2.9810439381650222,-2.724981187823387
1.5353648662567139,0.041375771164894104,-0.2210341989994049,0.06570851802825928,-1.0682226419448853,-0.3558276295661926,-0.23727338016033173,-0.3481412500160497,-2.9840765107572094,-2.723282185988888
1.5432660579681396,0.034857869148254395,-0.22741994261741638,0.09614002704620361,-1.0227704048156738,-0.43048563599586487,-0.06697595119476318,-0.33753719115044006,-2.9880345593530246,-2.723416939207944
1.5532891750335693,0.022142454981803894,-0.22160163521766663,0.10208714008331299,-0.9467770457267761,-0.4729582369327545,0.11655585467815399,-0.3277973176288027,-2.9932057106514214,-2.7252410463382444
1.563194990158081,0.012212127447128296,-0.15284982323646545,0.045581936836242676,-0.7950242757797241,-0.47016456723213196,0.2546426057815552,-0.3194168616050919,-2.999014536712519,-2.728584860191926
1.573249101638794,-0.036774903535842896,-0.08789980411529541,-0.003211379051208496,-0.6326984763145447,-0.4417833387851715,0.3281407952308655,-0.3127774263177757,-3.0048710493386284,-2.732691111823838
1.5842289924621582,-0.06641542166471481,-0.027181237936019897,-0.0297776460647583,-0.5300503969192505,-0.3985897898674011,0.365536093711853,-0.3075497963262102,-3.0104407563988778,-2.737147990526552
1.5932471752166748,-0.07895588129758835,0.043745726346969604,-0.02970147132873535,-0.5036219954490662,-0.3341886103153229,0.3775853216648102,-0.30290592532266797,-3.0154670971238406,-2.7417023155224047
1.6032841205596924,-0.09403502196073532,0.0765683650970459,-0.027246475219726562,-0.4691351056098938,-0.29106804728507996,0.3677363991737366,-0.29851163577327455,-3.019922814039317,-2.7462277848432333
1.6133339405059814,-0.10179916024208069,0.09906357526779175,-0.010033488273620605,-0.41412490606307983,-0.2540518343448639,0.35242170095443726,-0.29456678639970707,-3.0239218634184866,-2.7505420945581553
1.6235859394073486,-0.0987250804901123,0.12899088859558105,0.01746690273284912,-0.35586851835250854,-0.1784239113330841,0.3297102451324463,-0.29113516010821255,-3.027260092123502,-2.7545541844678323
1.6343140602111816,-0.09863489866256714,0.12498125433921814,0.01708167791366577,-0.2962805926799774,-0.07799215614795685,0.28350746631622314,-0.2882337168232325,-3.0295552306556854,-2.7581462444797484
1.6433560848236084,-0.11487457901239395,0.10456511378288269,-0.025694727897644043,-0.17498907446861267,-0.010553201660513878,0.21195310354232788,-0.28611757709858116,-3.0307503936932374,-2.761011748739454
1.6532399654388428,-0.12376975268125534,0.1042853593826294,-0.06471121311187744,-0.07009372860193253,-0.03598545864224434,0.12892399728298187,-0.2851368812450448,-3.031469639920388,-2.7629261721890392
1.6634130477905273,-0.11996342241764069,0.10669007897377014,-0.08379387855529785,-0.07523762434720993,-0.0926298275589943,0.052091002464294434,-0.2845709836009144,-3.0323764056052207,-2.7639098828788065
1.673410177230835,-0.10256928950548172,0.10390681028366089,-0.06331288814544678,-0.12321285158395767,-0.16570568084716797,0.002688352018594742,-0.28357593796740155,-3.033784116325529,-2.7643061805718894
1.6842880249023438,-0.08836466073989868,0.0943743884563446,-0.04195535182952881,-0.1334838718175888,-0.226671040058136,-0.04969975724816322,-0.28223664065218523,-3.035713069075134,-2.76420282715932
1.693354845046997,-0.0817018374800682,0.07949835062026978,-0.05777102708816528,-0.06928203254938126,-0.293366402387619,-0.08280561864376068,-0.28115500335631416,-3.0381313414862285,-2.763615137275413
1.703437089920044,-0.07461544871330261,0.05890008807182312,-0.06465113162994385,-0.041038673371076584,-0.3175974190235138,-0.09515442699193954,-0.28050285823512017,-3.040953671140751,-2.7627126066618004
1.7134530544281006,-0.04181522876024246,0.06109023094177246,-0.03655242919921875,-0.02821633592247963,-0.2995518147945404,-0.07437367737293243,-0.28008153155657256,-3.043828465474172,-2.7618842751518162
1.7235710620880127,-0.023991592228412628,0.037481456995010376,-0.013342857360839844,-0.0024025815073400736,-0.25618597865104675,-0.04238937795162201,-0.27986284673833706,-3.046465069727846,-2.7612801431922525
1.7348659038543701,-0.00027370452880859375,0.027177900075912476,0.02238333225250244,0.04479281231760979,-0.1850973516702652,-0.010214290581643581,-0.28002565618463604,-3.0485916222711933,-2.7609962534153163
1.743476152420044,0.021994829177856445,0.019941061735153198,0.039469003677368164,0.09342559427022934,-0.10808486491441727,0.02074575424194336,-0.28076041847756045,-3.05006478619749,-2.7610007266738164
1.753514051437378,0.03633186221122742,0.008008509874343872,0.048209547996520996,0.10476963967084885,-0.032071009278297424,0.0378604531288147,-0.28180886175539427,-3.050793214587215,-2.761192577259594
1.7634708881378174,0.054325319826602936,-0.0005356073379516602,0.08115911483764648,0.12301576137542725,0.02343832142651081,0.05789967626333237,-0.2829837552845926,-3.0509661154178365,-2.7616177776636577
1.7737081050872803,0.06382127106189728,-0.0018909573554992676,0.08928537368774414,0.13601064682006836,0.07675746828317642,0.05997055023908615,-0.2843160117700334,-3.05057442110973,-2.762097095354528
1.784311056137085,0.05263056606054306,0.002768009901046753,0.06479263305664062,0.13288143277168274,0.09831415861845016,0.06378579884767532,-0.2857418750231964,-3.0497600310394364,-2.7626142593520426
1.7934460639953613,0.03960584104061127,0.01446262001991272,0.02747952938079834,0.1338934451341629,0.09541823714971542,0.055664218962192535,-0.2871827371493085,-3.048883474164247,-2.763102721268634
1.8034369945526123,0.033867351710796356,0.015565872192382812,0.010863959789276123,0.11792592704296112,0.07097148895263672,0.04888780415058136,-0.2885145585883992,-3.048128673125234,-2.763518719599683
1.8133580684661865,0.027890384197235107,0.01760151982307434,0.002147674560546875,0.08152353018522263,0.03990735113620758,0.04401842877268791,-0.2896064914118434,-3.0477097429586775,-2.763898118162747
1.8236639499664307,0.020706363022327423,0.02683892846107483,-0.013931989669799805,0.021294275298714638,0.03268086537718773,0.031203828752040863,-0.29012596916176586,-3.0474522158045723,-2.7642469464241333
1.8353190422058105,0.018900074064731598,0.03162503242492676,-0.008559346199035645,0.01948632299900055,0.026962172240018845,0.004622072912752628,-0.290290586072599,-3.047277660912535,-2.764455738396302
1.8436610698699951,0.016856394708156586,0.026714622974395752,-0.019964933395385742,0.06113816425204277,0.014241849072277546,-0.01471513882279396,-0.2906059656780872,-3.047171700725116,-2.7644004848615435
1.853564977645874,0.01819596439599991,0.043101996183395386,-0.01990675926208496,0.09382673352956772,0.010584174655377865,-0.037881817668676376,-0.2913233840548095,-3.0471067006638486,-2.7641075570820024
1.8635518550872803,0.023640349507331848,0.04568982124328613,-0.01911640167236328,0.11619541794061661,0.004699920304119587,-0.048955775797367096,-0.2923017456960399,-3.0470339740264114,-2.7636056773326163
1.873655080795288,0.01925577223300934,0.027925938367843628,-0.016952574253082275,0.09561783820390701,-0.024143889546394348,-0.06392369419336319,-0.29330839966688005,-3.0470587987493487,-2.762946889112064
1.8846380710601807,0.023519709706306458,0.030250996351242065,0.003336787223815918,0.0842280313372612,-0.02504696696996689,-0.07031794637441635,-0.29413146942794527,-3.0472042818221396,-2.762189220519505
1.8940479755401611,0.025874055922031403,-0.004608482122421265,0.02131408452987671,0.1345827430486679,-0.022836808115243912,-0.05944676324725151,-0.2951766868882163,-3.04731370356775,-2.7614255217528947
1.9041988849639893,0.01540142297744751,0.0037892162799835205,0.010279476642608643,0.19050060212612152,0.0016919691115617752,-0.040639255195856094,-0.29684610714546616,-3.047302966352952,-2.7607564320549294
1.9137070178985596,0.01150762289762497,0.026415318250656128,-0.004889845848083496,0.23912088572978973,0.02564537152647972,-0.011941936798393726,-0.29906774196598473,-3.047080979503963,-2.7602888558576013
1.9237759113311768,0.0008174628019332886,0.012523770332336426,-0.002802252769470215,0.29749181866645813,0.049144841730594635,0.008016858249902725,-0.30183767856885524,-3.046688012870535,-2.7600247196554313
1.9347360134124756,-0.0029224753379821777,0.016489386558532715,0.0076909661293029785,0.3527587950229645,0.05343785136938095,0.03066331520676613,-0.30545311272607345,-3.046324574307174,-2.759964285345446
1.943709135055542,-0.0030182823538780212,0.02195817232131958,0.0015499591827392578,0.36881738901138306,0.045590050518512726,0.026303453370928764,-0.30951324450277273,-3.046093122286229,-2.7599932555653917
1.9537169933319092,-0.011998675763607025,0.02364957332611084,-0.003628849983215332,0.3310937285423279,0.05077442526817322,0.015291069634258747,-0.3132024069143484,-3.045778549801471,-2.759911022700855
1.9637930393218994,-0.019915275275707245,0.004804551601409912,0.0003954172134399414,0.30788612365722656,0.04818343743681908,0.013554953970015049,-0.3164764872326432,-3.0455118345919665,-2.7598411717638025
1.9737930297851562,-0.02688753604888916,-0.0017472505569458008,-0.003037869930267334,0.2936258316040039,0.040024444460868835,0.0028227348811924458,-0.31921340055749814,-3.045310946158442,-2.759705595024877
1.9842231273651123,-0.027356132864952087,0.018924951553344727,-0.004670977592468262,0.29162871837615967,0.04190170764923096,0.006770072504878044,-0.3219020789350448,-3.045026078086036,-2.759533462328418
1.993713140487671,-0.027405232191085815,0.012664079666137695,0.004683732986450195,0.36025872826576233,0.05167413130402565,-0.0016203231643885374,-0.3251580549161754,-3.0446002227996494,-2.7592748060426073
2.003925085067749,-0.030410848557949066,0.014193683862686157,0.0051566362380981445,0.4621874988079071,0.06961638480424881,-0.005655278451740742,-0.32915026318394236,-3.0438846957948136,-2.758818344771014
2.0138509273529053,-0.030635662376880646,0.034635692834854126,-0.004018843173980713,0.5823492407798767,0.11300304532051086,0.00264078751206398,-0.334238871756356,-3.042799488455293,-2.7582643354528242
2.02817702293396,-0.032281629741191864,0.028421759605407715,-0.006457209587097168,0.7716344594955444,0.17779375612735748,0.02045653574168682,-0.34095396439956793,-3.041147806899869,-2.7576684039901918
2.03728985786438,-0.030256882309913635,0.03302451968193054,-0.00934600830078125,1.019274115562439,0.260784387588501,0.06322253495454788,-0.34987878508989156,-3.038804017171182,-2.757129472861716
2.043718099594116,-0.02755315601825714,0.05086836218833923,-0.029516220092773438,1.308958649635315,0.3879290223121643,0.12304991483688354,-0.3615760119984692,-3.035431776753581,-2.756812673612681
2.0536959171295166,-0.03357311338186264,0.052499622106552124,-0.05770516395568848,1.4696406126022339,0.49877631664276123,0.17021647095680237,-0.3756780434789665,-3.030964298233708,-2.7567802155194006
2.0636870861053467,-0.03928079456090927,0.04403918981552124,-0.03538799285888672,1.4871424436569214,0.5362704396247864,0.20688126981258392,-0.3906732111473319,-3.025790659534649,-2.7569509130884224
2.0739119052886963,-0.02920261025428772,-0.009967654943466187,0.04829663038253784,1.6343308687210083,0.5524000525474548,0.251925528049469,-0.40630879496542005,-3.0205308506311015,-2.757466255704113
2.084352970123291,-0.0038682371377944946,-0.045703500509262085,0.09565585851669312,1.9437828063964844,0.5645446181297302,0.28777673840522766,-0.4243360799369632,-3.0151673170346966,-2.7579774887305786
2.094058036804199,0.0037270188331604004,0.006972819566726685,0.08079040050506592,2.378915548324585,0.6594613194465637,0.3598717749118805,-0.4461588982006032,-3.0093202506825,-2.758431482597762
2.1040570735931396,-0.001503877341747284,0.06004634499549866,0.049850523471832275,2.899512767791748,0.8325191140174866,0.47374239563941956,-0.4728675784855192,-3.0021312648659624,-2.7590347928675096
2.1138880252838135,-0.006734371185302734,0.07266992330551147,0.01990443468093872,3.452003240585327,1.0288711786270142,0.5928642749786377,-0.505116551193774,-2.993212560629985,-2.7598610608421357
2.1239850521087646,-0.00987100601196289,0.09912115335464478,0.013175010681152344,4.0206170082092285,1.2480038404464722,0.7033968567848206,-0.5430549906641134,-2.9822219814704574,-2.760670358793833
2.1343181133270264,-0.01150667667388916,0.10749202966690063,0.0301816463470459,4.594901084899902,1.440901517868042,0.8057746291160583,-0.5868395557350601,-2.968926333469544,-2.7610419102712087
2.1439878940582275,-0.00885249674320221,0.0955849289894104,0.05813878774642944,5.168328285217285,1.5640612840652466,0.8980097770690918,-0.6364838793920788,-2.953595193161879,-2.7606140200258564
2.1543049812316895,0.001119762659072876,0.11070698499679565,0.10427236557006836,5.706038475036621,1.6352238655090332,0.9767157435417175,-0.6917540053247222,-2.9364078792689985,-2.758766907721296
2.1639211177825928,-0.0006008446216583252,0.12672817707061768,0.15098834037780762,6.202323913574219,1.683733582496643,1.0554702281951904,-0.7521886700492366,-2.9173410255344394,-2.7551085189032247
2.1740448474884033,-0.015084803104400635,0.11424446105957031,0.19993406534194946,6.720822811126709,1.6876976490020752,1.0890456438064575,-0.8175539732880353,-2.895826656731197,-2.748624527902859
2.1848361492156982,-0.019132360816001892,0.08339095115661621,0.24184077978134155,7.506155490875244,1.7010483741760254,1.0838050842285156,-0.8890239692278858,-2.869972997843404,-2.7369521026414594
2.194244146347046,-0.008743807673454285,0.07380902767181396,0.2684279680252075,8.404867172241211,1.6270051002502441,1.1000009775161743,-0.9685746552108668,-2.836882293983593,-2.716534505609381
2.2043139934539795,-0.003520980477333069,0.12602269649505615,0.2710789442062378,9.16010570526123,1.5186383724212646,1.112871766090393,-1.0555938489677275,-2.7925821366546746,-2.682942664213658
2.214900016784668,-0.01698392629623413,0.21994823217391968,0.29419630765914917,9.796333312988281,1.4896571636199951,1.0818301439285278,-1.1478970878790233,-2.727908461824715,-2.627352130723692
2.2244389057159424,-0.0395241379737854,0.24009966850280762,0.3313096761703491,10.190804481506348,1.485727071762085,1.0055007934570312,-1.242306035509346,-2.622176102052954,-2.5298679381165288
2.2348520755767822,-0.05561470985412598,0.17942708730697632,0.3611360788345337,10.100512504577637,1.4569954872131348,0.8494548797607422,-1.331340037289888,-2.4318904571898097,-2.3472441275607747
2.2441389560699463,-0.06951072812080383,0.11448198556900024,0.4168210029602051,9.627342224121094,1.5558948516845703,0.6522651314735413,-1.4003475967336487,-2.066669391345347,-1.989943244646138
2.254179000854492,-0.10429435968399048,0.015542387962341309,0.47919750213623047,8.771056175231934,1.6492284536361694,0.5534960031509399,-1.425916721392729,-1.4816144731651886,-1.4142148876691598
2.2640769481658936,-0.11741481721401215,-0.07733136415481567,0.5042731761932373,7.833271026611328,1.7939621210098267,0.47011908888816833,-1.401311011451519,-0.9559970274967671,-0.8997278996821305
2.2742559909820557,-0.10590818524360657,-0.11125433444976807,0.5038403868675232,7.142294883728027,1.909952163696289,0.4831870496273041,-1.3520398330881214,-0.6458608326947182,-0.6029044672179504
2.2858150005340576,-0.10959599912166595,-0.13901406526565552,0.4424413740634918,6.5507683753967285,1.8697805404663086,0.4537809491157532,-1.2962422551289903,-0.46695036047147803,-0.43803199468747456
2.294232130050659,-0.09282968193292618,-0.09529316425323486,0.39417195320129395,6.065991401672363,1.8452080488204956,0.3728361427783966,-1.2399638036831402,-0.35544022557225435,-0.3407153034893952
2.3042800426483154,-0.0840136855840683,-0.06164062023162842,0.338698148727417,5.715585708618164,1.8762460947036743,0.3584180772304535,-1.1851068170606205,-0.27859372148815675,-0.2785679338265066
2.314242124557495,-0.08778013288974762,-0.041578054428100586,0.2721710205078125,5.468210697174072,1.8939019441604614,0.39933833479881287,-1.1318023666715378,-0.21972527246869597,-0.234976040497187
2.3242199420928955,-0.08095791190862656,-0.005887806415557861,0.22397208213806152,5.277121543884277,1.8459928035736084,0.41496631503105164,-1.0798664873093757,-0.17210788190397033,-0.20267551423665414
2.334568977355957,-0.07520343363285065,0.019348442554473877,0.2309103012084961,5.298027992248535,1.8820743560791016,0.4539158344268799,-1.02834340444694,-0.1319876541289547,-0.17796698302909478
2.344209909439087,-0.06606805324554443,0.020090162754058838,0.24183344841003418,5.4756011962890625,1.7390023469924927,0.5381678938865662,-0.9753563559200348,-0.0963794597909497,-0.15737748831177356
2.3542680740356445,-0.05766935274004936,0.06394249200820923,0.22771626710891724,5.665632724761963,1.524646520614624,0.5284706354141235,-0.9201742341868476,-0.06634573284853236,-0.14043478105971338
2.364258050918579,-0.05295509845018387,0.11847341060638428,0.2661471366882324,5.8408284187316895,1.3880412578582764,0.5051035284996033,-0.8628991545669208,-0.041536938108684855,-0.12734958044826666
2.3744139671325684,-0.0441117137670517,0.125840425491333,0.27062690258026123,5.916241645812988,1.2237037420272827,0.4892035722732544,-0.8040881858052561,-0.020964213658843264,-0.11721645124798608
2.3844940662384033,-0.04339529573917389,0.1347067952156067,0.27792537212371826,5.83109712600708,1.1120210886001587,0.4331549406051636,-0.7452968418741494,-0.004174649783529861,-0.10977099512717432
2.3941919803619385,-0.038210056722164154,0.10783004760742188,0.2882475256919861,5.688464164733887,1.093361258506775,0.4223339259624481,-0.6875522200670955,0.010427863661544657,-0.10438206095866864
2.4043209552764893,-0.03804829716682434,0.0723567008972168,0.26795101165771484,5.388116836547852,0.9959015250205994,0.37120309472084045,-0.6319435141094684,0.023272294267432138,-0.10049109342696329
2.414273977279663,-0.04250241070985794,0.0755203366279602,0.2668435573577881,4.972823143005371,0.9655621647834778,0.30571720004081726,-0.579952714494134,0.03430849704680897,-0.0982431600758326
2.424423933029175,-0.03953813016414642,0.03794968128204346,0.26240038871765137,4.51973819732666,1.008644938468933,0.3305298686027527,-0.5323590904496412,0.04491171129026698,-0.09676126228850525
2.4346201419830322,-0.03730904683470726,-0.012173175811767578,0.22220581769943237,4.140437126159668,1.0786463022232056,0.3648579716682434,-0.4889600133185579,0.05613498021813392,-0.09524995555787771
2.4444780349731445,-0.04390484839677811,-0.00802987813949585,0.18589258193969727,3.877655029296875,1.0707948207855225,0.3942350447177887,-0.4487353531327658,0.0676467046783071,-0.09377920908409408
2.4547178745269775,-0.04677340388298035,0.018153846263885498,0.16076767444610596,3.7264416217803955,1.0284030437469482,0.4221976101398468,-0.41054931333721956,0.0787020389830294,-0.09235010497664062
2.464735984802246,-0.030246108770370483,0.027629047632217407,0.14532428979873657,3.6709723472595215,1.0114580392837524,0.473998486995697,-0.3732995766377272,0.08954894099783146,-0.09089010244744523
2.474390983581543,-0.025359712541103363,0.022007495164871216,0.12101435661315918,3.6694839000701904,0.9402108192443848,0.49842268228530884,-0.33631719829752016,0.09976970912129685,-0.08939537365871612
2.4845468997955322,-0.027801625430583954,0.03204783797264099,0.11698722839355469,3.7280521392822266,0.8738965392112732,0.5457547903060913,-0.29889018429478253,0.10941429688635874,-0.08799798612096896
2.4943878650665283,-0.018472500145435333,0.02788442373275757,0.11215710639953613,3.7120847702026367,0.7666676640510559,0.5235571265220642,-0.26122453515334193,0.1178733092587896,-0.08681118262941029
2.504430055618286,-0.015687227249145508,0.02316497266292572,0.12639904022216797,3.6099050045013428,0.7279825806617737,0.5161189436912537,-0.22416056360214337,0.1255174691283072,-0.08611183695344214
2.514475107192993,-0.02058275043964386,-0.009949803352355957,0.12882941961288452,3.4303998947143555,0.6863880753517151,0.5380196571350098,-0.18844670760647173,0.13279847719447965,-0.08541530239903493
2.5243430137634277,-0.022392243146896362,-0.034419670701026917,0.11733657121658325,3.122596502304077,0.6142653822898865,0.4919547140598297,-0.15518967008590456,0.13934951765700523,-0.08470227251702189
2.5359389781951904,-0.019065365195274353,-0.05803441256284714,0.1260279417037964,2.7669832706451416,0.6398667097091675,0.45104318857192993,-0.12530246448254,0.14568765871532977,-0.08425782518588452
2.544667959213257,-0.0220811665058136,-0.10806986689567566,0.114956796169281,2.3609046936035156,0.6449970006942749,0.41885384917259216,-0.09924539387656633,0.15218262428306958,-0.0837282094228774
2.554780960083008,-0.03391537070274353,-0.12434618920087814,0.09398758411407471,1.9338927268981934,0.6771830320358276,0.35400301218032837,-0.07741126085704479,0.15880419495774897,-0.08322468000054596
2.5646450519561768,-0.03212340176105499,-0.1299481987953186,0.08939230442047119,1.6242637634277344,0.7738168835639954,0.3390118181705475,-0.05944192713952387,0.16605069143072676,-0.08270151326694986
2.57476806640625,-0.023711487650871277,-0.1316223442554474,0.06258153915405273,1.4939790964126587,0.7538982629776001,0.38869374990463257,-0.043470872415722506,0.17392018386085167,-0.08171612263970003
2.5851800441741943,-0.014780208468437195,-0.08525939285755157,0.031055927276611328,1.4212857484817505,0.6567898392677307,0.3654078543186188,-0.02847014333014205,0.18100080460660464,-0.08054043541990522
2.594689130783081,0.004728600382804871,-0.016465509310364723,0.03567379713058472,1.384547472000122,0.6087082624435425,0.3712925910949707,-0.014009417821315599,0.18734725777695793,-0.07953612960363643
2.6048481464385986,0.026042327284812927,-5.91174466535449e-05,0.013583183288574219,1.3724843263626099,0.5275644063949585,0.4137420356273651,0.00029171784536750575,0.19308098755829364,-0.07827867946579611
2.6145830154418945,0.039525106549263,0.02045954018831253,-0.011922478675842285,1.3217943906784058,0.4556523561477661,0.4146154224872589,0.014341138760724455,0.19794535140399863,-0.07681644073980931
2.624635934829712,0.04239080846309662,0.03959021717309952,-0.008934497833251953,1.202757477760315,0.3978806734085083,0.4021800458431244,0.027600194443994516,0.20219393692402687,-0.07533422482518065
2.6351680755615234,0.03857174515724182,0.026975594460964203,-0.012303650379180908,0.9970836639404297,0.352890282869339,0.3617624044418335,0.03920780748532164,0.20588017623310467,-0.07380379238544053
2.6445839405059814,0.03278367221355438,-0.0015211254358291626,-0.007225990295410156,0.7335675954818726,0.3346417546272278,0.2944670021533966,0.04839387567646059,0.20924786084661595,-0.07237603943907923
2.6568491458892822,0.019707635045051575,-0.036430150270462036,-0.00234144926071167,0.42752373218536377,0.31059443950653076,0.21731410920619965,0.05463083619031685,0.21240970431676093,-0.0710735165942518
2.6651580333709717,0.011385828256607056,-0.05889065936207771,-0.0013346076011657715,0.09956929087638855,0.29865655303001404,0.1294335126876831,0.05758085129437003,0.2153917879194515,-0.06993438932659321
2.6745309829711914,0.009481996297836304,-0.0693729966878891,0.0002377033233642578,-0.20988251268863678,0.2906491160392761,0.0425635427236557,0.057183920724512734,0.21826283259176035,-0.06896941340927834
2.6846930980682373,0.006354883313179016,-0.07022936642169952,-0.002726435661315918,-0.4430987238883972,0.2857361137866974,-0.021973904222249985,0.0539574506448471,0.22111865207197062,-0.06816088376876099
2.694676160812378,0.004781156778335571,-0.06032761558890343,-0.014400124549865723,-0.5577956438064575,0.2516886293888092,-0.06672657281160355,0.04886834498313451,0.22380294139751977,-0.06748536207398839
2.70468807220459,0.011292189359664917,-0.03038155287504196,-0.02905404567718506,-0.5460769534111023,0.1898851841688156,-0.0896124467253685,0.043240195260342035,0.22598895950457282,-0.06700861407889594
2.71500301361084,0.020769402384757996,0.011927559971809387,-0.03772181272506714,-0.4484034776687622,0.12799540162086487,-0.08673963695764542,0.038151293681692816,0.22756956863631259,-0.06676324864514621
2.724766969680786,0.02398712933063507,0.052288301289081573,-0.042460620403289795,-0.3282245993614197,0.06041555851697922,-0.06495417654514313,0.0341979185382178,0.22849442628714212,-0.06663107969089896
2.7351109981536865,0.018445119261741638,0.07031037658452988,-0.04364436864852905,-0.23270347714424133,0.0192705187946558,-0.05476289987564087,0.03134444082560235,0.228867684586261,-0.06657345377559819
2.744684934616089,0.007045313715934753,0.061020925641059875,-0.03705596923828125,-0.16794312000274658,-0.00012288661673665047,-0.04684053361415863,0.029286710149684026,0.22894873806361773,-0.06661735816285559
2.754822015762329,-0.006981000304222107,0.03969960659742355,-0.02862006425857544,-0.125370055437088,0.0031721091363579035,-0.04185115173459053,0.02777068304538057,0.22894223904605207,-0.06671409357047274
2.7647550106048584,-0.02017231285572052,0.02380966767668724,-0.019393086433410645,-0.10828400403261185,0.014747005887329578,-0.031831808388233185,0.026559251522318115,0.22903653414730046,-0.06680955041149943
2.7747271060943604,-0.029042065143585205,0.008572112768888474,-0.016535580158233643,-0.08793224394321442,0.02981681376695633,-0.030073003843426704,0.025512015433325368,0.2292697878430575,-0.0668830337376577
2.785521984100342,-0.028153374791145325,0.0033826660364866257,-0.01675492525100708,-0.04788336157798767,0.027752064168453217,-0.02612140402197838,0.024777903506119824,0.22957517816128276,-0.06700370685307433
2.7949259281158447,-0.023945868015289307,0.003901159390807152,-0.015188097953796387,-0.0009526234352961183,0.019413042813539505,-0.022096462547779083,0.02448759140414381,0.22982832657508948,-0.06718674638220506
2.804965019226074,-0.022766754031181335,0.0062891822308301926,-0.007157444953918457,0.0312575101852417,0.016656138002872467,-0.009510630741715431,0.024602090293572274,0.22999711765624176,-0.06738192396924036
2.8149609565734863,-0.02034860849380493,0.007876241579651833,-0.0023953914642333984,0.05359866842627525,0.010111774317920208,-0.0019668005406856537,0.02501434664932904,0.23014881997706169,-0.06752869637870736
2.825209856033325,-0.018158793449401855,0.003465276211500168,0.0004730224609375,0.06109120696783066,0.007392420433461666,0.0016066291136667132,0.0255779301480369,0.23022253687634098,-0.06767416841529934
2.8349769115448,-0.01895783841609955,-0.003898153081536293,0.006942093372344971,0.07666414231061935,0.016293946653604507,0.01083645224571228,0.02616452732352388,0.23029454334801028,-0.06778124505638061
2.844766855239868,-0.020576253533363342,-0.006625387817621231,0.008707165718078613,0.09310197085142136,0.01327285822480917,0.022059280425310135,0.026931823972572953,0.23036305017659695,-0.06780713332320956
2.8548171520233154,-0.01884707808494568,0.0023633260279893875,0.0035187602043151855,0.13111819326877594,0.010154739953577518,0.030099257826805115,0.028001631446889497,0.23023944903420657,-0.06780773287118565
2.8648340702056885,-0.010745316743850708,0.008444204926490784,0.00018256902694702148,0.16578510403633118,0.0006981212645769119,0.03837476298213005,0.029474962669103388,0.22996781536872915,-0.06780233846725889
2.875009059906006,-0.007011130452156067,0.007829420268535614,-0.0012664794921875,0.1836223304271698,-0.01540446002036333,0.041120003908872604,0.03119556426087454,0.22960811082253488,-0.06780255405335311
2.885500192642212,-0.010462850332260132,0.010167881846427917,0.0016646385192871094,0.16426940262317657,-0.026050712913274765,0.029225792735815048,0.03284822751028798,0.2291064359215608,-0.06783056176452189
2.8950798511505127,-0.008049055933952332,0.0027754902839660645,0.007420182228088379,0.11847708374261856,-0.017339691519737244,0.021183259785175323,0.03410827540860588,0.22864301171795404,-0.06790618568915317
2.9066970348358154,-0.008989006280899048,-0.010117601603269577,0.01111835241317749,0.0639195665717125,-0.014552159234881401,0.006427483633160591,0.03490279251779286,0.22829826278966459,-0.06796469701964167
2.9149181842803955,-0.013403177261352539,-0.018223192542791367,0.014126956462860107,0.007338829338550568,-0.011966896243393421,-0.015662265941500664,0.035174438988656485,0.2279758018588295,-0.06808843957894685
2.9249470233917236,-0.013095363974571228,-0.01748087629675865,0.018893063068389893,-0.01749621331691742,0.007467254996299744,-0.022174227982759476,0.03504692797904891,0.22776831823431162,-0.0682610765193166
2.9349570274353027,-0.010592788457870483,-0.013493787497282028,0.013764142990112305,-0.011770367622375488,0.006890547461807728,-0.014556308276951313,0.034746111995582606,0.22768737788645266,-0.06839962116111836
2.9449470043182373,-0.007703185081481934,0.0003783702850341797,0.007139742374420166,0.016592830419540405,-0.009751013480126858,-0.015472701750695705,0.034580082967483876,0.22758614936512314,-0.06854787977091018
2.955035924911499,-0.0001611262559890747,0.014056872576475143,0.006309807300567627,0.03502187132835388,-0.01566252112388611,-0.02109021507203579,0.0346783272438191,0.22739456029507546,-0.0687870682019541
2.9650661945343018,0.005258455872535706,0.016994737088680267,0.004751443862915039,0.03262582793831825,-0.013177524320781231,-0.018000947311520576,0.034854451250139654,0.22717377881834125,-0.06905964964102414
2.9750101566314697,0.002373442053794861,0.011286076158285141,0.0020461678504943848,0.013385552912950516,-0.0032252036035060883,-0.024615919217467308,0.035005262529389555,0.22703511287933104,-0.0693185018330114
2.985092878341675,-0.0017764866352081299,0.004486836493015289,0.002421736717224121,-0.013475888408720493,0.004707022104412317,-0.03813252970576286,0.035041982079894805,0.2269879274535052,-0.06962966781682141
2.9949748516082764,-0.0018566399812698364,-0.0009441226720809937,0.004302024841308594,-0.029869958758354187,0.015537077561020851,-0.04081651568412781,0.03492100969582402,0.22699090896317808,-0.06995488171677972
3.0050861835479736,-0.0017312467098236084,0.0007658302783966064,0.004585146903991699,-0.02302909642457962,0.02232600748538971,-0.03931582346558571,0.03476929725002938,0.22711164509796872,-0.0702827097794066
3.0149080753326416,0.00027370452880859375,0.007037397474050522,-0.0003021359443664551,0.012210133485496044,0.0050446223467588425,-0.03285137191414833,0.03476950305046736,0.2271994539519695,-0.07060697236205699
3.024994134902954,0.004629954695701599,0.014096967875957489,-0.0007469058036804199,0.038237206637859344,-0.011033413000404835,-0.03286948427557945,0.03494746686211582,0.22711483292958642,-0.07098327793062985
3.0351719856262207,0.010085508227348328,0.018689163029193878,-0.0010530352592468262,0.05339169129729271,-0.013877670280635357,-0.03357942774891853,0.035191052009773224,0.22701438433184165,-0.07142652060118794
3.044968843460083,0.009979546070098877,0.015998438000679016,-0.0007623434066772461,0.03376712277531624,-0.008706876076757908,-0.039418675005435944,0.03536909509524168,0.2269836369423755,-0.0718763325556012
3.055147886276245,0.005718737840652466,0.005947981029748917,-0.0019736886024475098,-0.009339733049273491,-0.006175186485052109,-0.051136478781700134,0.035282573166535686,0.2269552950838092,-0.07234147624260663
3.0651299953460693,0.0011662989854812622,-0.011336926370859146,0.0008318424224853516,-0.06222638487815857,-0.003072604537010193,-0.06876128166913986,0.03475148970305992,0.22690945418874395,-0.07284455090965986
3.0751569271087646,-5.872547626495361e-05,-0.020637672394514084,0.003963649272918701,-0.09972232580184937,0.01824812963604927,-0.0762132853269577,0.03378147138473498,0.2269688868238249,-0.07337013456295922
3.0854740142822266,-0.001466706395149231,-0.019781295210123062,0.0024057626724243164,-0.09699205309152603,0.034636158496141434,-0.061954449862241745,0.0326230488260235,0.227277666691629,-0.07382930343141636
