timestamp,accel_x,accel_y,accel_z,rotation_x,rotation_y,rotation_z, pitch,roll,yaw
0.042378902435302734,0.0028905868530273438,-0.024970799684524536,-0.00027674436569213867,-0.012141572311520576,0.003530024318024516,0.0009174508741125464,-0.42720572565198517,1.4317670524724357,0.37296048838769913
0.05565595626831055,0.0020266175270080566,-0.025947093963623047,-0.00031280517578125,-0.00894013699144125,0.0018875196110457182,0.0002116599353030324,-0.42720542515542365,1.4318409586001701,0.3730790000076517
0.06786489486694336,0.002839207649230957,-0.025332510471343994,9.165704250335693e-05,-0.008443458005785942,0.00532060069963336,0.0014564214507117867,-0.4272008998856297,1.4319172927103268,0.3731766711244216
0.0758819580078125,0.003172576427459717,-0.0251903235912323,-0.0011572837829589844,-0.006555410102009773,0.00468366127461195,0.00372128002345562,-0.42717869129233355,1.4319838922300654,0.37325814639406873
0.08055686950683594,0.0037465691566467285,-0.02496430277824402,-0.0026216357946395874,-0.00578149501234293,0.003388832090422511,0.0018480125581845641,-0.4271482758208509,1.4320529788326823,0.37332679059547597
0.08193683624267578,0.005999326705932617,-0.024661481380462646,-0.0006180852651596069,-0.009238860569894314,0.003495758166536689,0.00474451994523406,-0.4271173138412801,1.432117495659155,0.37340218532954017
0.09150099754333496,0.006064176559448242,-0.024363189935684204,0.001485779881477356,-0.010130753740668297,0.004855301696807146,0.0033972267992794514,-0.4270745862047766,1.4321899636975692,0.37349934732718615
0.10129499435424805,0.007860541343688965,-0.023884326219558716,0.001599431037902832,-0.011500284075737,0.003432020079344511,0.002614949829876423,-0.42705145310905157,1.4322685363927237,0.37360646263478337
0.11133003234863281,0.006807386875152588,-0.025323420763015747,0.00045390427112579346,-0.011604413390159607,0.0032373429276049137,0.000993350869975984,-0.4270398791638618,1.4323551176868248,0.373735969434424
0.12147808074951172,0.004662573337554932,-0.024503082036972046,-0.0017405599355697632,-0.012683859094977379,0.0034597169142216444,-0.0006432679947465658,-0.42704389623979633,1.432436401789442,0.37386672191151865
0.13135194778442383,0.005211293697357178,-0.024037986993789673,-0.002691492438316345,-0.012379992753267288,0.005000355653464794,-0.00209016352891922,-0.4270693545671185,1.4325248335514882,0.3739986830954673
0.14137005805969238,0.0037626028060913086,-0.023549675941467285,-0.0019311308860778809,-0.011124628596007824,0.006740775424987078,-0.004437580239027739,-0.4271028826994179,1.4326271218513342,0.3741281016646519
0.15144586563110352,0.0038420557975769043,-0.025049179792404175,-0.00135117769241333,-0.006950655952095985,0.005643553100526333,-0.0021224941592663527,-0.4271409801541055,1.4327261398617823,0.37422338702291613
0.1617588996887207,0.006249368190765381,-0.024220943450927734,-0.0029398202896118164,-0.00429929606616497,0.004822101444005966,-0.000785054755397141,-0.42715306496554667,1.4327949503174626,0.37428118362358737
0.17154598236083984,0.00607532262802124,-0.025888174772262573,-0.0045845359563827515,-0.004618875682353973,0.00407561706379056,-0.00048757961485534906,-0.4271574207099761,1.4328587884380741,0.3743293859423079
0.18157696723937988,0.005077660083770752,-0.027064025402069092,-0.006399378180503845,-0.008531258441507816,0.0036254539154469967,0.0001793291885405779,-0.42715842485785416,1.4329084672123704,0.37438421049399273
0.19153499603271484,0.0035456418991088867,-0.028523504734039307,-0.004909515380859375,-0.00942874327301979,0.0010459162294864655,-7.899745833128691e-05,-0.4266497161766146,1.4329974487644819,0.37449050351164725
0.2015209197998047,0.0036306381225585938,-0.025668025016784668,-0.0017185062170028687,-0.01428135670721531,-0.0019063754007220268,0.0008591808145865798,-0.4261948401833315,1.43302396693521,0.3746216868328605
0.21153783798217773,0.005085766315460205,-0.024244636297225952,-0.0014759153127670288,-0.01597219705581665,-0.005905644502490759,0.0022442908957600594,-0.4257544631236175,1.4330026885105402,0.3747743455399542
0.22173500061035156,0.007015645503997803,-0.025875836610794067,-0.0035262107849121094,-0.016485804691910744,-0.008654515258967876,0.001767851528711617,-0.425350815889124,1.4329665890810384,0.37494240585545463
0.23158693313598633,0.006704568862915039,-0.022209107875823975,-0.003929808735847473,-0.01138398703187704,-0.009798342362046242,0.005128494463860989,-0.42491032446751714,1.4329173162428737,0.375089577411239
0.24161195755004883,0.006291210651397705,-0.020479053258895874,-0.004480838775634766,-0.006986941676586866,-0.010094929486513138,0.005153421312570572,-0.4244684408393761,1.432828596747782,0.375187210015594
0.2516660690307617,0.004869580268859863,-0.01954224705696106,-0.0015423893928527832,-0.004988239146769047,-0.009792661294341087,0.00292515498585999,-0.4240097515605969,1.4326955393025087,0.3752305660101708
0.26163816452026367,0.002454221248626709,-0.01932564377784729,-0.00319458544254303,-0.002658272860571742,-0.006819507572799921,0.0018395971274003386,-0.423571325113778,1.4325249704676148,0.37522694025942505
0.2723078727722168,0.0013595223426818848,-0.01945599913597107,-0.0018060803413391113,-0.0005503809079527855,-0.007194747682660818,-0.001429433119483292,-0.4231619402307346,1.4323816943437626,0.3752074253959192
0.2817859649658203,0.0009958148002624512,-0.02017417550086975,-0.0018845200538635254,-0.0014102158602327108,-0.0051521919667720795,-0.003242672886699438,-0.42281163552891443,1.432321608592356,0.3752102588148215
0.29177188873291016,0.0015445351600646973,-0.019333750009536743,-0.0013279318809509277,-0.0020427166018635035,-0.005299464799463749,-0.004304475151002407,-0.4224924450156228,1.4322659487628806,0.37521757316493104
0.30193185806274414,0.0026389360427856445,-0.01811319589614868,-0.00020341575145721436,-0.00475195050239563,-0.006575118750333786,-0.005673872772604227,-0.42215804267935403,1.4321907170922907,0.37523367845887906
0.3117959499359131,0.003778219223022461,-0.019179880619049072,-0.00017543137073516846,-0.005738917738199234,-0.00904040690511465,-0.005326330196112394,-0.4218889662566624,1.4320921328202432,0.3752610534221456
0.3218388557434082,0.0037874579429626465,-0.020045965909957886,0.0015426278114318848,-0.00777630228549242,-0.008562013506889343,-0.005497625097632408,-0.4216507139889051,1.4319788189116276,0.3753040787475517
0.33176708221435547,0.003570377826690674,-0.018329083919525146,0.0013011246919631958,-0.010610438883304596,-0.006965982262045145,-0.004382026381790638,-0.4214413175746579,1.4319383592867512,0.37539861947210423
0.3416891098022461,0.0030227303504943848,-0.01990094780921936,0.0007187128067016602,-0.012061461806297302,-0.005591435357928276,-0.004748903680592775,-0.4212409515282237,1.4318862882689503,0.3755086536842415
0.35166001319885254,0.0032782554626464844,-0.01852056384086609,0.000500991940498352,-0.012695561163127422,-0.005887046456336975,-0.0027901488356292248,-0.4210324858107334,1.4318531965580898,0.37563434884024977
0.3617081642150879,0.004096329212188721,-0.017564833164215088,0.0008112192153930664,-0.009829133749008179,-0.004027893766760826,-0.0031767331529408693,-0.4208212753306404,1.4318270957137784,0.37574979486581467
0.37178707122802734,0.004700601100921631,-0.016945302486419678,0.00043123960494995117,-0.007775303907692432,-0.005637507885694504,-0.003108023665845394,-0.4206106553880947,1.4318048717215983,0.37583581264567406
0.3816690444946289,0.003941237926483154,-0.016470223665237427,0.0005056858062744141,-0.007868364453315735,-0.0064029451459646225,-0.0037285401485860348,-0.42042456467195266,1.4317847960461554,0.3759183083731559
0.39192914962768555,0.003974258899688721,-0.01905900239944458,-0.0005771517753601074,-0.01217043586075306,-0.006381373852491379,-0.007461492903530598,-0.4202349656233405,1.4317622719863643,0.3760202419196066
0.40180110931396484,0.0002091526985168457,-0.02071937918663025,-0.0001064687967300415,-0.011962891556322575,-0.004911797121167183,-0.007521999999880791,-0.42006485923706655,1.4317923842926923,0.37615269891621034
0.4117908477783203,-0.0017916560173034668,-0.019961237907409668,0.0013970136642456055,-0.010216124355793,-0.006004491820931435,-0.006887634750455618,-0.4199196337903335,1.431826227267296,0.3762795308470192
0.42200803756713867,0.0009735226631164551,-0.019479691982269287,0.0009674429893493652,-0.010361716151237488,-0.0050242263823747635,-0.005133251193910837,-0.41974318138497246,1.4318398409877993,0.37639295141380485
0.4317951202392578,0.002303004264831543,-0.019571632146835327,-0.0006271004676818848,-0.007566728629171848,-0.003944048658013344,-0.002266890835016966,-0.41955982497913424,1.4318428345920675,0.3764820376531331
0.4420449733734131,-0.00028264522552490234,-0.021053165197372437,-0.0010791420936584473,-0.0074277613312006,-0.0010558059439063072,0.0009935107082128525,-0.4193608807361021,1.4318657610991323,0.3765572194330458
0.4518399238586426,-0.00248032808303833,-0.020914465188980103,-0.002238437533378601,-0.006103903986513615,-0.0017130738124251366,0.0024872778449207544,-0.41914212290322933,1.4318958647676951,0.3766299971078124
0.4617769718170166,-0.0023306608200073242,-0.018558114767074585,-0.0002111196517944336,-0.007051656488329172,-0.00165981100872159,0.004926839843392372,-0.4189179308320116,1.4319289967157351,0.37671125738444006
0.4718799591064453,-0.0016886591911315918,-0.01714479923248291,0.0008524805307388306,-0.006351245101541281,-0.00308886356651783,0.005025909282267094,-0.4186569169257609,1.4319333414570206,0.37679676011888374
0.4820230007171631,0.0004776120185852051,-0.016853898763656616,0.0006585568189620972,-0.006378209218382835,-0.004811662249267101,0.005039651412516832,-0.41838877916256934,1.4319282846045396,0.37688151626815247
0.4920520782470703,0.0042533278465271,-0.01662704348564148,0.0003512054681777954,-0.007512449752539396,-0.0054731909185647964,0.006874836049973965,-0.4181404378524122,1.4319292392556655,0.37698477670014907
0.5021140575408936,0.0030035972595214844,-0.015165150165557861,-0.0012307018041610718,-0.005796092562377453,-0.005662675015628338,0.006067152135074139,-0.4178765333387428,1.431923250445962,0.3770720290879498
0.5120999813079834,0.0019417405128479004,-0.013481438159942627,-0.0007108747959136963,-0.005758009385317564,-0.004782234318554401,0.0052660731598734856,-0.4176203859528565,1.4319042511307143,0.3771464454804981
0.5219368934631348,0.0016753077507019043,-0.011279553174972534,-0.00022542476654052734,-0.002479325281456113,-0.0045295883901417255,0.004673839546740055,-0.4173649616957459,1.431872710698985,0.377193789911194
0.5321099758148193,0.0013312101364135742,-0.010479927062988281,0.0008154511451721191,-0.002872141543775797,-0.0011247373186051846,0.0014804431702941656,-0.4171412684655007,1.4318323691716004,0.3772197073740575
0.5421218872070312,-0.0014751553535461426,-0.012049168348312378,-0.0018164366483688354,0.0007067476399242878,0.000332721509039402,0.0026225661858916283,-0.41695497915894625,1.431835188583434,0.37723569483863517
0.5519499778747559,-0.001910388469696045,-0.009210377931594849,-0.0025676339864730835,0.00047372118569910526,0.000329525675624609,0.0007620819378644228,-0.4167874043895715,1.431849455578581,0.3772365822564074
0.5620160102844238,-0.0002797842025756836,-0.009429693222045898,-0.0031600594520568848,0.0018288539722561836,-0.0022456180304288864,-0.0014935621293261647,-0.4166268102790033,1.431839612197976,0.37722273975112236
0.5721909999847412,0.0004303455352783203,-0.009636163711547852,-0.003948494791984558,0.0013734535314142704,-0.0058374227955937386,-0.004932768642902374,-0.41648546427071365,1.431809121405905,0.37720130160391663
0.5821659564971924,-0.00010532140731811523,-0.008467495441436768,-0.003262460231781006,0.0008630584925413132,-0.010384238325059414,-0.007085614372044802,-0.41637550706924953,1.4317155396352483,0.37717936463856844
0.5922110080718994,-0.0009459257125854492,-0.008286237716674805,-0.0033456087112426758,0.0011584032326936722,-0.015104158781468868,-0.010616432875394821,-0.4163275082951789,1.4315744206771712,0.3771471492349746
0.6021208763122559,-0.0006917715072631836,-0.009209305047988892,-0.0025180578231811523,0.0012670932337641716,-0.017221104353666306,-0.014424966648221016,-0.4163357661253085,1.4314014841193563,0.37712178297244026
0.6122760772705078,-0.0009723901748657227,-0.009692460298538208,-0.0018758177757263184,0.0020713680423796177,-0.01833910122513771,-0.01662340573966503,-0.4163801466813685,1.4312287549331655,0.37708887325519463
0.6222560405731201,-0.0008206963539123535,-0.010099023580551147,-0.0015929341316223145,0.002701371908187866,-0.018299240618944168,-0.015251665376126766,-0.41642429208802356,1.4310147103605084,0.3770272504871215
0.6322751045227051,-0.0010783672332763672,-0.01033085584640503,-0.0020089000463485718,0.00559862470254302,-0.016133025288581848,-0.01836516708135605,-0.4165108584707345,1.4307946715089772,0.37695470225918526
0.6426520347595215,-0.0007913112640380859,-0.011970758438110352,-0.0013092756271362305,0.009119690395891666,-0.015485255979001522,-0.018137147650122643,-0.41658553976103435,1.4305734580187532,0.376834725537572
0.6522109508514404,-0.0004188418388366699,-0.012346327304840088,0.0002736002206802368,0.011015594005584717,-0.01161914598196745,-0.01655842550098896,-0.41664583515812514,1.4303551114027566,0.3766919226044986
0.6623449325561523,-0.00032258033752441406,-0.014080435037612915,-0.0007203072309494019,0.013810848817229271,-0.010020271874964237,-0.017683397978544235,-0.41670666794781636,1.4301513979745453,0.37651754993363307
0.6722779273986816,0.0004259943962097168,-0.015395760536193848,-0.0006674379110336304,0.016949916258454323,-0.008645814843475819,-0.015573374927043915,-0.4167600712161073,1.4299547938642063,0.37631411612091087
0.6823339462280273,0.0004292130470275879,-0.016123265027999878,-0.0006320923566818237,0.01705234870314598,-0.006654657889157534,-0.014216814190149307,-0.4167881431185922,1.429779172503543,0.37610241162353475
0.6923818588256836,-0.0006597638130187988,-0.016807764768600464,2.110004425048828e-05,0.01759217120707035,-0.006152652669698,-0.012287354096770287,-0.4168024771460125,1.4296298156547795,0.3759046994217723
0.702347993850708,-0.001406550407409668,-0.019121259450912476,-0.0009760260581970215,0.016658350825309753,-0.005795832723379135,-0.009671331383287907,-0.41679611602653177,1.42948438352526,0.37570601926123975
0.7123680114746094,0.00023001432418823242,-0.018430083990097046,-0.00202922523021698,0.018169693648815155,-0.006279196590185165,-0.0061791278421878815,-0.4167577545825505,1.4293354546811072,0.3755010165687995
0.7223610877990723,0.001544356346130371,-0.01719406247138977,-0.002614617347717285,0.020943857729434967,-0.006934379227459431,-0.002653794828802347,-0.41667428451217026,1.4291783652195387,0.37528305151100383
0.7324810028076172,0.0020138025283813477,-0.017486244440078735,-0.004324018955230713,0.021658118814229965,-0.005105853080749512,0.0002562412992119789,-0.41654327244706046,1.429035363487767,0.3750565718444297
0.7422809600830078,0.003565967082977295,-0.01634809374809265,-0.004306420683860779,0.02325761318206787,-0.008502980694174767,0.0035308641381561756,-0.4163665577344903,1.4288754035975006,0.374820730643598
0.7522580623626709,0.00507885217666626,-0.014466792345046997,-0.005199357867240906,0.023082111030817032,-0.008389797061681747,0.0054259696044027805,-0.4161614143861096,1.4286949146255057,0.3745774923298742
0.7622699737548828,0.0062642693519592285,-0.014128386974334717,-0.007427990436553955,0.023044828325510025,-0.00704889465123415,0.004922099411487579,-0.4159416614435968,1.4285243323546095,0.37434318685884954
0.772334098815918,0.0083465576171875,-0.012242496013641357,-0.005616962909698486,0.021056246012449265,-0.010587970726191998,0.005569780245423317,-0.4157149005970278,1.4283586429620414,0.3741174677824824
0.7825210094451904,0.013410568237304688,-0.009094208478927612,-0.00722484290599823,0.017456214874982834,-0.012504203245043755,0.00203762948513031,-0.4154925867987145,1.4281599772850306,0.3739164686023241
0.7924230098724365,0.016579866409301758,-0.004889398813247681,-0.008816763758659363,0.01229154784232378,-0.017785251140594482,-0.003980581648647785,-0.4153330999794343,1.4279397432360363,0.3737511813485395
0.802487850189209,0.019750535488128662,-0.005697458982467651,-0.013975381851196289,0.010480698198080063,-0.019700685515999794,-0.017360195517539978,-0.41528236756584586,1.4276914964902896,0.37361111191020463
0.8125991821289062,0.021886467933654785,-0.004496753215789795,-0.016246438026428223,0.01064741238951683,-0.026879768818616867,-0.034309085458517075,-0.41537091817741617,1.4273798155518325,0.3734478630657501
0.8224060535430908,0.022793829441070557,-0.004237532615661621,-0.018948033452033997,0.008667218498885632,-0.03625791147351265,-0.05176541581749916,-0.41563798535775803,1.4269760059297645,0.3732628370671355
0.8326101303100586,0.023291468620300293,-0.006179541349411011,-0.024554505944252014,0.006697544828057289,-0.0438910648226738,-0.07217987626791,-0.41610956292431706,1.4264810391353995,0.37308247501019043
0.842458963394165,0.02105027437210083,-0.011498451232910156,-0.0324053019285202,0.006647428032010794,-0.049223557114601135,-0.09060804545879364,-0.41675322691838707,1.4258749395198327,0.37285880893939627
0.8525509834289551,0.016045808792114258,-0.012469559907913208,-0.036089763045310974,0.012679487466812134,-0.060228537768125534,-0.11005657911300659,-0.41759842426373267,1.4252038891030616,0.3725942011717721
0.862372875213623,0.01656019687652588,-0.011923342943191528,-0.043499529361724854,0.018203383311629295,-0.0735260546207428,-0.1284857541322708,-0.4186036613879791,1.4243720740774075,0.37221828683298014
0.8723769187927246,0.01864677667617798,-0.013920783996582031,-0.05186969041824341,0.022699864581227303,-0.09149999171495438,-0.14560429751873016,-0.41980487846299347,1.4233394998562912,0.3717696440612145
0.8824219703674316,0.018512248992919922,-0.010890603065490723,-0.05454103648662567,0.024108093231916428,-0.10514821112155914,-0.1554645448923111,-0.4211321917559721,1.4220860753042666,0.37124216686216316
0.8925161361694336,0.01602262258529663,-0.01670357584953308,-0.048880741000175476,0.01937831938266754,-0.11634280532598495,-0.16335095465183258,-0.4225531216712397,1.4207224019245117,0.3707257379866553
0.9024848937988281,0.014882385730743408,-0.01738181710243225,-0.04868596792221069,0.01027694996446371,-0.13542680442333221,-0.16349941492080688,-0.4240167269885724,1.4192381061721995,0.3702583834397207
0.9125339984893799,0.01684349775314331,-0.01603865623474121,-0.047358810901641846,-0.010303426533937454,-0.14320190250873566,-0.16704460978507996,-0.425523528355997,1.4176597944711724,0.36995023025223644
0.9225320816040039,0.014099538326263428,-0.019908040761947632,-0.047499701380729675,-0.029345527291297913,-0.15050144493579865,-0.16985583305358887,-0.4270750534539149,1.4160619729768025,0.3698530281153597
0.9324841499328613,0.008851349353790283,-0.01922479271888733,-0.04800516366958618,-0.04393219202756882,-0.1626387983560562,-0.16846778988838196,-0.42867204872785136,1.4144221356188804,0.36992787988161774
0.9425420761108398,0.007499337196350098,-0.012118905782699585,-0.0451248437166214,-0.04990118741989136,-0.1829805076122284,-0.16666147112846375,-0.43025487365285775,1.412628890071545,0.3700739767505029
0.9532990455627441,0.006370484828948975,-0.007042407989501953,-0.04283006489276886,-0.06588734686374664,-0.19661135971546173,-0.16634216904640198,-0.4318219369455125,1.4106524800211988,0.37032937109617936
0.9625270366668701,0.00474703311920166,-0.006740838289260864,-0.04029248654842377,-0.08574820309877396,-0.21802620589733124,-0.16841799020767212,-0.4334393649476915,1.408584689044824,0.3707682576009486
0.9727270603179932,0.004849910736083984,-0.008585631847381592,-0.04151719808578491,-0.1160091683268547,-0.24229292571544647,-0.17243804037570953,-0.43508608242581454,1.4064177451638682,0.37148266001774694
0.9825868606567383,0.01020902395248413,-0.0014660060405731201,-0.038962557911872864,-0.15432849526405334,-0.26890507340431213,-0.18549828231334686,-0.43687733554646424,1.4041378232805783,0.37253998866941296
0.9926900863647461,0.011663496494293213,0.0023399293422698975,-0.03695863485336304,-0.20660048723220825,-0.28667131066322327,-0.20792369544506073,-0.4389088007832894,1.4018520550734976,0.37405652883393115
1.0049760341644287,0.010524332523345947,0.003548175096511841,-0.032188430428504944,-0.252996563911438,-0.3090268075466156,-0.24129655957221985,-0.4412838253959667,1.3995616070237784,0.37605726974115433
1.0127720832824707,0.01284247636795044,0.010372132062911987,-0.02947753667831421,-0.2975160777568817,-0.327748566865921,-0.28484246134757996,-0.44433679861671027,1.397447047786838,0.378561265256216
1.0227670669555664,0.018442630767822266,0.024096637964248657,-0.031101420521736145,-0.33461567759513855,-0.3572582006454468,-0.3436906039714813,-0.4479828123817086,1.395257730729667,0.38140630633438294
1.0329928398132324,0.029679059982299805,0.041041404008865356,-0.03133927285671234,-0.37390580773353577,-0.38873037695884705,-0.41211891174316406,-0.4523128239046335,1.3928627243045946,0.38452032235484074
1.0428991317749023,0.04015457630157471,0.05335813760757446,-0.02661295235157013,-0.4303629994392395,-0.4168560206890106,-0.48913440108299255,-0.45747347831213925,1.390355678489491,0.3880276073522478
1.0543689727783203,0.04219639301300049,0.05203014612197876,-0.021313607692718506,-0.507200300693512,-0.438569039106369,-0.5570335388183594,-0.46350363555570767,1.387896040436174,0.3921185271880762
1.0627429485321045,0.04475301504135132,0.05673164129257202,-0.01813828945159912,-0.5968968272209167,-0.4716147482395172,-0.6297604441642761,-0.470199874176591,1.3855278463535798,0.39708937362715335
1.0728321075439453,0.05610150098800659,0.06344678997993469,-0.01954244077205658,-0.6485562920570374,-0.4738970994949341,-0.7271082997322083,-0.47810495840412404,1.3832796372937148,0.40251914904984487
1.0828039646148682,0.041500866413116455,0.06305074691772461,-0.028041303157806396,-0.710532546043396,-0.49729427695274353,-0.7937648892402649,-0.4868718900649506,1.3811403602067918,0.40845157899463846
1.0926909446716309,0.05467629432678223,0.06199759244918823,-0.022289514541625977,-0.7728148698806763,-0.5321930646896362,-0.8510569334030151,-0.4963400021351833,1.3790519681493376,0.4149786142209993
1.104104995727539,0.05254000425338745,0.05907931923866272,-0.016852185130119324,-0.7916848659515381,-0.5184969305992126,-0.9260472655296326,-0.5065762732483896,1.3770998106455137,0.4217819311047134
1.1128368377685547,0.03761768341064453,0.06440138816833496,-0.027418971061706543,-0.807677149772644,-0.5402568578720093,-0.9733114242553711,-0.5174322240605441,1.3751924367820147,0.4286475174126196
1.1227610111236572,0.04829031229019165,0.06456595659255981,-0.028620675206184387,-0.806384265422821,-0.5570197105407715,-1.01054048538208,-0.5287443992161547,1.3730980820017322,0.43557971320819744
1.1330008506774902,0.0556221604347229,0.06160849332809448,-0.028859660029411316,-0.7755051851272583,-0.5576282739639282,-1.0654141902923584,-0.5404983018576384,1.3708756633904862,0.4421816615831354
1.1429381370544434,0.050702035427093506,0.06251537799835205,-0.038037240505218506,-0.6533793210983276,-0.6084920763969421,-1.119327187538147,-0.5526181924255464,1.3680117958464748,0.4478942324713482
1.1551508903503418,0.07015436887741089,0.06722623109817505,-0.034149929881095886,-0.5680258274078369,-0.6340184807777405,-1.1691982746124268,-0.5651308957974752,1.3640197778057714,0.452170025596084
1.1629948616027832,0.08221226930618286,0.07067519426345825,-0.03444136679172516,-0.5024319291114807,-0.6474012136459351,-1.2163026332855225,-0.577884248588934,1.35938812545383,0.4553990955084249
1.173105001449585,0.08304727077484131,0.05658257007598877,-0.04739862680435181,-0.44896015524864197,-0.6632656455039978,-1.260860562324524,-0.5909759351538914,1.3541198184264545,0.4577597846753895
1.1829991340637207,0.09364622831344604,0.052379071712493896,-0.053847432136535645,-0.41752949357032776,-0.699138343334198,-1.3144245147705078,-0.6045157669893859,1.3482533913807626,0.4594727322760433
1.193009853363037,0.10316938161849976,0.0351945161819458,-0.0588536262512207,-0.37859007716178894,-0.7208167314529419,-1.3294100761413574,-0.6183655436705876,1.3418183777175035,0.4606915083909245
1.20603609085083,0.10409951210021973,0.01953989267349243,-0.06249627470970154,-0.3187878727912903,-0.7107596397399902,-1.36329984664917,-0.632291338418763,1.3349462508672634,0.46112278768458237
1.2132620811462402,0.10012704133987427,0.007935762405395508,-0.06639489531517029,-0.24501271545886993,-0.7453858256340027,-1.3540229797363281,-0.6461991941694759,1.3272226690554505,0.46042598194686163
1.2229371070861816,0.11114686727523804,0.0033385157585144043,-0.06301289796829224,-0.15357953310012817,-0.7378986477851868,-1.3572235107421875,-0.6598064446449825,1.3186902485338285,0.45869320116667917
1.2329230308532715,0.11015176773071289,-0.018623709678649902,-0.07169459760189056,-0.09116674959659576,-0.7080957293510437,-1.3470789194107056,-0.6732080074903652,1.3096207025961886,0.4557429401249561
1.242784023284912,0.09843343496322632,-0.033815622329711914,-0.07849113643169403,-0.08652292937040329,-0.6905109882354736,-1.3491374254226685,-0.6864644163343021,1.3004284343658021,0.4522364870949572
1.2540509700775146,0.09841865301132202,-0.052957117557525635,-0.07881143689155579,-0.03988272324204445,-0.6899668574333191,-1.301194190979004,-0.6995041379253236,1.2911078552792619,0.44840906579145784
1.2628259658813477,0.10227876901626587,-0.04291802644729614,-0.0834423303604126,0.023087920621037483,-0.6715283989906311,-1.3060979843139648,-0.712015742561449,1.2813568664464632,0.4437867897044313
1.2730510234832764,0.09924137592315674,-0.02044677734375,-0.09074369072914124,0.043615564703941345,-0.6579364538192749,-1.3069493770599365,-0.7243836698170273,1.271057320021035,0.4382748432850968
1.2829129695892334,0.11214905977249146,-0.020437538623809814,-0.09087982773780823,0.0706634446978569,-0.6323387622833252,-1.3617607355117798,-0.7369722088053788,1.2605659074014957,0.4321864301990138
1.293004035949707,0.11773276329040527,-0.03492015600204468,-0.09893980622291565,0.23917922377586365,-0.63191157579422,-1.3241163492202759,-0.7493255610418774,1.2491421864011525,0.42466562248388195
1.303999900817871,0.11802637577056885,-0.006991565227508545,-0.11370009183883667,0.5625277757644653,-0.6454910039901733,-1.2883026599884033,-0.7603798698120097,1.2352228531247915,0.41368620930010286
1.312943935394287,0.12460631132125854,0.03166240453720093,-0.11189506947994232,0.7730173468589783,-0.690877377986908,-1.3037889003753662,-0.7702773548041587,1.2182107806745879,0.3987909016517024
1.3229398727416992,0.1384979486465454,0.01998215913772583,-0.10278528928756714,0.8403633832931519,-0.689412534236908,-1.3464280366897583,-0.7797924487843314,1.1991942312626866,0.3815645062541138
1.3330049514770508,0.13499408960342407,0.013032853603363037,-0.09510499238967896,0.8306164741516113,-0.6809458136558533,-1.3821096420288086,-0.7893317744355769,1.1794761790391373,0.3633428574240935
1.3429288864135742,0.12141913175582886,0.0022463202476501465,-0.0835224986076355,0.6942985653877258,-0.7165971994400024,-1.4419950246810913,-0.7993242476233564,1.1596659716130755,0.34531674965896836
1.3538529872894287,0.1337345838546753,-0.022401809692382812,-0.07675912976264954,0.5170862674713135,-0.7211584448814392,-1.486095905303955,-0.8102487199360774,1.140472269133024,0.3286993011677818
1.3630189895629883,0.1430898904800415,-0.009577572345733643,-0.08385154604911804,0.4204779267311096,-0.7520914673805237,-1.4941306114196777,-0.8218200819680466,1.1219323445719542,0.31331651941565564
1.3730101585388184,0.1500982642173767,0.006777644157409668,-0.10684210062026978,0.4180445969104767,-0.7945140600204468,-1.478934645652771,-0.8332786200114545,1.1028984569084632,0.29804966565921814
1.3829541206359863,0.15278983116149902,0.015766263008117676,-0.11965948343276978,0.4458570182323456,-0.8110405206680298,-1.4702043533325195,-0.8444186729857976,1.0830299770087979,0.2821282311130816
1.3931889533996582,0.14034581184387207,0.014002740383148193,-0.12972885370254517,0.5075227618217468,-0.8454613089561462,-1.4661182165145874,-0.8550872928237024,1.0620302126276817,0.2652228418359066
1.4046070575714111,0.13823246955871582,0.014525949954986572,-0.1199445128440857,0.652487576007843,-0.9007071256637573,-1.4425004720687866,-0.8648327465588825,1.039044377833302,0.24640978379147352
1.4131999015808105,0.13758331537246704,0.026971876621246338,-0.11057281494140625,0.76971435546875,-0.9583728313446045,-1.4551310539245605,-0.8735168331249449,1.0136370692006706,0.22532550059366657
1.4234209060668945,0.133081316947937,0.04622077941894531,-0.09353983402252197,0.8561801314353943,-1.006235122680664,-1.459288239479065,-0.8813836870341427,0.9860101937955866,0.20220282572687132
1.4332900047302246,0.13271111249923706,0.02838677167892456,-0.08429256081581116,0.8863273859024048,-1.0506690740585327,-1.48110830783844,-0.888582088595227,0.9567405787278196,0.17767192375481694
1.443312168121338,0.1294788122177124,0.03140634298324585,-0.07577317953109741,0.8755531311035156,-1.0963765382766724,-1.5051041841506958,-0.8954872275878681,0.9262062103918397,0.15226924793142427
1.4560439586639404,0.13057100772857666,0.0417293906211853,-0.060130417346954346,0.8402542471885681,-1.1323657035827637,-1.5214614868164062,-0.9021657558549154,0.8947911883322761,0.1264131831188159
1.4632811546325684,0.1280440390110016,0.030428409576416016,-0.04556584358215332,0.8117882013320923,-1.1487431526184082,-1.5460419654846191,-0.9087063374401827,0.8627636178330783,0.10020401143712555
1.4734611511230469,0.11582794785499573,0.0184476375579834,-0.03187713027000427,0.7582767605781555,-1.1682054996490479,-1.5739619731903076,-0.9152159924975798,0.8301949078903408,0.07369409581576213
1.483407974243164,0.10940548777580261,0.02203887701034546,-0.02083224058151245,0.712003767490387,-1.196385383605957,-1.5941647291183472,-0.9216670359190817,0.7970764184674368,0.046928321800896004
1.4936189651489258,0.10747095942497253,0.03509896993637085,-0.014601856470108032,0.6914178133010864,-1.1920764446258545,-1.6003382205963135,-0.9279554314911812,0.7634874459153326,0.01987128112708721
1.504746913909912,0.10087689757347107,0.06742572784423828,-0.016396164894104004,0.7193545699119568,-1.1929501295089722,-1.611948847770691,-0.9337414978185349,0.7293280927303692,-0.007876650350742778
1.5135400295257568,0.09802749752998352,0.10172897577285767,-0.012405157089233398,0.7894785404205322,-1.2063621282577515,-1.601341724395752,-0.9385258411853546,0.6940702869754991,-0.03673434226328582
1.5234780311584473,0.09910053014755249,0.10292792320251465,0.0007474422454833984,0.8738021850585938,-1.214595079421997,-1.6107875108718872,-0.9420826676888301,0.657623547732276,-0.06681650016500963
1.5335159301757812,0.09045520424842834,0.10589921474456787,0.00444832444190979,1.0660309791564941,-1.2012633085250854,-1.6159204244613647,-0.9439341840417066,0.6197350735298636,-0.09872721798436102
1.5435891151428223,0.07978102564811707,0.11997419595718384,-0.001117616891860962,1.1412582397460938,-1.2417219877243042,-1.6358877420425415,-0.9439753855200121,0.5802963479570779,-0.13235531796110303
1.5548560619354248,0.08287820219993591,0.13497912883758545,0.028162717819213867,1.143942952156067,-1.2503801584243774,-1.6625357866287231,-0.9430300541095972,0.5401052434897845,-0.16654538742632116
1.5637640953063965,0.08219659328460693,0.10547006130218506,0.029281556606292725,1.170046329498291,-1.2332265377044678,-1.6712843179702759,-0.9413151453114575,0.4998118167506308,-0.20097516437298824
1.5745701789855957,0.07257503271102905,0.09030717611312866,0.018241524696350098,1.2357370853424072,-1.215564250946045,-1.6608972549438477,-0.9383590153231123,0.45969914492533176,-0.235470742676634
1.5834009647369385,0.06648962199687958,0.1082615852355957,0.015792906284332275,1.3213975429534912,-1.2104672193527222,-1.6606030464172363,-0.9338641414076784,0.4196774883593375,-0.27010070316217116
1.5934500694274902,0.06958052515983582,0.1237749457359314,0.02154684066772461,1.426917552947998,-1.2046706676483154,-1.6390730142593384,-0.9276382532260171,0.37998513611748147,-0.3045033118026391
1.60490083694458,0.07840299606323242,0.1394360065460205,0.023304998874664307,1.538280725479126,-1.1906769275665283,-1.6358495950698853,-0.9195060026142461,0.34076763426018486,-0.33864652016700525
1.6138989925384521,0.08170193433761597,0.13456767797470093,0.020162463188171387,1.6628429889678955,-1.1743121147155762,-1.625939965248108,-0.9094546685240898,0.3023075673551995,-0.37229006197938364
1.625424861907959,0.09294530749320984,0.11546987295150757,0.023354172706604004,1.7586945295333862,-1.1617285013198853,-1.6608175039291382,-0.8976091139683556,0.2644930259528773,-0.40555743585541226
1.6339478492736816,0.09338690340518951,0.10080856084823608,0.020886898040771484,1.8572094440460205,-1.1823893785476685,-1.6839792728424072,-0.8841117295521911,0.22727481142657766,-0.4383457832676222
1.6453871726989746,0.10222955048084259,0.08820116519927979,0.014340221881866455,1.931949257850647,-1.2045845985412598,-1.7080222368240356,-0.8690678475867905,0.19061183431401357,-0.47051547687821554
1.6543388366699219,0.10627055168151855,0.07833802700042725,0.0011798739433288574,1.981553316116333,-1.2499102354049683,-1.709847092628479,-0.852688910575213,0.15482554078370028,-0.5015264372626609
1.6640310287475586,0.11894305795431137,0.08589339256286621,-0.00968843698501587,2.0268683433532715,-1.3162930011749268,-1.7062137126922607,-0.8351883458618149,0.11977891560205499,-0.5312273035001972
1.6737020015716553,0.13106903433799744,0.09739291667938232,-0.017361700534820557,2.0716452598571777,-1.3674144744873047,-1.649040937423706,-0.8164702017098804,0.08596491283265727,-0.5589407042250508
1.6837449073791504,0.14250193536281586,0.09409976005554199,-0.027653217315673828,2.114470958709717,-1.3870759010314941,-1.5846552848815918,-0.7966860951248078,0.05376375930806592,-0.5844071339672027
1.6937308311462402,0.1408015340566635,0.08279603719711304,-0.031082510948181152,2.1504454612731934,-1.3835591077804565,-1.5092177391052246,-0.7759677291395638,0.023506411689735603,-0.6075246004117403
1.7058820724487305,0.14211814105510712,0.07258135080337524,-0.0293235182762146,2.199606418609619,-1.4156959056854248,-1.4613075256347656,-0.7543135522274393,-0.004875627408563457,-0.6283167678916555
1.7138018608093262,0.15525613725185394,0.04815268516540527,-0.005479276180267334,2.2557077407836914,-1.4601231813430786,-1.4352320432662964,-0.7317479021823898,-0.03226334037990845,-0.6474833681783486
1.7237720489501953,0.15815049409866333,0.025878071784973145,0.02575063705444336,2.2901127338409424,-1.507760763168335,-1.4114834070205688,-0.708300537902891,-0.058772012143257175,-0.6650523092723604
1.7337560653686523,0.16817829012870789,0.0495152473449707,0.028734564781188965,2.2563283443450928,-1.568389654159546,-1.3959342241287231,-0.6845490990274664,-0.0844344358245307,-0.6811224061388453
1.743919849395752,0.18713681399822235,0.08757960796356201,0.03658103942871094,2.192033290863037,-1.5987472534179688,-1.364533543586731,-0.6610464508095304,-0.10961632210656046,-0.695985786219214
1.754662036895752,0.19460207223892212,0.06489700078964233,0.05061924457550049,2.117111921310425,-1.6024045944213867,-1.3118175268173218,-0.6379491317388163,-0.13371113655510516,-0.7093742365003658
1.7638390064239502,0.1882641762495041,0.040708959102630615,0.06398844718933105,2.034611940383911,-1.6486581563949585,-1.3010590076446533,-0.6155333811366103,-0.15714777172825928,-0.7215954901728138
1.7737741470336914,0.18926820158958435,0.04303741455078125,0.10924959182739258,1.9708136320114136,-1.6791014671325684,-1.2783063650131226,-0.5935819235213915,-0.18031799290534595,-0.7329941732688867
1.7837910652160645,0.18884019553661346,0.04182291030883789,0.13656222820281982,1.9327263832092285,-1.6433550119400024,-1.2232118844985962,-0.5720270345330597,-0.20262175061277446,-0.7432931887945982
1.793856143951416,0.1797887533903122,0.07391738891601562,0.1284688115119934,1.9075204133987427,-1.6777503490447998,-1.202698826789856,-0.5507146122883892,-0.22408002731498797,-0.752467195278288
1.8046998977661133,0.1863979548215866,0.09793424606323242,0.1370311975479126,1.9226961135864258,-1.7378557920455933,-1.1738489866256714,-0.529259980708504,-0.24548292810647773,-0.7607660380587956
1.8139629364013672,0.20001226663589478,0.09463685750961304,0.1334383487701416,1.8805830478668213,-1.7458841800689697,-1.1626338958740234,-0.5078454565055492,-0.2666609441233347,-0.7682559273288296
1.8238790035247803,0.1743888258934021,0.10973495244979858,0.12464696168899536,1.8006975650787354,-1.7190216779708862,-1.1205806732177734,-0.48700141014971593,-0.2873038097512163,-0.7750556899555011
1.8338840007781982,0.14806050062179565,0.1012735664844513,0.1316990852355957,1.7122867107391357,-1.6417040824890137,-1.0796507596969604,-0.46694880588490995,-0.3068834620371242,-0.7810725592151052
1.8438959121704102,0.12974512577056885,0.07878527045249939,0.13441503047943115,1.656303882598877,-1.5864702463150024,-1.0505207777023315,-0.4476429391026852,-0.32547544832460357,-0.7865338438607468
1.854583978652954,0.10924822092056274,0.06860363483428955,0.15236037969589233,1.604845404624939,-1.5098413228988647,-1.021174430847168,-0.4287739910545021,-0.3430218885178235,-0.7913933223095728
1.8639731407165527,0.09517556428909302,0.06764709949493408,0.15980756282806396,1.589339017868042,-1.4917325973510742,-1.023281216621399,-0.4102898312931654,-0.35987289589293775,-0.7959196531945087
1.8738970756530762,0.08891645073890686,0.06956419348716736,0.18565219640731812,1.6111843585968018,-1.4785739183425903,-1.00725519657135,-0.3916670262101969,-0.37634730228562024,-0.7999708961107445
1.8839600086212158,0.08062830567359924,0.0667063295841217,0.1882268190383911,1.6246488094329834,-1.4357571601867676,-1.0185073614120483,-0.372857621657286,-0.3922508368273472,-0.8035483169689127
1.8939759731292725,0.0541863739490509,0.08983266353607178,0.18771964311599731,1.6633392572402954,-1.4223436117172241,-1.0157831907272339,-0.35374798392838325,-0.40768526778142733,-0.806748703648437
1.9047729969024658,0.04690253734588623,0.08728626370429993,0.18750238418579102,1.7103101015090942,-1.3922313451766968,-0.9984512329101562,-0.33421474310183086,-0.4226452540878029,-0.8092769541783603
1.9139189720153809,0.04674568772315979,0.0773727297782898,0.16476374864578247,1.7717689275741577,-1.353604793548584,-0.9860137701034546,-0.31421643501560215,-0.43696750547147395,-0.8111546687565004
1.923996925354004,0.033578842878341675,0.08643731474876404,0.1428159475326538,1.8044766187667847,-1.3186932802200317,-0.9618315696716309,-0.29387298724595,-0.45070458424209275,-0.8122941376647439
1.9340100288391113,0.03816196322441101,0.08959022164344788,0.11837190389633179,1.842873454093933,-1.2544538974761963,-0.9378575086593628,-0.2732962841780386,-0.4637917528511007,-0.8127916414797037
1.9441618919372559,0.032488077878952026,0.07041780650615692,0.08989953994750977,1.8602299690246582,-1.1879652738571167,-0.9174387454986572,-0.2525557527947348,-0.4759360557216852,-0.812629438896022
1.9559988975524902,0.028733372688293457,0.09252987802028656,0.05586618185043335,1.9094136953353882,-1.186211347579956,-0.9286532998085022,-0.23158668338447785,-0.4876832440919333,-0.8120860773841005
1.9641408920288086,0.04544916749000549,0.10641968250274658,0.050246357917785645,1.9985512495040894,-1.2076146602630615,-0.903815746307373,-0.21001641535446636,-0.4994008030184738,-0.8108798763524377
1.9740829467773438,0.05198967456817627,0.08856157958507538,0.045237720012664795,2.0999748706817627,-1.19224214553833,-0.8978414535522461,-0.18770038560382613,-0.5110135935429198,-0.8087767020945529
1.9840569496154785,0.03636237978935242,0.09075747430324554,0.04116058349609375,2.1883738040924072,-1.1428998708724976,-0.8943008184432983,-0.16456191504993256,-0.5221300313615979,-0.8060321291553885
1.9940571784973145,0.024940431118011475,0.09453140199184418,0.03814011812210083,2.253124237060547,-1.1982603073120117,-0.8525294065475464,-0.14098153902196492,-0.5332641059936302,-0.8022660981630867
2.004281997680664,0.058808743953704834,0.07613842934370041,0.051869869232177734,2.316065788269043,-1.194693684577942,-0.8380494713783264,-0.11698405679041711,-0.5446811623663507,-0.7977456075179079
2.0140018463134766,0.05967211723327637,0.05055803805589676,0.043514788150787354,2.3465631008148193,-1.2184996604919434,-0.8002616167068481,-0.09279408818152571,-0.5561812448865536,-0.7925003855351056
2.024034023284912,0.05657458305358887,0.05686376988887787,0.03582608699798584,2.359320640563965,-1.2596956491470337,-0.7646072506904602,-0.06866320375279453,-0.5681240679261742,-0.7865569552729005
2.034003973007202,0.07465183734893799,0.043292541056871414,0.04606753587722778,2.3044841289520264,-1.2710790634155273,-0.72246915102005,-0.04494892140698035,-0.5804448436411656,-0.7800819692754708
2.044188976287842,0.06927365064620972,0.045450691133737564,0.04124730825424194,2.1757700443267822,-1.2798744440078735,-0.6813202500343323,-0.02236124940107277,-0.5930034590838281,-0.7735081351802767
2.0540080070495605,0.06909769773483276,0.04021571949124336,0.0443078875541687,2.0314881801605225,-1.2827242612838745,-0.6467976570129395,-0.0012119051645113252,-0.6057426276436156,-0.7670978177881889
2.0645220279693604,0.07104051113128662,0.014986824244260788,0.049017131328582764,1.8845363855361938,-1.273634433746338,-0.61417555809021,0.01845160530849549,-0.6186031269467706,-0.760987269301233
2.0742268562316895,0.06656074523925781,0.012452147901058197,0.046643733978271484,1.7151342630386353,-1.2724477052688599,-0.5988490581512451,0.03661498296525853,-0.631490063220573,-0.7553811291208369
2.0840370655059814,0.06943905353546143,0.025028187781572342,0.04547005891799927,1.5825482606887817,-1.2638413906097412,-0.5903354287147522,0.05338910963636181,-0.6444217480782533,-0.750350997968488
2.0942201614379883,0.07465261220932007,0.02494165301322937,0.047999024391174316,1.5146217346191406,-1.2308011054992676,-0.5824700593948364,0.06924746324886433,-0.6572054530532507,-0.7456537954946745
2.104689121246338,0.06785327196121216,0.026754729449748993,0.04555237293243408,1.492979884147644,-1.1904913187026978,-0.5770864486694336,0.08468672933596383,-0.6696823862655888,-0.740945410636215
2.1141719818115234,0.0680692195892334,0.04561962932348251,0.031174898147583008,1.456520438194275,-1.1704249382019043,-0.5839358568191528,0.09984731699450677,-0.6819272705522713,-0.7362033960236316
2.124290943145752,0.07961207628250122,0.06320993602275848,0.019663989543914795,1.438435673713684,-1.1430959701538086,-0.5950695276260376,0.11476170629137775,-0.6940248547610368,-0.7315286383565411
2.1343021392822266,0.08360421657562256,0.07111890614032745,0.01485908031463623,1.4441509246826172,-1.115890622138977,-0.5960721969604492,0.12963289268598838,-0.705886925798245,-0.7267484764607122
2.1443099975585938,0.08201038837432861,0.08130007982254028,-0.007512867450714111,1.4603314399719238,-1.1072720289230347,-0.599610447883606,0.14454702532127894,-0.7177023145250251,-0.7217405061458635
2.1548709869384766,0.08349257707595825,0.09379220008850098,-0.01801222562789917,1.5049312114715576,-1.0942639112472534,-0.5856466889381409,0.15959328989817936,-0.7295269342325923,-0.7163286887755047
2.164324998855591,0.0882064700126648,0.10540227591991425,-0.015006780624389648,1.545790195465088,-1.0933043956756592,-0.5756863951683044,0.17481856923854844,-0.7414720074735857,-0.7102986072398029
2.1742820739746094,0.09322428703308105,0.10861432552337646,-0.008562684059143066,1.5472609996795654,-1.0813649892807007,-0.5657373666763306,0.19007910228417657,-0.7535148572676467,-0.7038428853715958
2.1843509674072266,0.09487152099609375,0.1045890599489212,-0.004052162170410156,1.525615930557251,-1.0772111415863037,-0.553898274898529,0.20508369017159447,-0.7656377172629487,-0.697203134124542
2.1942830085754395,0.09792381525039673,0.10572917759418488,0.0038837790489196777,1.4881603717803955,-1.0758079290390015,-0.542612612247467,0.21972120087312383,-0.7778141554563418,-0.6904559039620983
2.2052321434020996,0.10195779800415039,0.10189659893512726,0.008261680603027344,1.441699504852295,-1.0871853828430176,-0.5318840742111206,0.23389080690120945,-0.7901505457219969,-0.6837304633081837
2.2142300605773926,0.10534012317657471,0.09912745654582977,0.0183182954788208,1.405405044555664,-1.0802984237670898,-0.5257260799407959,0.247647112227036,-0.8025830107459788,-0.6770499236607191
2.2241878509521484,0.10431569814682007,0.10989788174629211,0.021525681018829346,1.370914101600647,-1.0889524221420288,-0.5208075642585754,0.2610143670540578,-0.8151059517694438,-0.6704138249704984
2.2342281341552734,0.1071818470954895,0.12324821949005127,0.017102301120758057,1.3536831140518188,-1.1041017770767212,-0.5174424052238464,0.27408201280140504,-0.8278492288906815,-0.6637169228292413
2.2442500591278076,0.10464310646057129,0.11490753293037415,0.019714534282684326,1.3222936391830444,-1.1103476285934448,-0.5214390754699707,0.28695060956213625,-0.8407954650568142,-0.657028603638676
2.254441022872925,0.09483230113983154,0.10644584894180298,0.02326512336730957,1.3173468112945557,-1.1116986274719238,-0.5275928378105164,0.29961386412402863,-0.8538425531322509,-0.6503257482044145
2.2642831802368164,0.09252935647964478,0.10068178176879883,0.019598662853240967,1.2823050022125244,-1.109833002090454,-0.5191617608070374,0.31208294725684116,-0.8670099511582604,-0.6435753077704862
2.2744200229644775,0.09259897470474243,0.09696972370147705,0.026569128036499023,1.260282039642334,-1.092578649520874,-0.4930074214935303,0.3241594245111704,-0.8801541585075757,-0.6367131661672834
2.284230947494507,0.08880239725112915,0.08327481150627136,0.02455580234527588,1.224604606628418,-1.0680487155914307,-0.48540017008781433,0.33581248045419126,-0.8931945789248691,-0.6298230078416654
2.2943129539489746,0.0829155445098877,0.06851857900619507,0.020493626594543457,1.1992909908294678,-1.0493693351745605,-0.47084999084472656,0.34708226770473727,-0.9061071072309709,-0.622928379939568
2.3043298721313477,0.09044432640075684,0.05647966265678406,0.0236281156539917,1.1882638931274414,-1.0429327487945557,-0.45915719866752625,0.35807370060219706,-0.9190027206307817,-0.615868356718005
2.3142809867858887,0.09219008684158325,0.04684406518936157,0.03490406274795532,1.1583632230758667,-1.0383710861206055,-0.44048020243644714,0.36874243274895036,-0.9319489178670932,-0.6087486167754305
2.324367046356201,0.08741414546966553,0.03325158357620239,0.05055797100067139,1.0993647575378418,-1.0431413650512695,-0.43215376138687134,0.37895733772443824,-0.9449054779466061,-0.6017005913124386
2.3343989849090576,0.0843692421913147,0.023501217365264893,0.0608176589012146,1.0302841663360596,-1.036244511604309,-0.40580683946609497,0.3885345358431441,-0.9578241801250389,-0.5950392092423304
2.3446121215820312,0.0791018009185791,0.015988409519195557,0.07166695594787598,0.990121603012085,-1.0312823057174683,-0.38212132453918457,0.39754769648452243,-0.9706515983042158,-0.5884607659873173
2.3546359539031982,0.07065558433532715,0.01898309588432312,0.07480871677398682,0.9337778687477112,-1.0317041873931885,-0.36366403102874756,0.4060405211176868,-0.9834799900220712,-0.5820478201878755
2.364427089691162,0.0646291971206665,0.007938534021377563,0.09231600165367126,0.8506684899330139,-1.0332863330841064,-0.33389362692832947,0.4138631412611023,-0.9962079292335791,-0.5759962598533762
2.3745110034942627,0.06647330522537231,-0.0024008750915527344,0.09940111637115479,0.7661980986595154,-1.0304718017578125,-0.3132610619068146,0.42094714830583574,-1.008752218609503,-0.5704840518719632
2.384397029876709,0.06372940540313721,-0.0025178194046020508,0.10144543647766113,0.6897302865982056,-1.0238866806030273,-0.277629554271698,0.42729806400426534,-1.0210836078537104,-0.5654225950644216
2.39431095123291,0.05856812000274658,0.0004121363162994385,0.09228044748306274,0.6277065873146057,-1.0117380619049072,-0.24796351790428162,0.4329390741528939,-1.0331457516268008,-0.5607644272974884
2.4046549797058105,0.05719864368438721,0.005366802215576172,0.0866881012916565,0.5815427303314209,-0.9992331862449646,-0.22221960127353668,0.43801670350908944,-1.0450040531264904,-0.5563766268119471
2.414473056793213,0.053238868713378906,0.006663113832473755,0.08122789859771729,0.554847240447998,-0.9929431080818176,-0.1995459794998169,0.4426714842125533,-1.0567289266517272,-0.5521082179657867
2.4245290756225586,0.052465736865997314,0.008751839399337769,0.07153594493865967,0.5463622808456421,-0.9924266934394836,-0.18438635766506195,0.44701389703126626,-1.068446640851438,-0.5478435767147293
2.4345030784606934,0.05065268278121948,0.012211829423904419,0.06744229793548584,0.5496997833251953,-0.9784951210021973,-0.17080184817314148,0.451176580464864,-1.080156877945179,-0.5434762284621221
2.444517135620117,0.04614788293838501,0.014096587896347046,0.06465098261833191,0.5660614967346191,-0.9746451377868652,-0.17107956111431122,0.455292663552642,-1.091894608067577,-0.5388775971029569
2.455214023590088,0.04511880874633789,0.01533934473991394,0.05765366554260254,0.5956702828407288,-0.9755138754844666,-0.17193123698234558,0.4594499123344715,-1.10379206484437,-0.5340018006662948
2.4646270275115967,0.04742830991744995,0.019608348608016968,0.050895243883132935,0.6369333863258362,-0.9742796421051025,-0.17206977307796478,0.46372365616273536,-1.1159024806293243,-0.5286870027660597
2.4746718406677246,0.04272174835205078,0.02286529541015625,0.04038935899734497,0.654059112071991,-0.975666880607605,-0.1810329109430313,0.46812075642612005,-1.1281928470629918,-0.5230177894883449
2.4846138954162598,0.03998255729675293,0.020637065172195435,0.03922829031944275,0.6482221484184265,-0.9758087992668152,-0.1870902180671692,0.47253661634597915,-1.1405579388346123,-0.5172748067328186
2.49466609954834,0.0452498197555542,0.018154174089431763,0.040275633335113525,0.644903302192688,-0.9714792966842651,-0.19563338160514832,0.4769332921135546,-1.152909286480573,-0.5115352576480394
2.5048840045928955,0.05112248659133911,0.027314960956573486,0.028144121170043945,0.6330478191375732,-0.9687947630882263,-0.19420143961906433,0.48128979823102647,-1.1652623637841062,-0.5057986433328556
2.514525890350342,0.045649588108062744,0.042354315519332886,0.012087613344192505,0.6138235330581665,-0.9551567435264587,-0.19756926596164703,0.48552276755597473,-1.1774986689659939,-0.5001539719924306
2.5246009826660156,0.031762123107910156,0.04643169045448303,0.007936745882034302,0.5855709910392761,-0.9354122281074524,-0.20416384935379028,0.4896543471664174,-1.1894949517280018,-0.4947308802201791
2.5346009731292725,0.02350008487701416,0.04298168420791626,0.008509814739227295,0.5546091198921204,-0.9119731783866882,-0.2076624482870102,0.4936509619011327,-1.201180922130562,-0.48955408530080385
2.5446481704711914,0.017646312713623047,0.040888965129852295,0.00807616114616394,0.5132096409797668,-0.900240421295166,-0.214052215218544,0.4975163690561321,-1.2125320288359098,-0.48472444851649904
2.554908037185669,0.018966734409332275,0.04284393787384033,0.010810106992721558,0.4770250618457794,-0.8929601311683655,-0.22067442536354065,0.5012729188179185,-1.2236099642091223,-0.48030182700569096
2.564535140991211,0.019519329071044922,0.04713901877403259,0.01536858081817627,0.45464828610420227,-0.8943403363227844,-0.2253720909357071,0.5049389258382296,-1.2345432135811516,-0.4761492716252969
2.5746779441833496,0.01668781042098999,0.05069264769554138,0.01621413230895996,0.43528738617897034,-0.892132043838501,-0.23372164368629456,0.5085495664505825,-1.245398675556991,-0.4721849982267396
2.5845580101013184,0.01555854082107544,0.05148613452911377,0.017296940088272095,0.42371082305908203,-0.8855390548706055,-0.24041388928890228,0.5121520435280497,-1.2561529476378146,-0.46836972155185785
2.5946221351623535,0.019140958786010742,0.052172690629959106,0.009819179773330688,0.42243465781211853,-0.879084587097168,-0.24780283868312836,0.5157616143553679,-1.2668346633561045,-0.46459716126344636
2.604599952697754,0.019492924213409424,0.047135740518569946,0.003985732793807983,0.42069706320762634,-0.8742197155952454,-0.26490476727485657,0.5194471968605412,-1.277474682976586,-0.4608224899960138
2.6146950721740723,0.017566204071044922,0.0376836359500885,0.006434798240661621,0.41684508323669434,-0.8785210251808167,-0.28523799777030945,0.5232752049350654,-1.2881010590109825,-0.45709757935384443
2.624682903289795,0.017242133617401123,0.031863272190093994,0.014096319675445557,0.42155545949935913,-0.8738124966621399,-0.29787611961364746,0.5272355415818485,-1.2987230056527754,-0.45338138192984295
2.634666919708252,0.018932223320007324,0.030362427234649658,0.01956835389137268,0.4254940152168274,-0.8708193898200989,-0.29489442706108093,0.5312065465262191,-1.3094203491220948,-0.4495242217745071
2.6447510719299316,0.020542442798614502,0.03149294853210449,0.021533086895942688,0.3992452323436737,-0.8466328382492065,-0.2987770736217499,0.5351414198421524,-1.3199341960417608,-0.4457476598560067
2.6550300121307373,0.013937890529632568,0.020776987075805664,0.02270275354385376,0.37428128719329834,-0.8155843615531921,-0.2969663739204407,0.538972449145457,-1.3300609344587657,-0.4422268032066694
2.664763927459717,0.014295518398284912,0.007741689682006836,0.024320542812347412,0.33871525526046753,-0.7928654551506042,-0.3039195239543915,0.5427230670410949,-1.3397705740766461,-0.438994858721839
2.674778938293457,0.017219185829162598,0.0018215775489807129,0.02866518497467041,0.30218732357025146,-0.769791841506958,-0.3103771507740021,0.5464518399846235,-1.3490676802866937,-0.4361557865934088
2.6848299503326416,0.019190669059753418,-0.007941663265228271,0.04119350016117096,0.2871286869049072,-0.7566004395484924,-0.3053343594074249,0.5501019826678059,-1.3580225906918502,-0.4335865885925765
2.6947951316833496,0.025066137313842773,-0.00883018970489502,0.043139100074768066,0.2814926505088806,-0.7351060509681702,-0.2975675165653229,0.5536279790522393,-1.3668216972578093,-0.43104903853852267
2.7067580223083496,0.03099358081817627,0.001570582389831543,0.042519792914390564,0.26167047023773193,-0.6955463886260986,-0.2837377190589905,0.5570331748271878,-1.3753090596111202,-0.4285708150448944
2.7147889137268066,0.03156644105911255,-0.005581676959991455,0.052375614643096924,0.24027755856513977,-0.6538602113723755,-0.2714621424674988,0.560240994118002,-1.3832435495555528,-0.42629946145882974
2.7251360416412354,0.03401070833206177,-0.012518227100372314,0.06331145763397217,0.20257504284381866,-0.6111482381820679,-0.25921618938446045,0.5632411903783856,-1.3906552704778343,-0.4242752115119115
2.7347919940948486,0.03780198097229004,-0.010580062866210938,0.06994712352752686,0.14636608958244324,-0.5557249188423157,-0.23895218968391418,0.5660050187417409,-1.397317149767823,-0.42274220691618075
2.744776964187622,0.03644883632659912,-0.01528865098953247,0.08218461275100708,0.0778077244758606,-0.5041519999504089,-0.22174757719039917,0.5684731564921908,-1.4030679978531513,-0.4219117640106615
2.755096912384033,0.038760364055633545,-0.012915611267089844,0.09408324956893921,0.009040111675858498,-0.45275166630744934,-0.20322422683238983,0.5706387937801851,-1.4079105048936573,-0.4218126057815159
2.7648329734802246,0.04296785593032837,-0.009572088718414307,0.09843854606151581,-0.045303720980882645,-0.3946051001548767,-0.17756803333759308,0.572491574165133,-1.411826304033975,-0.42240575199516356
2.774911880493164,0.04295539855957031,-0.006052851676940918,0.09513694047927856,-0.07720492780208588,-0.3391817808151245,-0.15611706674098969,0.5740468029337338,-1.4149287433662594,-0.423454700667711
2.7847900390625,0.04070824384689331,0.0021690726280212402,0.08819490671157837,-0.0715794488787651,-0.2852380871772766,-0.1401568055152893,0.5753890414980707,-1.417405062406207,-0.42463809358360677
2.7948720455169678,0.03793931007385254,0.010632574558258057,0.0679224282503128,-0.01732979342341423,-0.23202067613601685,-0.13527601957321167,0.5766746819502188,-1.419551699851612,-0.42545408682781116
2.8061418533325195,0.027416765689849854,0.018698155879974365,0.039872050285339355,0.07753150165081024,-0.1853446066379547,-0.14376883208751678,0.5780876832926883,-1.4216650864968354,-0.42539050517529037
2.8149139881134033,0.014658987522125244,0.02448105812072754,0.00939924269914627,0.19940228760242462,-0.15654118359088898,-0.16338354349136353,0.5798010034616072,-1.4240981450862706,-0.4240400319790366
2.8252620697021484,0.008634328842163086,0.026530683040618896,-0.01807987689971924,0.3330724537372589,-0.15124455094337463,-0.1923295557498932,0.5819424548859337,-1.427173814445536,-0.4212034579569175
2.8350491523742676,0.0005999207496643066,0.04145228862762451,-0.03577003628015518,0.4610581398010254,-0.16659581661224365,-0.22184696793556213,0.5845547594315166,-1.431163057481459,-0.41681818160345036
2.84511399269104,-0.0053817033767700195,0.05500715970993042,-0.048428699374198914,0.5457032322883606,-0.18602117896080017,-0.25307339429855347,0.5876012465474764,-1.4360348520897641,-0.4111736986806389
2.85512113571167,-0.012744665145874023,0.05423241853713989,-0.06309335678815842,0.5891521573066711,-0.2105499505996704,-0.2784522473812103,0.590982646280913,-1.4415497895091227,-0.4048064834502849
2.8650941848754883,-0.014157116413116455,0.049824416637420654,-0.06777745485305786,0.6004301905632019,-0.24149882793426514,-0.2997190058231354,0.5946092618367246,-1.4475633368074865,-0.3980877503596228
2.8750228881835938,-0.027682244777679443,0.042856812477111816,-0.07091712951660156,0.6058651804924011,-0.2724836468696594,-0.31220152974128723,0.5983786391660514,-1.4539381151815922,-0.3912915647512767
2.885870933532715,-0.04292631149291992,0.04702204465866089,-0.08160518854856491,0.5792006254196167,-0.3140137195587158,-0.34102311730384827,0.6022984456372404,-1.4606574277038529,-0.3845811011434459
2.895048141479492,-0.04754132032394409,0.04893749952316284,-0.0834118127822876,0.5315300822257996,-0.36958935856819153,-0.3728894293308258,0.606443601699676,-1.4676317772359078,-0.37832409222877644
2.9053421020507812,-0.052151262760162354,0.03370952606201172,-0.0710572600364685,0.47701549530029297,-0.43914464116096497,-0.4059720039367676,0.6108146244601507,-1.4749036208903297,-0.3726546707879729
2.9149930477142334,-0.05238276720046997,0.032431602478027344,-0.06110883504152298,0.4414902329444885,-0.5030210614204407,-0.438546746969223,0.6154462622690723,-1.4825662318800825,-0.3675593076323698
2.9252870082855225,-0.05498981475830078,0.04488956928253174,-0.05616176128387451,0.41727375984191895,-0.5556356310844421,-0.4709882438182831,0.6203405745861349,-1.4906476250610212,-0.36276675186815605
2.9351420402526855,-0.0587158203125,0.048915088176727295,-0.06126433610916138,0.3884091079235077,-0.5920761823654175,-0.5115132927894592,0.6255601435447348,-1.4990184147702992,-0.3582891479863658
2.9450321197509766,-0.061171531677246094,0.049675047397613525,-0.05703305825591087,0.35720428824424744,-0.6297181844711304,-0.5369169116020203,0.6310637866573271,-1.5075705909320243,-0.3541317368632959
2.9553420543670654,-0.052842140197753906,0.03988933563232422,-0.04682386294007301,0.3412601947784424,-0.6592004299163818,-0.5659282803535461,0.6367772216421007,-1.5163521691990536,-0.35021473151780574
2.9658379554748535,-0.0467570424079895,0.034383296966552734,-0.03659224137663841,0.32183656096458435,-0.6813591122627258,-0.5926990509033203,0.6427334234003957,-1.5253185748533689,-0.3464345113967804
2.9752399921417236,-0.04450273513793945,0.04075747728347778,-0.021712958812713623,0.2959114611148834,-0.6839929819107056,-0.6267821788787842,0.6489382892994418,-1.534303506262163,-0.3428757601981545
2.985322952270508,-0.041910648345947266,0.03654128313064575,-0.004206834360957146,0.2636440098285675,-0.6891544461250305,-0.6318926215171814,0.6553252270059835,-1.543150444700436,-0.3396013795262594
2.995408058166504,-0.03705376386642456,0.0323643684387207,0.012181342579424381,0.2134663462638855,-0.6832952499389648,-0.6538445353507996,0.6618130685014363,-1.551775474833665,-0.336758854467292
3.0052649974823,-0.03031754493713379,0.030396223068237305,0.027705729007720947,0.16232697665691376,-0.665526270866394,-0.6700150966644287,0.6684845956264286,-1.559912880209825,-0.33449807741919807
3.0151419639587402,-0.028467178344726562,0.025481700897216797,0.04434335231781006,0.10942274332046509,-0.6499451398849487,-0.6866936683654785,0.6752871850604361,-1.5675298478026536,-0.3328377374717121
3.0251729488372803,-0.014674246311187744,0.02241051197052002,0.05427086353302002,0.0792958214879036,-0.6389005184173584,-0.7043962478637695,0.6822610020079248,-1.5747342554046946,-0.33163302909250103
3.0353710651397705,-0.0061234235763549805,0.027956604957580566,0.05305588245391846,0.08274807035923004,-0.6219508647918701,-0.7147697806358337,0.6893684199831935,-1.5817303184619627,-0.33055704891405663
3.0459940433502197,-0.0026882290840148926,0.03737908601760864,0.04519152641296387,0.1065588966012001,-0.6032744646072388,-0.72819983959198,0.6965779390307016,-1.58870750067814,-0.3292092596133834
3.0552990436553955,0.00634688138961792,0.042998552322387695,0.03734326362609863,0.1443515419960022,-0.5958000421524048,-0.750023603439331,0.7039466895819392,-1.5958935121526052,-0.32736589553716217
3.0652010440826416,0.010277271270751953,0.04607129096984863,0.02424931526184082,0.18063995242118835,-0.5964788794517517,-0.7793819904327393,0.7115452197500779,-1.6034166960965819,-0.3249404931876945
3.0753121376037598,0.009103357791900635,0.048567116260528564,0.011517766863107681,0.20742523670196533,-0.597870945930481,-0.8019397854804993,0.7193803764012613,-1.611340702822709,-0.3219587228621525
3.085193157196045,0.009530782699584961,0.05428433418273926,-0.000484224408864975,0.22721385955810547,-0.5959759950637817,-0.8324344754219055,0.7274558905596881,-1.619556922016932,-0.31856675488061487
3.0953221321105957,0.010727882385253906,0.06249129772186279,-0.005971074104309082,0.23343341052532196,-0.591464102268219,-0.8557049036026001,0.7357784105405305,-1.627953343028417,-0.3148844082814187
3.1052210330963135,0.017487287521362305,0.0750046968460083,-0.01198672503232956,0.23398007452487946,-0.5886379480361938,-0.872270405292511,0.7442726768446509,-1.6364888025183946,-0.31099994290880584
3.1152658462524414,0.031036317348480225,0.07821977138519287,-0.01957523077726364,0.22182035446166992,-0.583838939666748,-0.8878751993179321,0.7529097438794314,-1.6450541337106133,-0.30703685006533604
3.1255741119384766,0.03997260332107544,0.0804438591003418,-0.02495359629392624,0.20171654224395752,-0.5781279802322388,-0.9021287560462952,0.7616815595900509,-1.6535306877969311,-0.303164244248136
3.1352570056915283,0.044141411781311035,0.08499741554260254,-0.024745814502239227,0.19998309016227722,-0.5785125494003296,-0.9096729159355164,0.7705415697505226,-1.6619978294838063,-0.29931685287053955
3.145214080810547,0.04804903268814087,0.08993244171142578,-0.020447365939617157,0.21927034854888916,-0.5860064625740051,-0.9165362119674683,0.7794356280567285,-1.6707134425382866,-0.29518613842757735
3.155795097351074,0.04962962865829468,0.09071803092956543,-0.020837783813476562,0.2488572597503662,-0.5918012857437134,-0.9211608171463013,0.7883447162327765,-1.6798906968214495,-0.2905407511068668
3.1651711463928223,0.05893141031265259,0.08307772874832153,-0.0202641561627388,0.2886468768119812,-0.5904896855354309,-0.919683575630188,0.7971991079221108,-1.6895932477484772,-0.28523006579400223
3.175323963165283,0.07118982076644897,0.0769149661064148,-0.01800442487001419,0.3314092457294464,-0.5815179944038391,-0.9137958884239197,0.805910498684722,-1.699819638318854,-0.27915763876252603
3.1852200031280518,0.08039289712905884,0.07109683752059937,-0.018796324729919434,0.36476296186447144,-0.5630083084106445,-0.9005197882652283,0.8144478876188243,-1.7104331760360598,-0.2724168476220465
3.195338010787964,0.08322751522064209,0.056573331356048584,-0.019531846046447754,0.39110854268074036,-0.5462208390235901,-0.8827466368675232,0.8227150897393528,-1.721366167703035,-0.26503076757983934
3.2056050300598145,0.08445137739181519,0.04677015542984009,-0.020235911011695862,0.3925059139728546,-0.538653552532196,-0.8785437941551208,0.8308154662277984,-1.732516519178851,-0.2572626308327426
3.215397834777832,0.0743369460105896,0.03887009620666504,-0.01221979409456253,0.38582032918930054,-0.5264309644699097,-0.8626654744148254,0.8387767799953447,-1.7436512832989337,-0.24940681415307947
3.2253189086914062,0.07356160879135132,0.032156527042388916,0.0066912174224853516,0.4018314778804779,-0.532684326171875,-0.8468934297561646,0.8465041863108587,-1.7549926196694015,-0.24131777369670912
3.235426902770996,0.08748674392700195,0.03568834066390991,0.01734745502471924,0.4223306477069855,-0.5270351767539978,-0.8332532644271851,0.853984668892073,-1.7667025734688964,-0.23279040840881252
3.2453360557556152,0.07620364427566528,0.033226966857910156,0.013063907623291016,0.46104398369789124,-0.5220678448677063,-0.8186675906181335,0.8612074000284905,-1.7788807511785654,-0.2236348433329545
3.255439043045044,0.06241774559020996,0.030645370483398438,0.007607683539390564,0.5029951333999634,-0.5187367796897888,-0.8101366758346558,0.8681400025766741,-1.7916640387925318,-0.21369714432494807
3.2653770446777344,0.05737572908401489,0.025514066219329834,-0.002337336540222168,0.5546765923500061,-0.5152927041053772,-0.8037623763084412,0.8748181065284228,-1.8051280673194248,-0.2028606435239001
3.275467872619629,0.03947216272354126,0.010957837104797363,-0.01758730411529541,0.6131039261817932,-0.5191188454627991,-0.8105180263519287,0.881245976056524,-1.8194720384558771,-0.19094075796789808
3.2856059074401855,0.02306610345840454,-0.005256354808807373,-0.03418721258640289,0.6601485013961792,-0.5176407694816589,-0.8222405314445496,0.8875391311425895,-1.8347238473979526,-0.1779328286197974
3.2954258918762207,0.01310265064239502,-0.018253982067108154,-0.0383373498916626,0.6836096048355103,-0.5143494009971619,-0.8279154896736145,0.8936819750712024,-1.8506680190220568,-0.16407622234273248
3.3053979873657227,0.005411922931671143,-0.024233758449554443,-0.03292679786682129,0.6726224422454834,-0.4993336796760559,-0.830646276473999,0.8997227569936636,-1.8668901316098963,-0.14981896326458743
3.3153860569000244,-0.0022816061973571777,-0.03176683187484741,-0.019454926252365112,0.6355382204055786,-0.48573797941207886,-0.8255415558815002,0.9056666453789094,-1.8828870900000974,-0.13570788093025207
3.3255391120910645,-0.0019553303718566895,-0.04050266742706299,-0.0033781230449676514,0.5778661370277405,-0.4733937084674835,-0.8123165369033813,0.9115356549525953,-1.8984101793325467,-0.12212028938303243
3.3356900215148926,-0.005187094211578369,-0.05188858509063721,0.020823344588279724,0.5093128681182861,-0.46654802560806274,-0.7957354784011841,0.9173569119191118,-1.913192396495845,-0.10937704014635706
3.345533847808838,-0.008256614208221436,-0.060372769832611084,0.04434797167778015,0.462013304233551,-0.46063077449798584,-0.7777377963066101,0.9231006551159587,-1.9273742168298367,-0.09739225205889528
3.3555068969726562,-0.00305861234664917,-0.06567025184631348,0.05199475586414337,0.40326741337776184,-0.4567771553993225,-0.7711864113807678,0.9288079974115443,-1.941011421974095,-0.08607042438444827
3.365818977355957,-0.007476747035980225,-0.07494831085205078,0.055023059248924255,0.3483099043369293,-0.4414559602737427,-0.7613858580589294,0.9345627439260181,-1.9540210186964488,-0.07547638501221661
3.3757410049438477,-0.008856534957885742,-0.09149068593978882,0.05484519898891449,0.2986030578613281,-0.4112538695335388,-0.7544863820075989,0.9403605731801462,-1.9662525293964062,-0.06561843428593984
3.385730028152466,-0.009220004081726074,-0.09836304187774658,0.040851444005966187,0.29888057708740234,-0.38807183504104614,-0.7486264109611511,0.9461196298379967,-1.9780657469401208,-0.055947560594867364
3.3956809043884277,-0.017648935317993164,-0.10762560367584229,0.022960186004638672,0.3283284902572632,-0.36874207854270935,-0.7554632425308228,0.9517505746209993,-1.9900487248652163,-0.045853738184772744
3.4057209491729736,-0.04101884365081787,-0.11262166500091553,0.012259691953659058,0.3654835522174835,-0.3501128554344177,-0.7808574438095093,0.9573094886536992,-2.002569840532531,-0.034904639813537024
3.4156839847564697,-0.07198792695999146,-0.1070791482925415,0.0016447603702545166,0.39454105496406555,-0.346392422914505,-0.8158181309700012,0.9629309173430269,-2.015817834496959,-0.022978147730300984
3.425619125366211,-0.09033030271530151,-0.1052999496459961,-0.00040137767791748047,0.4060392677783966,-0.35039299726486206,-0.8438065052032471,0.9686611400641463,-2.0297752051258886,-0.010241243777043864
3.435685157775879,-0.0908842384815216,-0.10191559791564941,0.009343177080154419,0.3913878798484802,-0.36410826444625854,-0.8569399118423462,0.9744725743564125,-2.044183667037106,0.0028845508393228474
3.445773124694824,-0.08124560117721558,-0.0944250226020813,0.023972898721694946,0.3517257869243622,-0.3690555691719055,-0.8541364669799805,0.9803368538326361,-2.0586331560589843,0.015887902275444947
3.45585298538208,-0.06356987357139587,-0.08970892429351807,0.0416715145111084,0.30142346024513245,-0.36479076743125916,-0.8373721241950989,0.986229830475409,-2.072702631478566,0.028366893432348605
3.465862989425659,-0.041600435972213745,-0.0835762619972229,0.04336252808570862,0.23301361501216888,-0.347322016954422,-0.8105029463768005,0.9921436461030101,-2.085957871640457,0.039953958882825165
3.4759321212768555,-0.033147990703582764,-0.08008044958114624,0.037533074617385864,0.14318279922008514,-0.32573121786117554,-0.7838111519813538,0.9981165984419692,-2.097965556446192,0.0502662661345416
3.4872021675109863,-0.02903580665588379,-0.0699838399887085,0.032559990882873535,0.04450319707393646,-0.303758829832077,-0.7589082717895508,1.0043041756046402,-2.108516373168017,0.05905550164944939
3.4958410263061523,-0.015779107809066772,-0.056254029273986816,0.03674629330635071,-0.06632771342992783,-0.28526318073272705,-0.7349446415901184,1.0107570077154175,-2.1174289801320296,0.06610938199845685
3.5056991577148438,-0.009509116411209106,-0.03995096683502197,0.04951348900794983,-0.17597505450248718,-0.2619447410106659,-0.7023830413818359,1.017527703456594,-2.1245525784704036,0.07126902950922313
3.5157999992370605,0.009006321430206299,-0.02286505699157715,0.05705633759498596,-0.2854461669921875,-0.2443564236164093,-0.6696823835372925,1.0245878407858637,-2.1297811997666876,0.07443247151256711
3.525668144226074,0.04358711838722229,-0.002576887607574463,0.06423583626747131,-0.3650105893611908,-0.24770961701869965,-0.6337838768959045,1.0318458984431185,-2.1333799481624798,0.07578577884513728
3.5359530448913574,0.05422627925872803,0.012864112854003906,0.07897359132766724,-0.4277024567127228,-0.2511911690235138,-0.5992853045463562,1.039202559569294,-2.1357427005764524,0.0756184808469006
3.5457701683044434,0.0698004961013794,0.028374850749969482,0.0894598662853241,-0.4416848123073578,-0.2504071295261383,-0.5650767087936401,1.0464572238182055,-2.1372463796952945,0.07447667518537895
3.555807113647461,0.09155815839767456,0.04958754777908325,0.08187344670295715,-0.4046724736690521,-0.24959193170070648,-0.534373939037323,1.0533933632030001,-2.138590717120644,0.07314468267288853
3.565837860107422,0.10118216276168823,0.0670883059501648,0.06875574588775635,-0.3295452892780304,-0.251873642206192,-0.5244419574737549,1.0598442510671189,-2.1406144333994455,0.07258661533107558
3.575917959213257,0.09944093227386475,0.07328003644943237,0.05508121848106384,-0.22380952537059784,-0.24752947688102722,-0.5262105464935303,1.065766070389172,-2.144030720445352,0.07363750376204413
3.587069034576416,0.08696195483207703,0.07835018634796143,0.04214563965797424,-0.12056275457143784,-0.252341091632843,-0.5437073111534119,1.0711947459536912,-2.149227823908298,0.07672216742322445
3.5959129333496094,0.08504608273506165,0.0848919153213501,0.03479310870170593,-0.01209273748099804,-0.2414434254169464,-0.5591634511947632,1.0761768969540233,-2.156260136357491,0.08190073904828411
3.605846881866455,0.08051583170890808,0.09180009365081787,0.030813604593276978,0.09277162700891495,-0.22012463212013245,-0.5776458382606506,1.0806877319496968,-2.165105113389285,0.08931016170281855
3.6159281730651855,0.0679926872253418,0.09457474946975708,0.02222132682800293,0.22851614654064178,-0.16780602931976318,-0.5810530781745911,1.08461923820418,-2.1756477888585524,0.09900286439647554
3.625974178314209,0.05597633123397827,0.09667474031448364,0.014353066682815552,0.25929370522499084,-0.1524387151002884,-0.6170474290847778,1.0880471473779303,-2.1877946650934343,0.11094586538241955
3.637197971343994,0.043251484632492065,0.10335654020309448,0.017979025840759277,0.24422898888587952,-0.16137680411338806,-0.6221116781234741,1.0915725743271332,-2.2002610225501784,0.1232552473807178
3.6461150646209717,0.04728579521179199,0.11716300249099731,0.02843669056892395,0.21042174100875854,-0.17677932977676392,-0.6214452385902405,1.0952531527698433,-2.2126357413266473,0.13525337655162925
3.656087875366211,0.04842039942741394,0.11091560125350952,0.03200116753578186,0.18747355043888092,-0.16146056354045868,-0.6100336313247681,1.098951748275753,-2.2246993173050136,0.14690289666262596
3.6660549640655518,0.04663705825805664,0.08998149633407593,0.025404661893844604,0.15468382835388184,-0.13849742710590363,-0.6155560612678528,1.102761051352026,-2.23624421848522,0.15816957161436943
3.6761410236358643,0.051103681325912476,0.08437657356262207,0.018671810626983643,0.12882612645626068,-0.11895008385181427,-0.6218629479408264,1.106722801559428,-2.247363850756436,0.16918492305365831
3.687069892883301,0.04215741157531738,0.07984542846679688,0.01941096782684326,0.10919635742902756,-0.09803606569766998,-0.6282016038894653,1.110832444673312,-2.258233861919066,0.18011356578617452
3.696537971496582,0.03826349973678589,0.06949162483215332,0.017964929342269897,0.11162356287240982,-0.07803385704755783,-0.6326874494552612,1.1149902264041611,-2.2689950483994177,0.19114084458544495
3.706149101257324,0.037289202213287354,0.054219067096710205,0.009110450744628906,0.13565775752067566,-0.0786302238702774,-0.6357885599136353,1.1190662750211495,-2.280119687978261,0.20265114101767648
3.718111991882324,0.03681710362434387,0.03199326992034912,0.003445267677307129,0.1630992442369461,-0.07716362178325653,-0.6240472197532654,1.1228356112621105,-2.2918392382226123,0.21478983171977684
3.727231025695801,0.04394230246543884,0.024786710739135742,0.017568081617355347,0.16065636277198792,-0.0784687027335167,-0.5991970300674438,1.1263256234210222,-2.3036966587919125,0.22707784069764225
3.7371878623962402,0.05697983503341675,0.028497397899627686,0.039953917264938354,0.121756911277771,-0.06456300616264343,-0.5669932961463928,1.1296796851429143,-2.314948541977976,0.238728724819115
3.7463860511779785,0.07543489336967468,0.015623688697814941,0.04715070128440857,0.059405650943517685,-0.06067630276083946,-0.5372995138168335,1.133098391357371,-2.3250118196616323,0.24915554204756205
3.7562508583068848,0.0776941180229187,-0.0011287331581115723,0.0474378764629364,-0.008332653902471066,-0.05778863653540611,-0.5045175552368164,1.1367164510421879,-2.333676896306526,0.2580737406060377
3.766716957092285,0.06708019971847534,-0.007240772247314453,0.046292632818222046,-0.04519987478852272,-0.060150548815727234,-0.47153910994529724,1.1404481354646034,-2.3411676413203724,0.26566242730370676
3.776221990585327,0.07041147351264954,0.006931900978088379,0.04011371731758118,-0.047638531774282455,-0.06018570065498352,-0.4367518126964569,1.1440405295922706,-2.347973302718802,0.27247135538465445
3.7871880531311035,0.0767318606376648,0.014686942100524902,0.02501407265663147,-0.009546222165226936,-0.05842965841293335,-0.41191837191581726,1.14726771827242,-2.3546448781104363,0.2791614103713228
3.7962441444396973,0.07179594039916992,0.017506957054138184,0.01052805781364441,0.03265875577926636,-0.05921822041273117,-0.4014257788658142,1.1500536489199666,-2.3618426594189676,0.28639855581603557
3.8062150478363037,0.0615980327129364,0.015364408493041992,-0.0037443935871124268,0.11244304478168488,-0.05852140858769417,-0.38837701082229614,1.1523226265383644,-2.3698290004358458,0.2944980426021838
3.816200017929077,0.06470510363578796,0.01962876319885254,-0.013417929410934448,0.2121904194355011,-0.06557771563529968,-0.3862062692642212,1.153845372156685,-2.3792380745672093,0.3041316971459368
3.8261971473693848,0.05377918481826782,0.01282423734664917,-0.025875210762023926,0.32285669445991516,-0.07720708101987839,-0.3787008821964264,1.1545261029659974,-2.390390328188717,0.3155457934836643
3.837247848510742,0.04346686601638794,-0.005055367946624756,-0.027962088584899902,0.4112704396247864,-0.08474249392747879,-0.3649051785469055,1.1543465559493966,-2.4030724879143253,0.32851944506810876
3.8462870121002197,0.04810720682144165,-0.01774001121520996,-0.0218772292137146,0.4811023473739624,-0.08304117619991302,-0.3397718071937561,1.1533926901520692,-2.4166482175319066,0.34243728655426847
3.8564181327819824,0.05089440941810608,-0.041381657123565674,-0.008440226316452026,0.539867639541626,-0.08087708801031113,-0.30184146761894226,1.1516512076202552,-2.4305136446929834,0.35671052204112536
3.8663039207458496,0.046355098485946655,-0.07001054286956787,0.0015385150909423828,0.5758606791496277,-0.08638393133878708,-0.26191022992134094,1.1492121275636755,-2.4442489160700998,0.3708419264883879
3.8763229846954346,0.04402434825897217,-0.07980328798294067,0.005931735038757324,0.6103566288948059,-0.09621978551149368,-0.22033296525478363,1.1461731050188761,-2.4576724772235083,0.38456447772769103
3.887235164642334,0.03374570608139038,-0.08876866102218628,-0.005940645933151245,0.6547993421554565,-0.10438338667154312,-0.18365798890590668,1.142501011139968,-2.4708768247383963,0.3979646735987865
3.8966550827026367,0.01939404010772705,-0.10962289571762085,-0.025688976049423218,0.7078487277030945,-0.11693806201219559,-0.1465926468372345,1.1381604529096123,-2.4839673799898905,0.41115280511493096
3.906308174133301,0.012585937976837158,-0.1241254210472107,-0.043136268854141235,0.7309036254882812,-0.13252514600753784,-0.10967452079057693,1.1332215319088819,-2.496806715174854,0.42393254103494576
3.9162840843200684,0.013089478015899658,-0.12798857688903809,-0.05425083637237549,0.7360554933547974,-0.14753098785877228,-0.06860031932592392,1.1278442869306018,-2.5090269929186535,0.4359005486526596
3.926237106323242,0.00797167420387268,-0.12714147567749023,-0.05874669551849365,0.7200807929039001,-0.17040838301181793,-0.03078865446150303,1.1222351545015379,-2.520431337014897,0.4467648577367706
3.937052011489868,-0.0017912089824676514,-0.13223427534103394,-0.05749058723449707,0.695956289768219,-0.19900888204574585,-0.0007495281752198935,1.1165419880100953,-2.5310056341194374,0.4564523168810356
3.946331024169922,-0.015683114528656006,-0.13348424434661865,-0.05774298310279846,0.6698856949806213,-0.21717163920402527,0.02652406319975853,1.1108401862167805,-2.540775717438789,0.46501289756567143
3.956552028656006,-0.035607874393463135,-0.1200718879699707,-0.05882778763771057,0.6150914430618286,-0.21680012345314026,0.044424768537282944,1.105302318595638,-2.5496251468017537,0.4724605882356435
3.9664411544799805,-0.04866799712181091,-0.10159659385681152,-0.05803099274635315,0.5460379123687744,-0.20789340138435364,0.0537569634616375,1.1001889264603801,-2.5573023810068785,0.4786720440619027
3.9765679836273193,-0.06079472601413727,-0.08867055177688599,-0.055106520652770996,0.4974895119667053,-0.19258582592010498,0.05562090873718262,1.095536085896776,-2.563982693893955,0.48392304242944106
3.9878320693969727,-0.06834949553012848,-0.07840865850448608,-0.05124419927597046,0.4688778817653656,-0.17610515654087067,0.047161590307950974,1.0912034894876719,-2.5700424524443797,0.4886817313087888
3.996570110321045,-0.06907902657985687,-0.0647728443145752,-0.04902482032775879,0.4649558663368225,-0.1774015873670578,0.03114480897784233,1.0870739549668984,-2.5759429771419864,0.4933536375182487
4.006618022918701,-0.06636284291744232,-0.05142778158187866,-0.04236358404159546,0.49375462532043457,-0.1631879359483719,0.01052512414753437,1.0829097934870806,-2.5821511869874865,0.49845222411513107
4.016694068908691,-0.06125381588935852,-0.05068320035934448,-0.0376964807510376,0.5104547739028931,-0.15644587576389313,0.006695231888443232,1.0785915035915006,-2.5886031093654895,0.5039494770031983
4.026746988296509,-0.046915456652641296,-0.051343560218811035,-0.03149151802062988,0.524283766746521,-0.1300584375858307,-0.014643185772001743,1.0741772349932137,-2.595141099182096,0.509735701038713
4.037538051605225,-0.03363576531410217,-0.04582560062408447,-0.021764278411865234,0.5034048557281494,-0.09962410479784012,-0.0198238343000412,1.0698588835851126,-2.601482632853621,0.5156282098609678
4.0466461181640625,-0.0058898478746414185,-0.03718084096908569,-0.002634882926940918,0.46698683500289917,-0.07372144609689713,-0.01061552856117487,1.0657610770060837,-2.607122676032723,0.5210875709202798
4.056632995605469,0.020040765404701233,-0.02040940523147583,0.013280153274536133,0.4352251887321472,-0.045495931059122086,0.01637774147093296,1.06186835837415,-2.6118184752168268,0.5257555891281158
4.066673040390015,0.03055734932422638,-0.009208500385284424,0.01666167378425598,0.3949250280857086,-0.014273163862526417,0.04422098025679588,1.0581244613292267,-2.6153814756132165,0.529508914779948
4.076668977737427,0.04277326166629791,0.0026952028274536133,0.00481685996055603,0.35498666763305664,0.01191370002925396,0.08106900751590729,1.0545623464372957,-2.6177571130753585,0.532226559115444
4.087925910949707,0.04758270084857941,0.015273332595825195,-0.0034321248531341553,0.29723405838012695,0.0396108441054821,0.12088928371667862,1.051212303342946,-2.6188292166287943,0.5337779665913173
4.09666109085083,0.05810996890068054,0.03322106599807739,0.0018730759620666504,0.22286556661128998,0.06549064069986343,0.1644977480173111,1.0482460970612113,-2.618415156603777,0.5339030724066121
4.106687068939209,0.08183985948562622,0.061779022216796875,0.01751089096069336,0.13833926618099213,0.09749571233987808,0.2067781537771225,1.0457317749380035,-2.6163805901196375,0.5325061377207754
4.116718053817749,0.09923452138900757,0.08171802759170532,0.025686413049697876,0.0623030811548233,0.11955414712429047,0.25644850730895996,1.0437174722997566,-2.6126690403809874,0.5294792363574023
4.126670837402344,0.10696938633918762,0.10358333587646484,0.02146846055984497,-0.011782562360167503,0.11952751129865646,0.2632438838481903,1.0421718598062528,-2.6077647802956525,0.525218363358482
4.137257099151611,0.09072044491767883,0.1223326325416565,0.0017989277839660645,-0.05991653352975845,0.10755100846290588,0.2370373010635376,1.041227285758164,-2.602566778507126,0.5205294199529855
4.146661996841431,0.0526408851146698,0.12437814474105835,-0.006469547748565674,-0.04051690548658371,0.08471538126468658,0.18880809843540192,1.040594991232067,-2.597952454701238,0.5163029587895694
4.156659126281738,0.03127214312553406,0.12610334157943726,-0.017939448356628418,0.051880933344364166,0.05143332481384277,0.11550059169530869,1.0398127953840555,-2.595037817285891,0.5137265202927811
4.166628837585449,0.01809278130531311,0.12795710563659668,-0.03589683771133423,0.2193005084991455,0.016792478039860725,0.045497648417949677,1.0382627264038462,-2.5946940965775998,0.5137365450109318
4.176772117614746,-0.003854721784591675,0.12122011184692383,-0.054223209619522095,0.41402310132980347,-0.014038139954209328,-0.022093113511800766,1.0354885372476272,-2.597309392278293,0.5167852797846555
4.187375068664551,-0.0115928053855896,0.11141163110733032,-0.06246426701545715,0.5967005491256714,-0.030808154493570328,-0.07785443216562271,1.0314102138878554,-2.602649230031559,0.5227363220562333
4.196648120880127,-0.014974594116210938,0.09055674076080322,-0.058967530727386475,0.7417546510696411,-0.038250625133514404,-0.1292949914932251,1.0261529414414454,-2.6101856028957093,0.5311248982549761
4.206676006317139,-0.03614690899848938,0.07020384073257446,-0.05112791061401367,0.8301118016242981,-0.03637517988681793,-0.17553837597370148,1.020120394828991,-2.6192467176119187,0.5413049417275971
4.216726064682007,-0.04076629877090454,0.06250238418579102,-0.026750147342681885,0.8453186750411987,-0.030919695273041725,-0.21217629313468933,1.0137458628489073,-2.629076521885851,0.5524652531759207
4.226767063140869,-0.03577110171318054,0.05220925807952881,0.0017482638359069824,0.7581327557563782,-0.01982785202562809,-0.22618962824344635,1.0077549433757627,-2.6386862604843166,0.5634872855614693
4.2373528480529785,-0.02802860736846924,0.04458707571029663,0.045257568359375,0.5831207036972046,0.0004294835962355137,-0.22494301199913025,1.0028989294790167,-2.6470565209993966,0.5732709655513514
4.246779918670654,-0.016974955797195435,0.03265649080276489,0.08984124660491943,0.3389001190662384,0.030467677861452103,-0.19682832062244415,0.9998174178250807,-2.6532468924889274,0.5808056694157848
4.256734848022461,0.0009448528289794922,0.02717125415802002,0.1236441433429718,0.09476415812969208,0.06787550449371338,-0.1634293496608734,0.9987597956395718,-2.656816732039442,0.5856368914088614
4.266896963119507,0.016574949026107788,0.0272408127784729,0.14094960689544678,-0.11135044693946838,0.08732354640960693,-0.13021095097064972,0.9995373441145168,-2.6579550920577786,0.5879285321598563
4.276913166046143,0.015382528305053711,0.01981431245803833,0.14438048005104065,-0.24479426443576813,0.1012532114982605,-0.12284412235021591,1.001750498686283,-2.6574229440365214,0.5884146776730887
4.287466049194336,0.005625516176223755,0.00133436918258667,0.13436782360076904,-0.27349379658699036,0.11690123379230499,-0.1249242052435875,1.0046714097195208,-2.656082418219273,0.5881367919291884
4.296824932098389,0.005009949207305908,-0.014902353286743164,0.10803771018981934,-0.21146555244922638,0.13430605828762054,-0.14103606343269348,1.0074911566422362,-2.6548376539804797,0.5881473870877703
4.306884050369263,0.00183047354221344,-0.026392459869384766,0.0766790509223938,-0.08216468244791031,0.14402566850185394,-0.14733316004276276,1.009494681965035,-2.654364761133478,0.5892476261559616
4.316897869110107,0.0023507624864578247,-0.0469246506690979,0.05627858638763428,0.06350729614496231,0.14323550462722778,-0.1570318639278412,1.0103091543838758,-2.654973155443884,0.5916803235552994
4.32701301574707,0.002348795533180237,-0.05764287710189819,0.04884132742881775,0.20753546059131622,0.13801512122154236,-0.15843375027179718,1.0098376266902,-2.6568337153543613,0.5955208493134718
4.337718963623047,-0.0004564821720123291,-0.0758170485496521,0.03803521394729614,0.33006858825683594,0.13744200766086578,-0.1552685797214508,1.008174806178786,-2.659639010476393,0.6004845359607606
4.346866130828857,0.003988936543464661,-0.09110409021377563,0.026790857315063477,0.391516774892807,0.13505330681800842,-0.14828693866729736,1.005609493972204,-2.6630931399914135,0.6061781909665754
4.356997966766357,-0.005325064063072205,-0.07762801647186279,0.02426585555076599,0.3925498127937317,0.1177736446261406,-0.1386961042881012,1.0027715199308163,-2.6666894223916318,0.6119441362989412
4.366796970367432,-0.019679993391036987,-0.05547267198562622,0.029341578483581543,0.3396468162536621,0.10075902193784714,-0.12101420760154724,1.0000539238092943,-2.6700325225666277,0.6172157640484485
4.376968860626221,-0.029111623764038086,-0.05263787508010864,0.03140527009963989,0.22774958610534668,0.07496870309114456,-0.10529622435569763,0.9980174332491253,-2.672751737609435,0.6215028094871367
4.387456893920898,-0.0337817519903183,-0.04682797193527222,0.031823933124542236,0.11445543169975281,0.047287579625844955,-0.09177365899085999,0.9969416981974828,-2.67466708687556,0.6245136465252034
4.396933078765869,-0.027461037039756775,-0.03496658802032471,0.03244137763977051,0.02355668693780899,0.013207107782363892,-0.08950251340866089,0.9967541272008963,-2.676063725742582,0.626555857213851
4.406947135925293,-0.028443291783332825,-0.03126657009124756,0.03899627923965454,-0.011162178590893745,-0.028457071632146835,-0.09473492950201035,0.9971336430936372,-2.6774478144488514,0.6280993515025957
4.4169909954071045,-0.029725179076194763,-0.025819838047027588,0.04425787925720215,-0.003946344368159771,-0.058003779500722885,-0.10047776997089386,0.9976666928561608,-2.6791739563189747,0.6296318886238358
4.4269139766693115,-0.024134337902069092,-0.01918584108352661,0.04455500841140747,0.014485826715826988,-0.06388688087463379,-0.09404075145721436,0.9980820691539426,-2.681198583565984,0.631295274633303
4.4375,-0.010046571493148804,-0.015101015567779541,0.04892486333847046,0.03867398574948311,-0.06154995039105415,-0.08390742540359497,0.9982430996995,-2.6832663788000133,0.6329949881446701
4.44710111618042,0.002289503812789917,-0.007002353668212891,0.0557345449924469,0.04554425925016403,-0.04560387507081032,-0.07981116324663162,0.9982356148490131,-2.6852035919542163,0.6346656940623272
4.457206964492798,0.004314407706260681,0.000847935676574707,0.055659353733062744,0.04762259125709534,-0.030494967475533485,-0.08387647569179535,0.9981651206374438,-2.687022925971193,0.6363934696214238
4.467138051986694,0.006181985139846802,0.0028604865074157715,0.05436986684799194,0.057840559631586075,-0.012975849211215973,-0.08739984035491943,0.9980773228839595,-2.688768581866122,0.6382196787412729
4.477184057235718,0.010170519351959229,0.007160365581512451,0.052349627017974854,0.0836993157863617,-0.01855836622416973,-0.09411287307739258,0.9978186609386632,-2.6906097661827704,0.6402813802332383
4.487391948699951,0.013414725661277771,0.00972747802734375,0.046796560287475586,0.10390029847621918,-0.05526764690876007,-0.10911482572555542,0.9974029680730476,-2.693025892023566,0.6426954168639339
4.497239112854004,0.02375979721546173,-0.004413604736328125,0.0518641471862793,0.12294909358024597,-0.09018728137016296,-0.11947851628065109,0.9968196868564024,-2.696078471879658,0.6454812398219633
4.507102012634277,0.025000348687171936,-0.019595563411712646,0.07503962516784668,0.1303870975971222,-0.11753962934017181,-0.13086961209774017,0.9961746558239731,-2.699684220038531,0.6485512099184122
4.517477989196777,0.012743636965751648,-0.027300596237182617,0.08377882838249207,0.17534232139587402,-0.12786976993083954,-0.11579744517803192,0.995305954037653,-2.7036405332946827,0.6517788656492827
4.5271079540252686,0.0038429051637649536,-0.05329728126525879,0.08094608783721924,0.0987057164311409,-0.1513015478849411,-0.1383533626794815,0.994557433004695,-2.7077113852758155,0.6550219906143792
4.537292957305908,6.362795829772949e-06,-0.05115246772766113,0.08947193622589111,0.04689977690577507,-0.16327564418315887,-0.13625745475292206,0.994432904990116,-2.711728554163003,0.6579176653630381
4.547057151794434,-0.02606329321861267,-0.06243276596069336,0.08800077438354492,0.022044943645596504,-0.16958241164684296,-0.11431939154863358,0.9946217085791045,-2.715428294516524,0.6603136327952188
4.557158946990967,-0.035669296979904175,-0.08676493167877197,0.07455715537071228,0.012773415073752403,-0.1549009382724762,-0.10060837119817734,0.9948840410947825,-2.718705287968464,0.6622526608548118
4.567281007766724,-0.028975263237953186,-0.08537089824676514,0.06574827432632446,0.015886131674051285,-0.11543267220258713,-0.08166749775409698,0.9950905861451184,-2.7214894562379164,0.6639382684809932
4.57724404335022,-0.03423716127872467,-0.0814465880393982,0.05885776877403259,0.0036078952252864838,-0.07613320648670197,-0.05995287746191025,0.9952635925258181,-2.7235751528534893,0.6652543392049128
4.5875890254974365,-0.03213568031787872,-0.0736008882522583,0.05495366454124451,-0.011213662102818489,-0.04420030117034912,-0.04141274839639664,0.9954649009835905,-2.7248876511147277,0.666095106997755
4.597193002700806,-0.028926432132720947,-0.06762421131134033,0.05003488063812256,-0.013552716001868248,-0.019629444926977158,-0.034720223397016525,0.9957082927787632,-2.725693041130375,0.6666562521930568
4.607197999954224,-0.030564486980438232,-0.06664752960205078,0.0475945770740509,0.0018967976793646812,-0.003090638667345047,-0.038802530616521835,0.9959048557519898,-2.726305995956158,0.6672436215300853
4.617133140563965,-0.03559599816799164,-0.06233245134353638,0.035850584506988525,0.030001135542988777,0.024253100156784058,-0.031083092093467712,0.9958434301278428,-2.7268308961466885,0.6679876845191831
4.627300977706909,-0.03319624066352844,-0.0378231406211853,0.014637470245361328,0.019052166491746902,0.04656803980469704,-0.0214582160115242,0.9957101411132095,-2.7270052066096655,0.6686148488905753
4.637455940246582,-0.03281921148300171,-0.0023537874221801758,0.005675196647644043,0.008851193822920322,0.05964842066168785,-0.010077995248138905,0.9956398781177048,-2.7267856333551057,0.6689904475513159
4.647264003753662,-0.02564089000225067,0.0011013150215148926,0.0034895241260528564,0.012529418803751469,0.07124888151884079,0.021403975784778595,0.9955397527780271,-2.7261045406158453,0.6689707367900828
4.657315969467163,-0.008322909474372864,-0.003755033016204834,0.0050820112228393555,0.012484678067266941,0.07502897083759308,0.04382246732711792,0.9952807131999186,-2.7249647069715937,0.668509538785269
4.667261123657227,0.010055989027023315,0.002509891986846924,0.010909885168075562,0.0004203915596008301,0.06333991885185242,0.062052659690380096,0.9950161479345859,-2.723566815987678,0.6676762010416314
4.677443027496338,0.021043449640274048,0.007969915866851807,0.0152721107006073,0.008574724197387695,0.05185343325138092,0.09943491965532303,0.9946471056330016,-2.7218855036174836,0.6663597295332566
4.687875986099243,0.03555181622505188,0.0038655996322631836,0.01322859525680542,0.03596049174666405,0.035645127296447754,0.1398461014032364,0.9939482416298937,-2.719888051512646,0.664498664090993
4.697328090667725,0.04482913017272949,-0.005013525485992432,0.007934749126434326,0.052325885742902756,0.027897458523511887,0.17312389612197876,0.9929164656861191,-2.717657884892853,0.6622074588225935
4.707425117492676,0.04950982332229614,-0.019564270973205566,0.0004907846450805664,0.10250858217477798,0.028903735801577568,0.22805829346179962,0.991420857629682,-2.715026826115732,0.6594126053002987
4.717411041259766,0.05171136558055878,-0.03403615951538086,-0.0024304986000061035,0.1748512238264084,0.055477291345596313,0.29787200689315796,0.9890440055459909,-2.711809514312731,0.6560745504840368
4.727359056472778,0.06014810502529144,-0.03650397062301636,1.1146068572998047e-05,0.24464751780033112,0.09506726264953613,0.3767002820968628,0.9857280114217064,-2.707722835792404,0.6520899601814064
4.737933158874512,0.06803202629089355,-0.051095783710479736,0.01016610860824585,0.28857263922691345,0.11923705041408539,0.4510147273540497,0.9815330620368209,-2.702709732532764,0.6473493510404671
4.7474870681762695,0.07319140434265137,-0.07615184783935547,0.004583299160003662,0.2992381751537323,0.13934653997421265,0.5156895518302917,0.9768251590517832,-2.6969098371743723,0.6418853734597841
4.757436990737915,0.06730963289737701,-0.10325348377227783,0.0026575326919555664,0.31263548135757446,0.14715225994586945,0.5856481194496155,0.9717156364094286,-2.6902941761504136,0.6355563104329789
4.767441034317017,0.06940236687660217,-0.11229836940765381,0.011851906776428223,0.3554343283176422,0.14909832179546356,0.6580253839492798,0.9660624636933695,-2.6830649221529312,0.628478149139839
4.777450084686279,0.0717889666557312,-0.10913968086242676,0.01451033353805542,0.3850542902946472,0.14182309806346893,0.7200970649719238,0.9596510259561596,-2.6751089846311418,0.6205679691812912
4.7876200675964355,0.07003849744796753,-0.10349571704864502,0.008516550064086914,0.3860197067260742,0.1265556812286377,0.7736678123474121,0.9528201624918234,-2.6668120019510235,0.6120603667372994
4.797402858734131,0.052584946155548096,-0.10997754335403442,0.00025767087936401367,0.3619207441806793,0.09737729281187057,0.8338360786437988,0.9457765425007202,-2.65812549427836,0.6027528763085391
4.80742883682251,0.04195326566696167,-0.11031955480575562,-0.007633209228515625,0.3147125542163849,0.0807480663061142,0.874971330165863,0.9387584274291878,-2.6490225361577133,0.5925952019165115
4.8174660205841064,0.029977619647979736,-0.10544252395629883,-0.013895511627197266,0.24952423572540283,0.07160890102386475,0.91189044713974,0.9320383887970423,-2.639425464396463,0.5816130162672362
4.827620983123779,0.01614508032798767,-0.09245717525482178,-0.02149355411529541,0.1758614480495453,0.08085401356220245,0.9499940276145935,0.925667528755812,-2.629074725433031,0.5696735719064524
4.838016986846924,0.021099001169204712,-0.06805288791656494,-0.027629196643829346,0.15897302329540253,0.08308707177639008,0.9833809733390808,0.9194345820305485,-2.618212197703254,0.5571097741783128
4.84746789932251,0.027321964502334595,-0.05058908462524414,-0.03983008861541748,0.1408802568912506,0.07891527563333511,1.00845468044281,0.9131310719835065,-2.6071667821387536,0.5442029157410286
4.857524871826172,0.022237032651901245,-0.03397399187088013,-0.05613487958908081,0.16587162017822266,0.07503984868526459,1.0490097999572754,0.9065903713466701,-2.5960149470092517,0.5310481558763458
4.867465019226074,0.023943960666656494,-0.053979694843292236,-0.06303972005844116,0.253959059715271,0.08830016851425171,1.094986915588379,0.8991969201278165,-2.5849774196819353,0.5180265247902665
4.877574920654297,0.04954537749290466,-0.09071803092956543,-0.07689613103866577,0.3392294943332672,0.1077692061662674,1.1372486352920532,0.8907406583890249,-2.5741845126515353,0.5054573038419151
4.887723922729492,0.06722617149353027,-0.0960354208946228,-0.06788969039916992,0.4023788571357727,0.13168466091156006,1.1964421272277832,0.8812964744656455,-2.5634508201800155,0.49314168469037206
4.897561073303223,0.08451482653617859,-0.09251874685287476,-0.04823637008666992,0.40947166085243225,0.15771172940731049,1.2828621864318848,0.8710565488994149,-2.552283310337885,0.4805075355540728
4.907557010650635,0.11900556087493896,-0.1039838194847107,-0.018470704555511475,0.36423662304878235,0.17851674556732178,1.3974229097366333,0.8603123295498479,-2.5401223493768375,0.46675246033533196
4.917718887329102,0.15999126434326172,-0.11581641435623169,0.02179640531539917,0.24920164048671722,0.20379893481731415,1.5248810052871704,0.849420656882244,-2.526458254723225,0.451181067367421
4.92772102355957,0.20718151330947876,-0.11979269981384277,0.06510639190673828,0.061535030603408813,0.20635561645030975,1.6670210361480713,0.8388196342194028,-2.510827665597872,0.4330570963198083
4.937901973724365,0.25524842739105225,-0.11840146780014038,0.11068016290664673,-0.16159552335739136,0.21076367795467377,1.834478497505188,0.8288108965681921,-2.4929366323897653,0.41169903734596996
4.947738170623779,0.3003470301628113,-0.13471579551696777,0.14400094747543335,-0.38498276472091675,0.2079484611749649,2.012664556503296,0.8191926776364109,-2.472555475156597,0.38683040389481566
4.957767963409424,0.3313817083835602,-0.1467757225036621,0.1676611304283142,-0.6197316646575928,0.19303129613399506,2.177635669708252,0.8099561261570555,-2.449900862798306,0.3584284220949211
4.967723846435547,0.3466970920562744,-0.14293068647384644,0.1921338438987732,-0.8116195201873779,0.21429495513439178,2.3542327880859375,0.8007942711634846,-2.4250371095807575,0.32671575595500685
4.977849960327148,0.36140012741088867,-0.13122671842575073,0.19669753313064575,-0.9860038757324219,0.2323509156703949,2.502864122390747,0.7913280209331969,-2.3981356779548717,0.29219382490652906
4.987895965576172,0.35893547534942627,-0.10087502002716064,0.2001306414604187,-1.1657813787460327,0.2676621973514557,2.646716594696045,0.7814805364190015,-2.3694796462810785,0.2552226844037149
4.997627019882202,0.349953293800354,-0.06980717182159424,0.20734018087387085,-1.344335675239563,0.33550143241882324,2.789142370223999,0.7711313972367145,-2.338849106413726,0.21580097439387255
5.008026123046875,0.36293649673461914,-0.05496340990066528,0.21223467588424683,-1.4874306917190552,0.40308359265327454,2.934725284576416,0.7599740461731306,-2.30634680780869,0.17426106179759737
5.017781972885132,0.3887289762496948,-0.03590047359466553,0.19361746311187744,-1.573113203048706,0.44779062271118164,3.049772024154663,0.7475700377834676,-2.272695146784224,0.13134247895674078
5.027942180633545,0.399040162563324,-0.01652735471725464,0.16531476378440857,-1.5947703123092651,0.49289000034332275,3.1497552394866943,0.733648607122621,-2.2388015426693437,0.08801408574123049
5.037945032119751,0.3808537721633911,-0.0011687278747558594,0.15084341168403625,-1.5828033685684204,0.5206949710845947,3.2467100620269775,0.7178499234149085,-2.2052232989865956,0.04511971943761518
5.047806978225708,0.3568824529647827,0.018960893154144287,0.1362707018852234,-1.5413726568222046,0.5569989085197449,3.344743251800537,0.7000234306241823,-2.1724986041442214,0.003136164257945473
5.0578529834747314,0.33960390090942383,0.04588276147842407,0.136180579662323,-1.4877378940582275,0.6073408722877502,3.4124999046325684,0.6802432896691828,-2.140786094928572,-0.03752561402007597
5.067878007888794,0.33717572689056396,0.07434231042861938,0.13552325963974,-1.436288833618164,0.6447434425354004,3.4869260787963867,0.6585883057109801,-2.1102539417577106,-0.07656401223759637
5.077836036682129,0.3544934391975403,0.10117566585540771,0.13195213675498962,-1.429481029510498,0.6830447316169739,3.5267865657806396,0.6353632489975507,-2.08093688730902,-0.11417152921467205
5.0878448486328125,0.3730822801589966,0.12093144655227661,0.13743191957473755,-1.4140887260437012,0.7028911113739014,3.5420000553131104,0.6110040824341423,-2.052867156701698,-0.15033432595662014
5.097804069519043,0.3830763101577759,0.12222933769226074,0.15768787264823914,-1.4376459121704102,0.7152361869812012,3.57554292678833,0.5856677608405386,-2.0261424552123817,-0.18518377081285906
5.1078200340271,0.37514740228652954,0.1324175000190735,0.1876145303249359,-1.4960365295410156,0.7456024289131165,3.6001219749450684,0.5594650704040391,-2.0003740642944132,-0.21926658258737505
5.117856979370117,0.36638015508651733,0.13772141933441162,0.21199354529380798,-1.5359044075012207,0.796074390411377,3.6240170001983643,0.532567519957429,-1.9753073001066355,-0.25269486663211543
5.12786602973938,0.37936586141586304,0.1343686878681183,0.226637601852417,-1.5519664287567139,0.809360921382904,3.6411819458007812,0.5048811148691725,-1.9511412351158388,-0.28516859000036016
5.138116836547852,0.3984031081199646,0.1523188352584839,0.22018909454345703,-1.5389965772628784,0.8220087885856628,3.671640157699585,0.47632567569678286,-1.9281909365733296,-0.3165293335401179
5.148024082183838,0.41396015882492065,0.16880497336387634,0.20408117771148682,-1.48415207862854,0.8337152600288391,3.7037925720214844,0.44674725250127045,-1.906579650256558,-0.3464465229198741
5.1579389572143555,0.42414653301239014,0.16810521483421326,0.1809796690940857,-1.3903717994689941,0.8445900082588196,3.737175941467285,0.4160754615568657,-1.886401480612745,-0.37459482228416174
5.168020963668823,0.43093186616897583,0.17037862539291382,0.16529425978660583,-1.2757153511047363,0.8534524440765381,3.7679519653320312,0.38429684670630815,-1.8677079671293992,-0.4007256067521964
5.177845001220703,0.4388340711593628,0.16700246930122375,0.15927451848983765,-1.1347383260726929,0.8549853563308716,3.7889020442962646,0.3514545326063301,-1.8505193705893,-0.42465954453631793
5.187998056411743,0.4473721385002136,0.150883287191391,0.17576661705970764,-1.0016802549362183,0.8848252296447754,3.8112545013427734,0.31763556935361564,-1.8347162918147355,-0.4463379284659158
5.198003053665161,0.4433269500732422,0.15247848629951477,0.22514498233795166,-0.9286803603172302,0.9522532820701599,3.8271524906158447,0.28310676515573513,-1.819639702519234,-0.4662738356103631
5.208024978637695,0.4311513900756836,0.1788000613451004,0.2612912654876709,-0.8231619596481323,1.0209016799926758,3.862170696258545,0.24785840272938017,-1.804918332600466,-0.48465529371886085
5.217990875244141,0.4370785355567932,0.17844226956367493,0.26191240549087524,-0.727776050567627,1.0685921907424927,3.910543918609619,0.2116659497282678,-1.7906298673248497,-0.5013991639076172
5.228108882904053,0.43601512908935547,0.16419818997383118,0.22891810536384583,-0.688647449016571,1.1187978982925415,3.9428658485412598,0.17471399556076805,-1.7767261274597654,-0.5168904753926559
5.2384538650512695,0.4157836437225342,0.1560589075088501,0.19366061687469482,-0.6806702017784119,1.1905993223190308,3.967665195465088,0.13724807220428345,-1.7628764765793876,-0.5316114264717351
5.247998952865601,0.40148741006851196,0.13879266381263733,0.1690591424703598,-0.7154346108436584,1.258790135383606,3.986607789993286,0.0993748207219892,-1.748919185759979,-0.545853198009593
5.258059024810791,0.40363091230392456,0.11829248815774918,0.16553904116153717,-0.8354765772819519,1.3003993034362793,4.020327568054199,0.06120177015397141,-1.7349122062359774,-0.5603277788731233
5.268146991729736,0.4200407862663269,0.12506835162639618,0.19715894758701324,-1.0352269411087036,1.2918171882629395,4.0743865966796875,0.022653289359806875,-1.7212736854250454,-0.5758978056231377
5.278130054473877,0.429251492023468,0.11401320993900299,0.2555352449417114,-1.2895703315734863,1.28908371925354,4.131843566894531,-0.016343347936326028,-1.7083365148864573,-0.5932896806965511
5.288140058517456,0.4101216793060303,0.07127556204795837,0.33625757694244385,-1.560439109802246,1.3544659614562988,4.203428268432617,-0.05585919147761876,-1.6958591597617765,-0.6128900246958178
5.298180103302002,0.36940401792526245,0.05573678016662598,0.3843982219696045,-1.8122271299362183,1.4427742958068848,4.2867255210876465,-0.09599137355534927,-1.6835228978776835,-0.6348387773661265
5.3078460693359375,0.35764408111572266,0.06823503971099854,0.37553417682647705,-1.8815714120864868,1.5049632787704468,4.39191198348999,-0.13722762872273483,-1.671412720922754,-0.6581031689580578
5.317861080169678,0.3739681839942932,0.05673913657665253,0.3015810251235962,-1.8727779388427734,1.5185518264770508,4.505853176116943,-0.1798086477170362,-1.6599440249877129,-0.6813221724385371
5.3281309604644775,0.3851105570793152,0.06327690184116364,0.19012689590454102,-1.791646957397461,1.535721778869629,4.567481994628906,-0.2235849873889872,-1.6491624197400274,-0.7039345795606022
5.338172912597656,0.3724794387817383,0.08352392911911011,0.11561369895935059,-1.6899442672729492,1.5504331588745117,4.600387096405029,-0.2680636475023696,-1.6389257849108794,-0.7252587774853827
5.34793496131897,0.3454119563102722,0.08801719546318054,0.07506383210420609,-1.6696054935455322,1.5683684349060059,4.6125712394714355,-0.3130840177250282,-1.629187226215981,-0.7457860093761414
5.357887029647827,0.31957048177719116,0.08595845103263855,0.11721646785736084,-1.5916696786880493,1.637553334236145,4.613398551940918,-0.35830469742004506,-1.619779691238549,-0.765780912221984
5.367975950241089,0.2788088321685791,0.052974969148635864,0.19892215728759766,-1.5139260292053223,1.7043200731277466,4.641839027404785,-0.40395138650816276,-1.6100094958490507,-0.7846057408692914
5.377974987030029,0.24811005592346191,0.039557039737701416,0.2235802412033081,-1.4654223918914795,1.7739273309707642,4.5958452224731445,-0.4496897354193415,-1.6001368489403511,-0.8027739674901853
5.389387130737305,0.21480894088745117,0.03849014639854431,0.26246678829193115,-1.4773560762405396,1.8308360576629639,4.552669525146484,-0.49510118080618426,-1.5901150562513844,-0.8205045742351695
5.397964954376221,0.20947575569152832,0.06449049711227417,0.26875460147857666,-1.4670366048812866,1.8165271282196045,4.524240970611572,-0.540322676822998,-1.580634567219734,-0.8382795330755431
5.407994031906128,0.22406351566314697,0.0879526138305664,0.2627168893814087,-1.3779977560043335,1.8262114524841309,4.494542598724365,-0.5853843454134274,-1.5715941577407901,-0.8554687806060238
5.417917013168335,0.22063332796096802,0.06499230861663818,0.23605942726135254,-1.230589509010315,1.8585819005966187,4.470677375793457,-0.6303489146017,-1.5621188334140275,-0.8711917648722174
5.428262948989868,0.21569401025772095,0.07659351825714111,0.15242791175842285,-1.0063831806182861,1.909690260887146,4.436834335327148,-0.6750997092793191,-1.5514145202514817,-0.8845729755129403
5.438135147094727,0.21175450086593628,0.12493431568145752,0.04691576957702637,-0.7158713936805725,2.006070137023926,4.403563499450684,-0.7195712374306499,-1.5381122386510877,-0.8943677594582454
5.4482269287109375,0.19627076387405396,0.152948260307312,-0.030535340309143066,-0.3546787202358246,2.1041202545166016,4.394290447235107,-0.7637797903448612,-1.5208337305615907,-0.8992565028807776
5.45819616317749,0.1892797350883484,0.15872728824615479,-0.08582514524459839,-0.026945319026708603,2.2043824195861816,4.3495001792907715,-0.807629765685751,-1.498384028475323,-0.897997829695293
5.468145847320557,0.17633134126663208,0.18818747997283936,-0.14268237352371216,0.1171262189745903,2.3247249126434326,4.259286880493164,-0.8505095041600003,-1.471130811747114,-0.8918198568541152
5.478060960769653,0.162367045879364,0.21648234128952026,-0.16128236055374146,0.1738126575946808,2.4305739402770996,4.198724269866943,-0.8923898835880649,-1.4396020772894103,-0.8817424893747987
5.488196849822998,0.16528207063674927,0.211961030960083,-0.14755737781524658,0.033946625888347626,2.5243418216705322,4.120766639709473,-0.9334012302343436,-1.40546564833875,-0.8699895276215083
5.498158931732178,0.15907764434814453,0.19030404090881348,-0.09568250179290771,-0.11749535799026489,2.538933515548706,4.067235946655273,-0.9737493244910621,-1.3701460252330104,-0.8578187880447562
5.508193016052246,0.16562873125076294,0.10234242677688599,-0.07185018062591553,-0.19528231024742126,2.531015396118164,4.038331985473633,-1.0137094374527296,-1.3337112931693393,-0.8446211807022906
5.518265008926392,0.18453684449195862,0.013084769248962402,-0.07147538661956787,-0.09994538873434067,2.545433759689331,4.031524181365967,-1.0531682814685943,-1.2936194230293998,-0.8275278526310914
5.528210163116455,0.21867352724075317,0.024734437465667725,-0.149372860789299,0.09873741865158081,2.5395772457122803,4.0087785720825195,-1.0916528838679014,-1.246344133135626,-0.8027305644812768
5.538221836090088,0.2563265860080719,0.12064230442047119,-0.265810489654541,0.45362573862075806,2.5421841144561768,3.9643914699554443,-1.1281805809855947,-1.1879811027278162,-0.7659857588172265
5.5482940673828125,0.2744385302066803,0.18462496995925903,-0.35011565685272217,0.8024249076843262,2.5593082904815674,3.8976187705993652,-1.1615621673487446,-1.1141793671521654,-0.7130051612438079
5.55830192565918,0.2840687334537506,0.2410517930984497,-0.393540620803833,1.0872151851654053,2.550920009613037,3.8071868419647217,-1.1908565575370387,-1.0241219994648723,-0.6432101835371125
5.5683369636535645,0.2921251654624939,0.2835841178894043,-0.3750791549682617,1.384503722190857,2.5118472576141357,3.752119541168213,-1.2150697238501327,-0.9167263517747143,-0.5553243586394856
5.578317165374756,0.2922990322113037,0.2500787377357483,-0.35198020935058594,1.602233648300171,2.4597270488739014,3.7129857540130615,-1.2334355604828808,-0.7924874427130643,-0.44972272856823764
5.588479042053223,0.2748042345046997,0.18316179513931274,-0.3070296049118042,1.6040868759155273,2.378094434738159,3.6409952640533447,-1.2457040899296257,-0.6566081819032554,-0.3316701768084411
5.598351955413818,0.25412148237228394,0.12624943256378174,-0.24379214644432068,1.5054526329040527,2.3018746376037598,3.5314602851867676,-1.2526944574309562,-0.5175507746572859,-0.20980221787956305
5.608376979827881,0.2539636492729187,0.07648378610610962,-0.17709267139434814,1.3646703958511353,2.2296183109283447,3.431520938873291,-1.2547718712233984,-0.37999312472495667,-0.0889126859771762
5.618291854858398,0.2818398177623749,0.07064944505691528,-0.18973469734191895,1.1408082246780396,2.1988320350646973,3.3583693504333496,-1.2533198981094105,-0.24738602128396253,0.027315674756913447
5.6284379959106445,0.3221313953399658,0.1329626441001892,-0.217218816280365,0.9049832224845886,2.163222312927246,3.3449270725250244,-1.249347373815835,-0.12012134306402487,0.13834915217029967
5.638740062713623,0.3475181758403778,0.15253055095672607,-0.26802563667297363,0.6307042837142944,2.1174843311309814,3.3706939220428467,-1.2436297659156723,0.002328982332420308,0.24496545374711767
5.6484761238098145,0.338929682970047,0.12782704830169678,-0.2899054288864136,0.36334046721458435,2.092116117477417,3.4336776733398438,-1.236532863848307,0.12164068629635742,0.34881722746103255
5.658458948135376,0.3172406256198883,0.10075414180755615,-0.2849542796611786,0.12038587778806686,2.052530527114868,3.468437671661377,-1.2279980196639095,0.23781135190645464,0.44996334275437005
5.668411016464233,0.2983049750328064,0.07033717632293701,-0.26602232456207275,-0.14166323840618134,1.9610543251037598,3.4964425563812256,-1.2178998164733121,0.35002444098387553,0.5479164542106325
5.678515911102295,0.28258955478668213,0.033059000968933105,-0.239088237285614,-0.4141770601272583,1.7939952611923218,3.4934144020080566,-1.2067684001681824,0.4578653074095748,0.6429748200350223
5.68861198425293,0.265323281288147,-0.029765188694000244,-0.1823723316192627,-0.5846035480499268,1.6477570533752441,3.475656270980835,-1.1941725304583857,0.5600284481009448,0.7340470371389288
5.698483943939209,0.24939097464084625,-0.09997439384460449,-0.1441783308982849,-0.6800448298454285,1.4593602418899536,3.4510703086853027,-1.1795571974701844,0.6550676685518557,0.8197340156648987
5.708574056625366,0.2517428696155548,-0.09462255239486694,-0.14196258783340454,-0.7851355671882629,1.2521522045135498,3.430284261703491,-1.1630511615975716,0.7423789272711909,0.8997878483646506
5.718470096588135,0.2771383225917816,-0.027152419090270996,-0.14605802297592163,-0.8148524761199951,1.0909690856933594,3.452134132385254,-1.1444522043719914,0.822050996173304,0.9740888270385216
5.7285449504852295,0.2966042459011078,0.02962350845336914,-0.18569141626358032,-0.8052206635475159,0.9397406578063965,3.5116121768951416,-1.123395505951303,0.8942064842626827,1.0424920879208146
5.738687992095947,0.29878130555152893,0.07487237453460693,-0.22832658886909485,-0.7669968605041504,0.8311800956726074,3.5902273654937744,-1.0996971193867586,0.9589207883180733,1.1048415476411688
5.748569011688232,0.2869642972946167,0.11830216646194458,-0.255743145942688,-0.7246256470680237,0.7607168555259705,3.668621778488159,-1.0734666672434292,1.016803056880118,1.1612130249976678
5.758552074432373,0.27028220891952515,0.13895130157470703,-0.2711031436920166,-0.6516472697257996,0.7152058482170105,3.7873547077178955,-1.0447564265089915,1.0683084251572295,1.2118057248018161
5.768573045730591,0.26725462079048157,0.13677066564559937,-0.28564655780792236,-0.5977616906166077,0.6960407495498657,3.8612232208251953,-1.0135278318865206,1.114122336718244,1.2569276111081775
5.7786500453948975,0.2668176293373108,0.13669216632843018,-0.3040473461151123,-0.5114632844924927,0.6399838328361511,3.873152732849121,-0.9808021053944508,1.1539943753585393,1.2964141863698406
5.788907051086426,0.26525455713272095,0.1412358283996582,-0.2859853506088257,-0.414236843585968,0.5792691707611084,3.8641762733459473,-0.9468843072374759,1.187948508574748,1.3303307416513566
5.7986860275268555,0.2892305254936218,0.1727328896522522,-0.24570012092590332,-0.2953647971153259,0.5208042860031128,3.8143436908721924,-0.9122871381967357,1.2164867628458405,1.3590597984975246
5.808706998825073,0.30094510316848755,0.22666049003601074,-0.20875708758831024,-0.19267453253269196,0.4489947557449341,3.699921131134033,-0.8776188977455676,1.240010842864549,1.3829665057480331
5.818574905395508,0.3069528341293335,0.2977294921875,-0.185490220785141,-0.08892842382192612,0.3665938973426819,3.5260701179504395,-0.8437125855597053,1.258965088352317,1.402553368867227
5.829276084899902,0.2984350323677063,0.36141300201416016,-0.15864168107509613,0.017981741577386856,0.2830089032649994,3.3058433532714844,-0.8111635530285802,1.2737189666626838,1.4182105060208026
5.838953971862793,0.2728095054626465,0.40802526473999023,-0.12407165765762329,0.11494024097919464,0.24156984686851501,3.054208278656006,-0.780462259797529,1.2849999324745969,1.4303601627544822
5.848751068115234,0.22611963748931885,0.43531304597854614,-0.10116778314113617,0.19098816812038422,0.24436545372009277,2.7942874431610107,-0.7519086122279808,1.293802258876125,1.4395673643140072
5.858634948730469,0.17328745126724243,0.4448169469833374,-0.09460441768169403,0.22912463545799255,0.24151666462421417,2.5046041011810303,-0.7257591752758996,1.300930598936456,1.4464961072619187
5.868657112121582,0.12885451316833496,0.43936777114868164,-0.09322349727153778,0.27714383602142334,0.2389749437570572,2.233063220977783,-0.702239325263145,1.3066209440279484,1.4515680759646163
5.878655910491943,0.09028834104537964,0.4109247922897339,-0.09711305797100067,0.3663322925567627,0.24941374361515045,1.9384828805923462,-0.6812181675533814,1.3109599991910554,1.4545471768046117
5.888832092285156,0.05801469087600708,0.3774447441101074,-0.10395632684230804,0.46050167083740234,0.2800595462322235,1.6771188974380493,-0.6626982274795146,1.3141351535258732,1.4553912851506818
5.898700952529907,0.048532724380493164,0.37920254468917847,-0.10394519567489624,0.584926426410675,0.2937772274017334,1.430190086364746,-0.646345728480981,1.316128276519805,1.4539341968082886
5.908687114715576,0.04945194721221924,0.3861428499221802,-0.10261839628219604,0.7096486687660217,0.31263986229896545,1.219356894493103,-0.631881215259659,1.3169976155859908,1.4502940581644195
5.918706893920898,0.03580880165100098,0.39340686798095703,-0.09988752007484436,0.8349144458770752,0.33041858673095703,1.0340989828109741,-0.6190435653418984,1.3167982933056772,1.444506835830309
5.929115056991577,0.012504875659942627,0.40936416387557983,-0.10225081443786621,0.9165071845054626,0.3392825722694397,0.8788619041442871,-0.6075720169301044,1.3158691078879048,1.4370482285324595
5.939224004745483,-0.008305251598358154,0.4390394687652588,-0.10009720921516418,0.9738871455192566,0.34620970487594604,0.7554395794868469,-0.597279306433995,1.3144052123637455,1.4284241645677627
5.949156045913696,-0.031826019287109375,0.44718772172927856,-0.0906212329864502,1.0129270553588867,0.351978063583374,0.6599454879760742,-0.5878975132894586,1.3126240309191652,1.4189979580955698
5.959043979644775,-0.06087774038314819,0.4306526780128479,-0.081390380859375,1.0244207382202148,0.3632935583591461,0.5733035206794739,-0.5793150985060302,1.3107221128739075,1.4090548854188036
5.96916389465332,-0.09416645765304565,0.40533459186553955,-0.07929369807243347,1.014083743095398,0.386350154876709,0.4902895390987396,-0.5715534117960415,1.3089715951428738,1.398940536285257
5.978899002075195,-0.11722397804260254,0.3867884874343872,-0.08793321251869202,1.0255297422409058,0.4006483852863312,0.42489880323410034,-0.5644837778182568,1.3073953153074243,1.3886629796267984
5.98916482925415,-0.12110066413879395,0.36597079038619995,-0.09348899126052856,1.0449104309082031,0.4027844965457916,0.3600369989871979,-0.5580006924006596,1.305792437460736,1.3780591591757965
5.999068975448608,-0.11679363250732422,0.3550967574119568,-0.09133785963058472,1.0703561305999756,0.3979306221008301,0.31000685691833496,-0.5519977058017909,1.3039967600079923,1.3670586269248348
6.00913405418396,-0.11133837699890137,0.3546373248100281,-0.08179198205471039,1.0950701236724854,0.39591631293296814,0.2699570655822754,-0.5463108771579013,1.3020280692070776,1.3556882178904512
6.019031047821045,-0.10943096876144409,0.34712672233581543,-0.06243634223937988,1.1054264307022095,0.3793748915195465,0.2193540781736374,-0.541037234118536,1.2998668411562968,1.344047650465922
6.029145956039429,-0.110495924949646,0.32657724618911743,-0.03318750858306885,1.1333990097045898,0.3761660158634186,0.19578036665916443,-0.5360377631672283,1.2975474256538624,1.332114827210012
6.039096832275391,-0.10134315490722656,0.3072340488433838,-0.006237030029296875,1.1527817249298096,0.36712512373924255,0.17171284556388855,-0.5311229276524511,1.2950283661821769,1.3198777209335855
