timestamp,accel_x,accel_y,accel_z,rotation_x,rotation_y,rotation_z, pitch,roll,yaw
0.046617984771728516,0.008168108761310577,-0.013061776757240295,0.009854316711425781,-0.03253602981567383,0.0014749211259186268,0.021737942472100258,-0.09420994569680914,0.08317750387727045,0.003923231012134658
0.05966520309448242,0.006103403866291046,-0.01295258104801178,0.00882023572921753,-0.0322745107114315,0.0029617641121149063,0.025278881192207336,-0.09443745635899349,0.08324562851533959,0.0041815327800677005
0.060993194580078125,0.008689522743225098,-0.010880649089813232,0.009817838668823242,-0.0202530175447464,-0.00044801412150263786,0.02893763966858387,-0.09462466855930723,0.08333194823745664,0.004477736422581185
0.06191515922546387,0.00717528909444809,-0.005354009568691254,0.008843958377838135,-0.009123401716351509,-0.00512372562661767,0.029029252007603645,-0.09471365067959382,0.08338244203780966,0.004785790801096021
0.06919312477111816,0.008217960596084595,-0.002540111541748047,0.010058939456939697,-0.007011198438704014,-0.0016494104638695717,0.028262367472052574,-0.09473799484225247,0.08342366955117061,0.005089117876402025
0.07802319526672363,0.005965128540992737,-0.006547719240188599,0.010478019714355469,-0.012815024703741074,-0.0013492726720869541,0.031161753460764885,-0.09474785355127921,0.08351051212192068,0.0054046219404600805
0.08818221092224121,0.0015099495649337769,-0.008767828345298767,0.00897306203842163,-0.018714874982833862,0.004818653222173452,0.0302853062748909,-0.09475546822898201,0.08361785249379491,0.005732997601593634
0.09804201126098633,0.0007956698536872864,-0.009936593472957611,0.008163273334503174,-0.022021988406777382,0.004861264023929834,0.03268587961792946,-0.09479526215097853,0.08376908252844228,0.006077338349795454
0.10816526412963867,0.0008014068007469177,-0.012514255940914154,0.006464183330535889,-0.023555420339107513,0.005483511369675398,0.03525439277291298,-0.09485549398797985,0.08394834884997375,0.0064472301113298516
0.11809921264648438,0.0008460953831672668,-0.009711585938930511,0.0074656009674072266,-0.02992437034845352,0.0015489573124796152,0.04081187769770622,-0.09495243287306873,0.08408867341353791,0.006856601976735847
0.12818431854248047,0.0004769563674926758,-0.008799448609352112,0.007968723773956299,-0.03668630123138428,0.0019768383353948593,0.0432644858956337,-0.0951397791926505,0.08424695389200179,0.007311934689510729
0.13842511177062988,0.0011358410120010376,-0.009300999343395233,0.0088423490524292,-0.04579458013176918,0.001528894528746605,0.0492779016494751,-0.0954596669313076,0.08438520287032594,0.007819303758517842
0.14832210540771484,0.002879105508327484,-0.010488219559192657,0.006109058856964111,-0.044910408556461334,-0.0021792910993099213,0.05589106306433678,-0.09583990486833406,0.08452294857931365,0.008392476318367469
0.15848922729492188,0.004642583429813385,-0.006271332502365112,0.005907773971557617,-0.0408078096807003,-0.010785029269754887,0.061963606625795364,-0.09614100722157636,0.08457815785209057,0.009025946052792616
0.16841506958007812,0.007655970752239227,-0.002290859818458557,0.004075229167938232,-0.04106074571609497,-0.02039327099919319,0.06566225737333298,-0.09638836717859241,0.0844957910420857,0.009705323652852803
0.17834901809692383,0.008416451513767242,-0.00015575438737869263,0.003119349479675293,-0.044696491211652756,-0.027021879330277443,0.06605720520019531,-0.09663478558001962,0.08433105910168018,0.010400719559199629
0.18834614753723145,0.011112622916698456,-0.0012951716780662537,0.0047419071197509766,-0.054790474474430084,-0.029721258208155632,0.06352885067462921,-0.09692104205633949,0.08412268671942966,0.011090228773643289
0.19837617874145508,0.008065745234489441,-0.002156205475330353,0.005908071994781494,-0.0656236782670021,-0.02977185882627964,0.05790425464510918,-0.09735689128118978,0.083905944656593,0.011752912961385208
0.20835113525390625,0.005464367568492889,-0.005297966301441193,0.00758206844329834,-0.07078192383050919,-0.025680091232061386,0.055112410336732864,-0.09789194402302828,0.08370239277734916,0.012373841461065155
0.21829819679260254,0.0035966187715530396,-0.004856675863265991,0.007806181907653809,-0.06546039879322052,-0.028494253754615784,0.055660489946603775,-0.09841447357599352,0.08351291291169144,0.01299029583843128
0.22830629348754883,0.004259116947650909,-0.0017156526446342468,0.009230494499206543,-0.05340709164738655,-0.031195318326354027,0.05780044570565224,-0.0988307580917266,0.08332528006436916,0.013610474424306396
0.23865318298339844,0.004532307386398315,0.00138188898563385,0.012492835521697998,-0.04053124040365219,-0.02742880769073963,0.05973230302333832,-0.0991681049453184,0.08314491263574872,0.014242164487465984
0.24828529357910156,0.005444645881652832,0.0034134313464164734,0.013559341430664062,-0.028924651443958282,-0.02303086593747139,0.06593294441699982,-0.09941132265423133,0.08305782983173447,0.01490865756861925
0.2583761215209961,0.00467478483915329,0.003343731164932251,0.010891139507293701,-0.024259326979517937,-0.01900762878358364,0.06520935893058777,-0.09958871494986021,0.08300472863637233,0.015607368625839415
0.26891016960144043,0.005644187331199646,0.0023074746131896973,0.00958019495010376,-0.019195059314370155,-0.017473913729190826,0.06450575590133667,-0.0997100344500468,0.08302833792456335,0.01628680549953148
0.2783341407775879,0.008771747350692749,0.002259552478790283,0.01123952865600586,-0.01167429331690073,-0.01966170035302639,0.05595247820019722,-0.09977354487386272,0.0829986001890888,0.01691337917356844
0.28916501998901367,0.009219489991664886,0.004258550703525543,0.01151818037033081,-0.013384176418185234,-0.016571544110774994,0.04526451975107193,-0.09978877978444958,0.08293188751080294,0.017440732215835357
0.2985363006591797,0.007705777883529663,0.0029735565185546875,0.011605024337768555,-0.02233266457915306,-0.012747245840728283,0.03287282958626747,-0.09988405828204294,0.0828742438077217,0.017854777421301822
0.30859899520874023,0.0029740110039711,-0.00047037750482559204,0.010573387145996094,-0.03606237471103668,-0.00680133979767561,0.02385648898780346,-0.10014019325619404,0.08286255161135717,0.01817191908692106
0.31846117973327637,0.0003501027822494507,-0.003653228282928467,0.010835111141204834,-0.0451328344643116,-0.0033927597105503082,0.015537039376795292,-0.10054799195840157,0.08289613188579706,0.01841222027539743
0.3285250663757324,-0.0003501325845718384,-0.00411466509103775,0.011848390102386475,-0.0463545098900795,-0.00047176098451018333,0.008666988462209702,-0.1010424430194181,0.08296015222630305,0.01857870904692363
0.33870816230773926,-0.0010223686695098877,-0.005973756313323975,0.010057568550109863,-0.03602916747331619,0.003470782656222582,0.008820919319987297,-0.10148474455316518,0.08304171079975349,0.01871118476180265
0.3485751152038574,-0.003517717123031616,-0.005062982439994812,0.009728193283081055,-0.018938731402158737,0.009334886446595192,0.008397583849728107,-0.10176560318149341,0.0831754592851679,0.018837943934956084
0.35861825942993164,-0.0032965242862701416,-0.002592220902442932,0.006676852703094482,-0.0085486751049757,0.009634491056203842,0.007415410131216049,-0.10190481992876348,0.0833691021793507,0.018941425552340945
0.36858129501342773,-0.0024353861808776855,-0.0033648014068603516,0.004346907138824463,-0.002177993766963482,0.01769951917231083,0.005266930907964706,-0.10197586971567754,0.08359388637107834,0.019016310797853462
0.3785552978515625,-0.004614472389221191,-0.005829446017742157,0.0027182698249816895,-0.00026664300821721554,0.02420136146247387,0.00318167544901371,-0.10199922796212604,0.08388359436563293,0.019076212564077294
0.38890600204467773,-0.00504765659570694,-0.0069398581981658936,0.00010228157043457031,-0.0008605113252997398,0.02123153582215309,-0.00022115156752988696,-0.10199572050874767,0.08415123121240756,0.01907418420331777
0.3985881805419922,-0.002199336886405945,-0.010584421455860138,-0.003006458282470703,0.0014100996777415276,0.015528377145528793,0.0021796883083879948,-0.10196274779479801,0.08432539359564754,0.0190881284957549
0.4085831642150879,-0.003307946026325226,-0.010966859757900238,-0.0036383867263793945,0.0019032005220651627,0.01537981815636158,-0.00010125606786459684,-0.1019023689990496,0.08447347469133235,0.019098156152664556
0.418546199798584,-0.0011700838804244995,-0.009422406554222107,-0.0048947930335998535,4.564574919641018e-05,0.012967260554432869,0.000484639429487288,-0.10185302227440272,0.08459454274990365,0.019092683460053213
0.43081021308898926,-0.0018249750137329102,-0.01381479948759079,-0.006501495838165283,-0.00394082348793745,0.010362200438976288,0.0045790895819664,-0.10183552741519612,0.08467010688885097,0.01912160777559237
0.4391512870788574,-0.005855783820152283,-0.01376933604478836,-0.00945347547531128,-0.0031573213636875153,0.00721434410661459,0.009010323323309422,-0.10185119146748371,0.08473432980825472,0.01919140528223886
0.4485750198364258,-0.0043979212641716,-0.01390230655670166,-0.008020579814910889,-0.002769365208223462,0.0008010081946849823,0.01301832776516676,-0.10184681120828976,0.08475673382125912,0.019299038452329366
0.45876026153564453,-0.004971854388713837,-0.014861874282360077,-0.004501819610595703,-0.001337916124612093,-0.0052760592661798,0.019336411729454994,-0.10179904752144533,0.084704186226874,0.019447382898957633
0.46868014335632324,-0.0051130130887031555,-0.013767682015895844,-0.0018200874328613281,-0.008636292070150375,-0.009147895500063896,0.021900661289691925,-0.10177283250837334,0.08460006293355472,0.019652973862072702
0.47875308990478516,-0.004489496350288391,-0.013273350894451141,-0.002178668975830078,-0.019541671499609947,-0.014424150809645653,0.024310555309057236,-0.10179742805062508,0.08447924286856993,0.019894337993006477
0.48978328704833984,-0.004227645695209503,-0.013778813183307648,-0.0008326172828674316,-0.025451723486185074,-0.01880744844675064,0.02417212538421154,-0.10190672539408764,0.0843083936278193,0.02015504857606067
0.4987301826477051,-0.004268646240234375,-0.012672841548919678,0.002312958240509033,-0.0254202987998724,-0.024900494143366814,0.027457667514681816,-0.10205272230014835,0.08410471917920034,0.020437589261904823
0.5088672637939453,-0.0030171573162078857,-0.009231314063072205,0.0035195350646972656,-0.01691148243844509,-0.030062898993492126,0.030935917049646378,-0.10210574934946028,0.08384323441216156,0.020749628206390862
0.5186591148376465,-0.0003531649708747864,-0.00158633291721344,0.0014875531196594238,-0.011090612038969994,-0.030228547751903534,0.03186269477009773,-0.10209007466679701,0.0835262089465626,0.021070997544072406
0.5287981033325195,-7.838010787963867e-06,0.003521956503391266,0.0024935007095336914,-0.01045320089906454,-0.03114241175353527,0.034221351146698,-0.10204748396909569,0.08322367662781188,0.021409140558899174
0.5389771461486816,8.784234523773193e-06,0.00374506413936615,0.0013759136199951172,-0.017130011692643166,-0.027252862229943275,0.0273732990026474,-0.10202261144844393,0.08292965178646541,0.02173120405952236
0.5487921237945557,0.0011870712041854858,0.004510477185249329,0.005798935890197754,-0.024723265320062637,-0.022136444225907326,0.024785079061985016,-0.10208147936261411,0.08269588761987061,0.022012390416442117
0.5587320327758789,-0.0015495121479034424,0.002126634120941162,0.00812387466430664,-0.029464758932590485,-0.01999552920460701,0.02041030488908291,-0.102207681994079,0.08247139860802276,0.02226101792582121
0.568756103515625,-0.0013209953904151917,0.004479564726352692,0.011312365531921387,-0.029729610309004784,-0.01996605470776558,0.01335282064974308,-0.10237330785861755,0.08227307868393076,0.022445716275184494
0.5788230895996094,-0.001105770468711853,0.00369909405708313,0.014559507369995117,-0.0336226187646389,-0.020788438618183136,0.008890694007277489,-0.10257500844042433,0.08205769239250965,0.022586207956711644
0.5890631675720215,-0.0033552423119544983,0.0034274235367774963,0.016986966133117676,-0.04214794561266899,-0.01758452318608761,0.0004557706415653229,-0.10286346370947144,0.08186653908420108,0.02266356671213304
0.5988903045654297,-0.0029705464839935303,0.002611711621284485,0.018820762634277344,-0.06841443479061127,-0.012012658640742302,-0.010714325122535229,-0.10339205824718066,0.08172923577273022,0.022656368770636415
0.6090550422668457,-0.004654526710510254,-0.0005608648061752319,0.019519388675689697,-0.10404899716377258,0.01690651848912239,-0.017851969227194786,-0.10431129815465205,0.08172726301481006,0.02258537610614559
0.618988037109375,-0.00421847403049469,-0.0034930557012557983,0.016449451446533203,-0.08883622288703918,0.005012575536966324,-0.007006513420492411,-0.10528040305601494,0.08183448492707197,0.02253878683343707
0.629033088684082,-0.0068819522857666016,-0.0034281089901924133,0.011737525463104248,-0.06611233949661255,0.004963573534041643,-0.02042495831847191,-0.10607438744961772,0.0818961181676832,0.022444368577702378
0.6391019821166992,0.0007704347372055054,0.006153710186481476,0.012332499027252197,-0.047839052975177765,-0.0006940457969903946,-0.013167576864361763,-0.10664288084027065,0.08190869376989536,0.022333255864083038
0.6490650177001953,-0.0011037364602088928,0.00968863070011139,0.011481642723083496,-0.030819891020655632,-0.0037065246142446995,-0.01687922514975071,-0.10706237208036017,0.08187889896149414,0.022216044010591993
0.6588711738586426,0.0006713420152664185,0.010259278118610382,0.009964287281036377,-0.01902448572218418,-0.007336413022130728,-0.010205342434346676,-0.10731717221114473,0.0818144587723746,0.022096908657415957
0.6689891815185547,0.0007583051919937134,0.010888099670410156,0.007577776908874512,-0.027938934043049812,0.0017225504852831364,-0.015988556668162346,-0.10755949405475966,0.08175963513343626,0.021981742802904006
0.6790151596069336,-0.0017201229929924011,0.006847403943538666,0.00780177116394043,-0.03714361786842346,5.61075285077095e-06,-0.014305705204606056,-0.10789424850432239,0.08175376640219889,0.021863589545191135
0.6891801357269287,-0.004182659089565277,0.001722387969493866,0.004145264625549316,-0.047823790460824966,-0.0026010023429989815,-0.014078909531235695,-0.10830670057907446,0.08170175380214524,0.021765272581425927
0.6988883018493652,-0.0013827532529830933,0.000691629946231842,0.004876077175140381,-0.05836271867156029,-0.007185634225606918,-0.011568081565201283,-0.10880633898239987,0.081621586670533,0.021672074921637603
0.7091231346130371,-0.001395002007484436,-0.0017923042178153992,0.0034492015838623047,-0.0645047202706337,-0.009555891156196594,-0.012575982138514519,-0.1094017243702556,0.08148527099499553,0.021590961452673314
0.7190852165222168,-0.0007995665073394775,-0.0020035281777381897,0.007105410099029541,-0.06409113109111786,-0.013516811653971672,-0.014690265990793705,-0.1100901144682612,0.08138330526511459,0.021510735396325604
0.7298731803894043,-0.001435995101928711,-0.0038051605224609375,0.006312668323516846,-0.05295873433351517,-0.01521950215101242,-0.013340788893401623,-0.11075137329575123,0.08123076604414702,0.0214261703823798
0.7397441864013672,-0.00020992755889892578,-6.46933913230896e-05,0.003964900970458984,-0.036695078015327454,-0.0245517510920763,-0.012855027802288532,-0.11127130844186559,0.08106061957822094,0.021324355688032922
0.7491602897644043,0.0010192394256591797,0.002677246928215027,0.006519794464111328,-0.033380020409822464,-0.030930155888199806,-0.020415954291820526,-0.11169054139862229,0.08077860208081834,0.02119097444570287
0.759101152420044,-0.00020731240510940552,0.0028170645236968994,0.010708749294281006,-0.0417410172522068,-0.025103427469730377,-0.02247937209904194,-0.11211796260123992,0.08046488149968145,0.021010681675110714
0.769024133682251,0.0011750012636184692,-0.002570606768131256,0.009249269962310791,-0.04107118025422096,-0.0222293883562088,-0.017813941463828087,-0.11253389543705129,0.08019765798565714,0.02084823657416295
0.7790541648864746,-0.0005311369895935059,-0.004850037395954132,0.005425691604614258,-0.039456505328416824,-0.023458169773221016,-0.015434672124683857,-0.11292369759877409,0.07995183099690469,0.020712808813349314
0.7892370223999023,0.0008200034499168396,-0.0030571669340133667,0.0033468008041381836,-0.03765570744872093,-0.025534458458423615,-0.011696872301399708,-0.11326927894540513,0.07970003555747861,0.020599452875429917
0.799138069152832,0.0025842711329460144,-0.004388175904750824,0.005565524101257324,-0.04943167418241501,-0.029109753668308258,-0.011387679725885391,-0.11367208952290313,0.07943219365073678,0.020516224981051066
0.8090682029724121,0.0019410401582717896,-0.0072419121861457825,0.01246035099029541,-0.062442418187856674,-0.021393155679106712,-0.020059891045093536,-0.11414853667186012,0.07916158661391334,0.02042552733356731
0.8260922431945801,0.0030930712819099426,-0.007618449628353119,0.014097332954406738,-0.09019574522972107,-0.00725150341168046,-0.020909970626235008,-0.11498835488131015,0.07905369770764804,0.020250624234030193
0.8340191841125488,0.000322878360748291,-0.018812425434589386,0.014989674091339111,-0.08033401519060135,-0.02971300110220909,-0.02791254036128521,-0.11585790539364547,0.07885438378912472,0.02010669643952827
0.8411970138549805,0.0035801157355308533,-0.01294729858636856,0.020211517810821533,-0.10126219689846039,-0.044910330325365067,-0.042979639023542404,-0.1167585110158361,0.07845481701319625,0.01980341622401321
0.8490800857543945,0.007340282201766968,-0.015963152050971985,0.03149491548538208,-0.1480030119419098,-0.06120416894555092,-0.0601537823677063,-0.11799761401228416,0.07787405920151821,0.019388756197773426
0.859255313873291,0.002473503351211548,-0.021239683032035828,0.038771867752075195,-0.18381400406360626,-0.07730085402727127,-0.07552288472652435,-0.11965421722895907,0.07713336533096204,0.018836720806915463
0.8692412376403809,0.007380172610282898,-0.02925819903612137,0.033485233783721924,-0.2156924307346344,-0.09350236505270004,-0.08520549535751343,-0.12169086126120611,0.07621871327232026,0.018171240680083002
0.8792252540588379,0.0089346244931221,-0.029504120349884033,0.02790379524230957,-0.10946959257125854,-0.04536626487970352,-0.025859883055090904,-0.12339916792818312,0.07543490257879837,0.017679156316448962
0.8894741535186768,0.011685438454151154,-0.00946420431137085,0.010461211204528809,-0.02746141329407692,-0.005851435009390116,0.030955089256167412,-0.12383991077125481,0.07514177941601129,0.01772332074825856
0.8992390632629395,-0.0035223960876464844,-0.0014598816633224487,-0.016809046268463135,-0.1661367416381836,0.00873310025781393,-0.000596976897213608,-0.12446159617988987,0.0751732308731513,0.018085149915305535
0.909325122833252,-0.011698730289936066,0.00044326484203338623,-0.009975314140319824,-0.5204148888587952,0.032295726239681244,-0.12772920727729797,-0.12780350560135237,0.0753107463585259,0.017618348233694875
0.9192161560058594,-0.005556628108024597,-0.07034860551357269,0.012086868286132812,-0.7416087985038757,0.05525990203022957,-0.13309307396411896,-0.13425863395979717,0.07572194695208188,0.016798750218717583
0.9292421340942383,-0.029543712735176086,-0.10221344232559204,0.03016108274459839,-0.8330972194671631,-0.007837619632482529,-0.20219752192497253,-0.14210465545471776,0.07589779836222231,0.015756606992774553
0.9395532608032227,0.011607952415943146,-0.05607941746711731,0.010247230529785156,-0.9725379347801208,-0.010302908718585968,-0.2684181034564972,-0.15110565916133656,0.07552039645154449,0.01403731382769917
0.9493231773376465,0.010656535625457764,-0.010640457272529602,0.0030946731567382812,-1.1522246599197388,-0.004765353165566921,-0.31113848090171814,-0.16185893533630819,0.0751581765731474,0.011958573854084694
0.9593319892883301,-0.0028361231088638306,-0.039971113204956055,-0.01303720474243164,-1.4258981943130493,0.0021942853927612305,-0.3830723464488983,-0.1749565203557519,0.07469290911418018,0.009391646162825621
0.9692440032958984,-0.008817054331302643,-0.07394720613956451,-0.009988129138946533,-1.738463044166565,0.006075709592550993,-0.414278507232666,-0.19104344054119704,0.07424536841044413,0.006566229345380965
0.9794859886169434,-0.004943273961544037,-0.09228779375553131,-0.008735179901123047,-1.9634913206100464,-0.0024935435503721237,-0.4588470458984375,-0.2099928766738065,0.07365832017289833,0.003502873493560341
0.9902501106262207,0.002885378897190094,-0.10766331851482391,-0.023411154747009277,-1.9211857318878174,-0.07218678295612335,-0.43502309918403625,-0.2298759664445138,0.07265051144089574,0.0003620471173828708
0.9994192123413086,0.015090815722942352,-0.07421563565731049,-0.03561079502105713,-1.6885908842086792,-0.1654331088066101,-0.4306512475013733,-0.24823545349241363,0.0707532918102303,-0.0026839235070644832
1.009397029876709,0.028929971158504486,-0.011450320482254028,-0.04464304447174072,-1.5292259454727173,-0.22035712003707886,-0.47817525267601013,-0.2645560616651564,0.0678725277302362,-0.006239196797038779
1.019388198852539,0.013331934809684753,0.009272903203964233,-0.04794830083847046,-1.4003726243972778,-0.2614065408706665,-0.4960687756538391,-0.27947681425116405,0.06438914282361875,-0.010269087940005984
1.029400110244751,0.002611905336380005,0.003695458173751831,-0.04522150754928589,-1.2473371028900146,-0.3278101682662964,-0.4985644221305847,-0.29303719148190993,0.060264199495155116,-0.014625299210228261
1.0393643379211426,-0.007127486169338226,-0.0014714598655700684,-0.044899940490722656,-1.1051263809204102,-0.3489535450935364,-0.5084269046783447,-0.30508668916827164,0.055477607048268936,-0.01916408095890447
1.0494012832641602,-0.02152516320347786,0.017637908458709717,-0.033618152141571045,-0.8485443592071533,-0.30201074481010437,-0.5189718008041382,-0.31527198854755956,0.05070187102113763,-0.02404984150208681
1.0594000816345215,-0.03027581423521042,0.054273903369903564,-0.06340646743774414,-0.42863816022872925,-0.2822604775428772,-0.498518705368042,-0.32194036514064256,0.04621559857575049,-0.029014684569047166
1.0693602561950684,-0.055952996015548706,0.08568766713142395,-0.08950561285018921,0.10631351172924042,-0.13417181372642517,-0.5269865393638611,-0.3239238330486013,0.0422954003017991,-0.03437930125423268
1.079402208328247,-0.06925731152296066,0.1370401382446289,-0.0932803750038147,0.9673762917518616,0.01987661048769951,-0.4704236686229706,-0.318995522372565,0.04008552748774803,-0.03990507891112315
1.089487075805664,-0.07884693145751953,0.18092626333236694,-0.1460384726524353,2.241286277770996,0.09204849600791931,-0.3936486542224884,-0.30339750052776115,0.03899616304597084,-0.04510020545281642
1.099351167678833,-0.09108278155326843,0.31420275568962097,-0.17703866958618164,4.033424377441406,0.20975196361541748,-0.24761928617954254,-0.27238982275132295,0.03946223226850063,-0.049812033374273236
1.1094412803649902,-0.08026618510484695,0.47149208188056946,-0.18763941526412964,5.856171607971191,0.04209079220890999,-0.14739692211151123,-0.2228684502267913,0.03966176950116607,-0.05376028223974139
1.1219019889831543,-0.08625926077365875,0.6480833888053894,-0.1895134449005127,7.270315170288086,0.025471599772572517,-0.12899313867092133,-0.1569269465000748,0.03917356957143005,-0.057814488663535425
1.1296939849853516,-0.05364764854311943,0.7096201181411743,-0.07444173097610474,8.288281440734863,0.03320994973182678,-0.16382579505443573,-0.07889854516299616,0.03902363530477237,-0.06231344641902796
1.1397652626037598,-0.062445856630802155,0.6060650944709778,-0.01353001594543457,8.791338920593262,-0.11020607501268387,-0.26173505187034607,0.0068220317409859125,0.038347223740701424,-0.06767512545915758
1.1498281955718994,-0.05348949879407883,0.5977022647857666,0.07154810428619385,8.72739028930664,-0.10224339365959167,-0.4410856366157532,0.09470050627005937,0.03770662114557137,-0.0745585356797193
1.1598031520843506,-0.0005881935358047485,0.5475207567214966,0.1837749481201172,8.089770317077637,-0.051582884043455124,-0.7031947374343872,0.1788592452947152,0.038038723341933464,-0.08354016764930933
1.1742122173309326,-0.01798543706536293,0.39213722944259644,0.18681710958480835,7.048699378967285,0.2672547996044159,-0.9960519671440125,0.2544474167214574,0.04152006961114836,-0.09534345458905895
1.1846511363983154,-0.033425383269786835,0.2530493140220642,0.1743178367614746,6.001012325286865,0.7196496725082397,-1.116995096206665,0.31902618155276535,0.05040874160271624,-0.10955173534598284
1.1923103332519531,-0.04677577689290047,0.15351197123527527,0.06009697914123535,5.265103816986084,1.2374330759048462,-1.2536709308624268,0.3744511752684483,0.06565089904228866,-0.12553610202868207
1.1996021270751953,-0.041762448847293854,0.171076238155365,-0.061825454235076904,4.950246334075928,1.6732110977172852,-1.3871594667434692,0.4242766222063231,0.08762837962730725,-0.14409324400214457
1.2096121311187744,-0.04881342500448227,0.25013163685798645,-0.1256958246231079,4.762679100036621,2.004840612411499,-1.5669312477111816,0.4710661086773592,0.11544889938311485,-0.1657881988729314
1.219557285308838,-0.05761466920375824,0.33630985021591187,-0.03324609994888306,4.73347806930542,2.3416051864624023,-1.8554208278656006,0.5158530569298565,0.14960388892660367,-0.19208400146777097
1.229640007019043,-0.02785646915435791,0.3946283459663391,0.1797323226928711,4.866813659667969,2.441368341445923,-2.173731803894043,0.5596317704364607,0.1904887506352059,-0.2247644566156267
1.2398252487182617,0.00016389787197113037,0.36769020557403564,0.3599969148635864,5.055920600891113,2.317903757095337,-2.4622256755828857,0.6032675880045676,0.2362613078438977,-0.2644376614713923
1.2497882843017578,0.10088048875331879,0.35470426082611084,0.5645967721939087,5.141085147857666,2.099045753479004,-2.7165772914886475,0.6460460974999853,0.2860382499858022,-0.31171019372867925
1.2599620819091797,0.2044227123260498,0.31973797082901,0.7100803256034851,5.12261438369751,1.954002857208252,-2.9904825687408447,0.6861333497192028,0.3400499459867634,-0.3664085866365931
1.2714571952819824,0.2866535782814026,0.17155224084854126,0.70137619972229,5.088839530944824,1.947441816329956,-3.1034460067749023,0.722772132417022,0.3993775782086198,-0.4280390676167318
1.2797811031341553,0.29459309577941895,0.07495415210723877,0.6363786458969116,5.047580242156982,2.0236918926239014,-3.136634111404419,0.7557571213192628,0.4645419992904354,-0.4952127254718291
1.2898173332214355,0.2546207308769226,0.034208595752716064,0.5630730390548706,4.915175437927246,2.058582067489624,-3.130863904953003,0.7845773385807202,0.5347812183745679,-0.5668457911458546
1.299705982208252,0.2227792739868164,-0.0010182857513427734,0.4895398020744324,4.709766864776611,2.1709976196289062,-3.1019062995910645,0.8081734152892793,0.6095733543606704,-0.6418009245826342
1.3099040985107422,0.1976953148841858,-0.11663985252380371,0.41814523935317993,4.450317859649658,2.268953800201416,-2.9335267543792725,0.826498164080428,0.6872004670486715,-0.7176576888889524
1.3220491409301758,0.14217358827590942,-0.21565169095993042,0.33252590894699097,4.074026107788086,2.3324503898620605,-2.679792881011963,0.8397743417069843,0.764599049039489,-0.79113244238606
1.3297672271728516,0.097786545753479,-0.27394866943359375,0.2963513433933258,3.7531955242156982,2.3849523067474365,-2.381789445877075,0.8487890982048173,0.83980270562576,-0.8601171981783616
1.339834213256836,0.049238622188568115,-0.3514404892921448,0.22568702697753906,3.411574125289917,2.4280693531036377,-1.9990136623382568,0.8548940168757957,0.9115397083362192,-0.9233729337747774
1.350102186203003,-0.025752663612365723,-0.3911873698234558,0.11861681938171387,3.100360870361328,2.4500370025634766,-1.5723698139190674,0.8595132192521455,0.9786216768362814,-0.9797354110507335
1.3600420951843262,-0.08657652139663696,-0.425276517868042,0.05649480223655701,2.769033432006836,2.390714406967163,-1.1583497524261475,0.863611897038745,1.0403718876314134,-1.0291245858479956
1.369950294494629,-0.10496962070465088,-0.456729531288147,-0.030191272497177124,2.39143443107605,2.286386728286743,-0.7639776468276978,0.8676302593194597,1.095894086003477,-1.0712336181594007
1.3799371719360352,-0.11325520277023315,-0.49767881631851196,-0.09614536166191101,1.9414241313934326,2.088651180267334,-0.3775854706764221,0.8719918094404451,1.1439791099738295,-1.1054321469936752
1.3898332118988037,-0.14015334844589233,-0.564299464225769,-0.13400831818580627,1.5528578758239746,1.7761318683624268,-0.040129899978637695,0.8770104101710942,1.183426385199671,-1.1316470111002979
1.399867057800293,-0.1413630247116089,-0.5940479040145874,-0.17467418313026428,1.2962154150009155,1.6126474142074585,0.2488528937101364,0.8831035767824399,1.2159244450445725,-1.1518718289425922
1.4099493026733398,-0.11643141508102417,-0.5301781296730042,-0.24653449654579163,1.0807511806488037,1.453231930732727,0.5759735703468323,0.8909724191188025,1.2432670308913683,-1.1673602935636502
1.4228041172027588,-0.0997052788734436,-0.3891426920890808,-0.34235697984695435,0.8955321311950684,1.2744344472885132,0.8186224102973938,0.9007868308447691,1.2659734182926234,-1.1788960617611188
1.4299001693725586,-0.05831712484359741,-0.2225935459136963,-0.358523428440094,0.7486086487770081,1.0505430698394775,0.8824618458747864,0.9114234607554986,1.284350921796571,-1.187518327794938
1.440019130706787,-0.0029416680335998535,-0.1047564148902893,-0.33923739194869995,0.6344274878501892,0.8835738897323608,0.8421854972839355,0.9216930298146032,1.299689722935625,-1.1946297954318978
1.4498929977416992,0.04253280162811279,-0.01577216386795044,-0.320035457611084,0.4231862425804138,0.7132195234298706,0.7503976821899414,0.9308275644011521,1.3116688241621635,-1.199676108346621
1.4601192474365234,0.05950039625167847,0.07239580154418945,-0.30845534801483154,0.19793471693992615,0.5851867198944092,0.5871280431747437,0.9381500652979728,1.3199675684011196,-1.2019228430981195
1.4725701808929443,0.07586836814880371,0.112118661403656,-0.2713544964790344,-0.09008725732564926,0.455713152885437,0.3763147294521332,0.9429730140460504,1.324260630012676,-1.2007868367049814
1.4801361560821533,0.07903116941452026,0.11097490787506104,-0.24433624744415283,-0.2996383607387543,0.3430904448032379,0.22801446914672852,0.9453420924223711,1.3245466651240003,-1.1961925030207938
1.490126132965088,0.08832991123199463,0.07111668586730957,-0.2071514129638672,-0.3685421943664551,0.1659892052412033,0.151150643825531,0.9463032430483631,1.3218980460960505,-1.1897120639439656
1.5000522136688232,0.09071123600006104,0.12467038631439209,-0.17307211458683014,-0.30768680572509766,-0.008289913646876812,0.07000331580638885,0.9465303957544824,1.3176561935619093,-1.1835524813571223
1.5100340843200684,0.09374862909317017,0.20421987771987915,-0.11676561832427979,-0.280070424079895,-0.15211118757724762,0.01593630015850067,0.9461740835098893,1.312765136215251,-1.1785838629354675
1.521423101425171,0.06805992126464844,0.1935771107673645,-0.09063820540904999,-0.2959742844104767,-0.23189468681812286,0.01201452873647213,0.945561452283748,1.3069101028395507,-1.1737596189631112
1.5299983024597168,0.03092724084854126,0.14746850728988647,-0.08054649829864502,-0.2651176154613495,-0.25175395607948303,0.015268540009856224,0.9449159813512176,1.3006336705045818,-1.1690399076798854
1.5400562286376953,-0.004354894161224365,0.13588589429855347,-0.07648126780986786,-0.24100881814956665,-0.24984660744667053,0.02836330235004425,0.9444451683542554,1.2946662860998865,-1.1647957479171909
1.5501811504364014,-0.031024515628814697,0.14733701944351196,-0.0718315839767456,-0.2503991723060608,-0.23736442625522614,0.014028944075107574,0.944014903462435,1.2888889087605204,-1.1606791641379537
1.5609221458435059,-0.04726177453994751,0.1329135298728943,-0.04763554036617279,-0.3114073872566223,-0.2070280909538269,-0.0414913035929203,0.9430980250221254,1.28300909876035,-1.1561917282397782
1.5715970993041992,-0.05699789524078369,0.08519768714904785,-0.020290061831474304,-0.367606520652771,-0.19208934903144836,-0.06430026888847351,0.9415900611998799,1.2767185444567468,-1.1508535880407866
1.5801310539245605,-0.06059640645980835,0.0389631986618042,-0.00361025333404541,-0.35450536012649536,-0.2195577323436737,-0.09011562168598175,0.9398026605600083,1.2702073830376344,-1.145316437648427
1.5901551246643066,-0.044161438941955566,0.05998772382736206,0.016622841358184814,-0.3387661278247833,-0.24381695687770844,-0.13828778266906738,0.9376813103348536,1.2638076570726544,-1.1402942035855024
1.6000752449035645,-0.020395219326019287,0.07345199584960938,0.03577335178852081,-0.3867403268814087,-0.22924946248531342,-0.1968802660703659,0.9349884154978342,1.2574910412022229,-1.1354328560354645
1.6102380752563477,-0.018481850624084473,0.032150447368621826,0.032399922609329224,-0.514143168926239,-0.19130972027778625,-0.23904630541801453,0.9315086096609044,1.2505352555302174,-1.1294174408228226
1.6215143203735352,-0.015908777713775635,-0.03259509801864624,0.016378343105316162,-0.6043865084648132,-0.1487492024898529,-0.26178836822509766,0.927296583086928,1.2427447944880796,-1.1217977184808454
1.6302452087402344,-0.01233285665512085,-0.0932471752166748,0.011548459529876709,-0.56401127576828,-0.15635567903518677,-0.21646642684936523,0.9230641425234535,1.234824568548717,-1.1137581594710748
1.6401832103729248,-0.009819269180297852,-0.07750612497329712,0.013666689395904541,-0.3879624903202057,-0.18153001368045807,-0.1639414280653,0.919673070275305,1.2280305167624248,-1.1073287381980337
1.650205135345459,0.0064737796783447266,0.00948113203048706,0.01946127414703369,-0.24375292658805847,-0.21065141260623932,-0.11127166450023651,0.9173301630019141,1.2228626367364754,-1.1033020226188703
1.6604981422424316,0.011962473392486572,0.04811584949493408,0.02118721604347229,-0.21257182955741882,-0.22517947852611542,-0.08748777210712433,0.9156747323768464,1.2183629404153942,-1.1004131846924807
1.672037124633789,0.011375248432159424,0.01464468240737915,0.021027028560638428,-0.2480190098285675,-0.19369234144687653,-0.1005997434258461,0.9139842434377767,1.2139074728776948,-1.0974505204684706
1.680403232574463,0.011260688304901123,-0.05666828155517578,0.01424214243888855,-0.2917475998401642,-0.189487487077713,-0.1190466582775116,0.9119982958528295,1.2091582772098342,-1.0938675476024526
1.6903541088104248,0.006808936595916748,-0.10256057977676392,0.0075785815715789795,-0.2488456815481186,-0.2201223224401474,-0.10344670712947845,0.9099421387650614,1.2043529519432483,-1.090328177561779
1.700270175933838,0.018174588680267334,-0.09274154901504517,0.02508649230003357,-0.14965277910232544,-0.2776455283164978,-0.08677558600902557,0.9083403467787722,1.1998656056172348,-1.0878307453547957
1.7103290557861328,0.03302133083343506,-0.03540414571762085,0.036869436502456665,-0.08800440281629562,-0.30658289790153503,-0.09166339784860611,0.9070929181644963,1.1959863861356412,-1.0866436189066957
1.7217960357666016,0.03279149532318115,-0.019887447357177734,0.04108726978302002,-0.08070734143257141,-0.30390694737434387,-0.08416659384965897,0.9059517473513691,1.1923728496843018,-1.0859402914107261
1.7301602363586426,0.017214059829711914,-0.058796703815460205,0.039328187704086304,-0.09353728592395782,-0.27047932147979736,-0.08387114852666855,0.9048654649751156,1.1888346540175028,-1.0851221130800484
1.740434169769287,0.015680551528930664,-0.07502710819244385,0.0318697988986969,-0.13069210946559906,-0.22358158230781555,-0.08443281054496765,0.9036642252015943,1.1854798907680253,-1.0839988552694897
1.7503972053527832,0.010098099708557129,-0.08717221021652222,0.025688469409942627,-0.16159473359584808,-0.19813020527362823,-0.05753525346517563,0.9024333552012551,1.1819675571342254,-1.0822049789899675
1.7606101036071777,0.006226897239685059,-0.10857194662094116,0.028409600257873535,-0.1542404145002365,-0.1916286200284958,-0.0338461697101593,0.9013887500259469,1.1783515924752581,-1.0800849222649127
1.7726030349731445,0.012508273124694824,-0.09573817253112793,0.033951014280319214,-0.1199573203921318,-0.21214619278907776,-0.0032564629800617695,0.9006775932624491,1.174807455598796,-1.0781305247595665
1.7805981636047363,0.013023972511291504,-0.07238239049911499,0.03919979929924011,-0.07883598655462265,-0.22881652414798737,0.022195100784301758,0.9003740686034418,1.1713719187997937,-1.076582573256451
1.7907521724700928,0.013511240482330322,-0.05137902498245239,0.04941435158252716,-0.058626435697078705,-0.23982907831668854,0.04137326776981354,0.9004103797861877,1.168086785746792,-1.0754009791679897
1.8004491329193115,0.010171294212341309,-0.04536217451095581,0.04836398363113403,-0.08607377111911774,-0.23689667880535126,0.05277452617883682,0.9005657915212687,1.1646053966320753,-1.0740265326160394
1.8105292320251465,0.01150047779083252,-0.048881590366363525,0.042790770530700684,-0.09690718352794647,-0.20840218663215637,0.0658174604177475,0.9007217274017683,1.1609673119726793,-1.0722576583895
1.8214781284332275,0.006492018699645996,-0.05763041973114014,0.03920632600784302,-0.0732220932841301,-0.17383329570293427,0.09334469586610794,0.9011060148380091,1.1576695061530362,-1.0704885798001265
1.830482006072998,0.007220923900604248,-0.02489006519317627,0.02688366174697876,-0.060574959963560104,-0.15380947291851044,0.10680180788040161,0.9017865791191828,1.1547540363172777,-1.0688664993459143
1.8403840065002441,0.012232601642608643,0.016459226608276367,0.019694477319717407,-0.10002569109201431,-0.1328495889902115,0.0747021958231926,0.9023245646326513,1.1519522850560715,-1.0671296657342346
1.8503642082214355,0.007183253765106201,0.007388174533843994,0.030759602785110474,-0.14664284884929657,-0.12840500473976135,0.05947482958436012,0.902386656098586,1.1488652769395877,-1.0648478263996861
1.8604521751403809,0.001917719841003418,-0.030036211013793945,0.03395301103591919,-0.13940410315990448,-0.1375737339258194,0.05020409822463989,0.9023955753057916,1.1457197423765257,-1.0624634548078447
1.8718111515045166,0.01130056381225586,-0.002734661102294922,0.03172686696052551,-0.11346167325973511,-0.1382535994052887,0.029200972989201546,0.9023275676517329,1.1429164637409173,-1.060542192652713
1.8804841041564941,0.01433873176574707,0.043886423110961914,0.02622237801551819,-0.1556304395198822,-0.125996395945549,-0.0014325702795758843,0.902016206925691,1.140274565588861,-1.0587431176186877
1.8904991149902344,0.008373379707336426,0.03958171606063843,0.017759501934051514,-0.2574079930782318,-0.09529698640108109,-0.047352444380521774,0.9010296779754454,1.1371560183727902,-1.0560672143422454
1.9004371166229248,0.0010898709297180176,0.008391022682189941,0.012937158346176147,-0.3781130909919739,-0.08303126692771912,-0.08578718453645706,0.899160931489774,1.1331623817479035,-1.0520222647088096
1.9105172157287598,-0.005604922771453857,-0.03203397989273071,0.009742200374603271,-0.44970595836639404,-0.08816659450531006,-0.09032601118087769,0.8966078490774314,1.128241003043252,-1.0466967846785622
1.921579122543335,-0.0032747387886047363,-0.04044783115386963,0.013845980167388916,-0.47771361470222473,-0.11692526936531067,-0.08095461875200272,0.89381622241488,1.122659119542674,-1.0407416035990933
1.9306721687316895,0.0007552504539489746,-0.011689424514770508,0.012737274169921875,-0.510735809803009,-0.17198093235492706,-0.06358110904693604,0.8910371968011799,1.1164849933840946,-1.0344522068899273
1.9411962032318115,0.0034785866737365723,-0.004686594009399414,0.018608570098876953,-0.5678417086601257,-0.2652911841869354,-0.03873328119516373,0.888200527330087,1.10859804878965,-1.027123670754739
1.9505209922790527,0.00397104024887085,-0.029337584972381592,0.030821561813354492,-0.6333875060081482,-0.345417857170105,-0.02785480208694935,0.8852179297047454,1.0991287838898403,-1.0188725382500705
1.960556983947754,0.005806863307952881,-0.04450654983520508,0.03698721528053284,-0.7870563864707947,-0.4195922017097473,-0.04814329743385315,0.8816801877164434,1.0878995285200765,-1.009302567798272
1.9722023010253906,-0.002655208110809326,-0.06990271806716919,0.022761166095733643,-1.105043649673462,-0.49541813135147095,-0.0894283652305603,0.8766472439260669,1.0736876605169232,-0.9968032003688242
1.9807562828063965,-0.008275926113128662,-0.1490919589996338,0.019602924585342407,-1.4552556276321411,-0.6083164215087891,-0.07786837965250015,0.8696463581722796,1.055313555751061,-0.9799884944995382
1.9906163215637207,-0.006496608257293701,-0.25440144538879395,0.026986420154571533,-1.6591744422912598,-0.7310801148414612,-0.03367956355214119,0.8612540479218426,1.032949188320974,-0.9594498006902856
2.0008301734924316,0.014085888862609863,-0.25090688467025757,0.020374059677124023,-1.7410863637924194,-0.8882343173027039,0.010614931583404541,0.852237647028846,1.008151635918416,-0.937344880770247
2.0106301307678223,0.030432045459747314,-0.1372125744819641,0.010430753231048584,-1.8571758270263672,-1.069891095161438,0.05118557810783386,0.8427409544205564,0.9810921971049559,-0.9143113150007081
2.0224132537841797,0.044120609760284424,-0.08323639631271362,0.030569404363632202,-2.1101772785186768,-1.2564902305603027,0.026470113545656204,0.831877495520255,0.9511363561366067,-0.8896785208233063
2.0308213233947754,0.043726444244384766,-0.11559975147247314,0.06502589583396912,-2.557391405105591,-1.3914300203323364,-0.0654781311750412,0.8179152044410632,0.9177029344931759,-0.8622748127684272
2.040837287902832,0.02645707130432129,-0.20034849643707275,0.09095272421836853,-3.1793222427368164,-1.4416342973709106,-0.16694244742393494,0.7992187676080914,0.8806995126366918,-0.8308455767695128
2.0507802963256836,-0.013374805450439453,-0.30919772386550903,0.10867097973823547,-3.743567943572998,-1.3049131631851196,-0.2747274339199066,0.774718640112398,0.841649354988329,-0.7953933221787196
2.061707019805908,-0.057784855365753174,-0.39870762825012207,0.09450453519821167,-3.975955009460449,-1.2313140630722046,0.00018135854043066502,0.7470723723489883,0.8030103022593861,-0.7575886483608428
2.071770191192627,-0.05348610877990723,-0.39471423625946045,0.053012311458587646,-3.7189314365386963,-1.2773445844650269,0.37031516432762146,0.7209863621139381,0.7646414549249239,-0.7188951354978066
2.0808041095733643,0.03767925500869751,-0.07702982425689697,0.0557979941368103,-3.1829919815063477,-1.5383882522583008,0.5501746535301208,0.6987303389241436,0.727389949367113,-0.6832476666476733
2.0907750129699707,0.08755117654800415,0.21869897842407227,0.05771571397781372,-2.6722395420074463,-1.8447259664535522,0.6384807825088501,0.6804529519899248,0.6909887455200936,-0.652751522023033
2.1007111072540283,0.1445077359676361,0.289564847946167,0.056411147117614746,-2.4502315521240234,-2.0864789485931396,0.7600919008255005,0.6649484364565359,0.6542444063115472,-0.6254975191289244
2.110844135284424,0.17496255040168762,0.24568074941635132,0.08417165279388428,-2.70686674118042,-2.155402898788452,0.8234841823577881,0.6491845410705203,0.6161928070952294,-0.5982281711993852
2.122157096862793,0.1440035104751587,0.09178578853607178,0.09684300422668457,-3.4029178619384766,-2.032097339630127,0.7549362778663635,0.6285106568797738,0.5775563522966378,-0.5687691235985635
2.130852222442627,0.08758425712585449,-0.16293543577194214,0.10864853858947754,-4.332396030426025,-1.8289504051208496,0.6326465010643005,0.5994354863270049,0.5396151955349118,-0.5365154834097846
2.140949249267578,0.018252670764923096,-0.40950512886047363,0.13747656345367432,-5.279839038848877,-1.6473639011383057,0.5230222344398499,0.5605018169867931,0.5031996125472681,-0.5018431472225338
2.150771141052246,-0.007441490888595581,-0.5224312543869019,0.19724637269973755,-6.060498237609863,-1.5231001377105713,0.4263019561767578,0.512392767979022,0.4690392916431148,-0.4660655877207144
2.1608963012695312,0.008237183094024658,-0.4911099076271057,0.25547921657562256,-6.555739879608154,-1.4414622783660889,0.38692978024482727,0.4571078867777323,0.43764620091921447,-0.4305649515245724
2.1721251010894775,0.02809000015258789,-0.36427047848701477,0.2951385974884033,-6.522454261779785,-1.354887843132019,0.5239974856376648,0.39899389476837727,0.40950812489980276,-0.3964242141901124
2.1810481548309326,0.06071203947067261,-0.21065106987953186,0.2772982120513916,-6.115901947021484,-1.3708099126815796,0.7351816296577454,0.3428559889195869,0.38407411884435155,-0.36384199636278464
2.1908860206604004,0.11599525809288025,-0.010567277669906616,0.21455681324005127,-5.449963569641113,-1.4022589921951294,0.9535921216011047,0.29183654888625454,0.36069228472267434,-0.3333531937401733
2.2008299827575684,0.16527587175369263,0.17315568029880524,0.18488723039627075,-4.707801818847656,-1.484560489654541,1.0755904912948608,0.24757660735240838,0.3388059448739937,-0.305258154109397
2.211031198501587,0.18396776914596558,0.19555293023586273,0.1710880994796753,-4.031761646270752,-1.644527554512024,1.05094575881958,0.20969005971946858,0.317661028353574,-0.2803891882967111
2.2216391563415527,0.2029620110988617,0.13348640501499176,0.2305428385734558,-3.636948585510254,-2.0095176696777344,0.9174029231071472,0.17637645587156336,0.29507057720786195,-0.2591066596483402
2.2308692932128906,0.20194301009178162,0.07861925661563873,0.3739711046218872,-3.5211756229400635,-2.1386260986328125,0.9755010008811951,0.14444395906011187,0.2712319849599311,-0.23986215597270372
2.2408862113952637,0.19795165956020355,0.09615186601877213,0.5406411290168762,-3.3198888301849365,-2.2310385704040527,1.1005380153656006,0.11408417525192786,0.24684007991859225,-0.22083877958295464
2.250941276550293,0.1624300479888916,0.22718483209609985,0.525534987449646,-3.251107931137085,-2.2167794704437256,1.1034058332443237,0.08479990967848443,0.22266026107633946,-0.20228970174450517
2.2610411643981934,0.09229683876037598,0.2340691089630127,0.4572635293006897,-3.3970534801483154,-2.077024221420288,0.940348744392395,0.054546031348161605,0.19983790356356632,-0.18523609021286608
2.2717432975769043,0.03265094757080078,0.12300474941730499,0.3742920756340027,-3.675968647003174,-1.8369803428649902,0.7735852003097534,0.02139815554501031,0.17964304731312564,-0.1701784008266155
2.2810921669006348,-0.032626137137413025,-0.013508308678865433,0.2688325047492981,-3.884705066680908,-1.5399744510650635,0.655268669128418,-0.014729495384175702,0.1626321124383456,-0.15670136326613687
2.2912302017211914,-0.054673656821250916,-0.03279174491763115,0.17585766315460205,-3.940185785293579,-1.2855336666107178,0.5893911123275757,-0.052514930503711796,0.14894949971573165,-0.14453963483624063
2.3011722564697266,-0.04120023548603058,0.009445317089557648,0.09981542825698853,-3.8850948810577393,-0.9933875203132629,0.5368139147758484,-0.09060837478719243,0.13835253782497484,-0.1332550313106122
2.3117032051086426,-0.01876567304134369,0.03282409906387329,0.0719098448753357,-3.7416317462921143,-0.7596052885055542,0.419391393661499,-0.12781718566831482,0.13073586219938318,-0.12329774406875764
2.3221051692962646,-0.021386727690696716,0.03981828689575195,0.04206722974777222,-3.672407865524292,-0.6989307403564453,0.23262925446033478,-0.16408780120272354,0.12466745521783909,-0.1152238056302578
2.3309922218322754,-0.02754710614681244,0.02056419849395752,0.06667137145996094,-3.6769871711730957,-0.6428699493408203,0.09786413609981537,-0.20044076480991027,0.11904244288433694,-0.109114827986187
2.3410542011260986,-0.017478860914707184,0.0016859173774719238,0.1665915846824646,-3.5895166397094727,-0.6431804299354553,0.10758867114782333,-0.23655222180289445,0.1138130700142039,-0.103768977752054
2.3510780334472656,0.0038887858390808105,0.053425610065460205,0.1880180835723877,-3.4833531379699707,-0.6897133588790894,0.09358321130275726,-0.27153901974073347,0.10842764838281896,-0.09861412588427358
2.3611721992492676,0.007165685296058655,0.1601216197013855,0.1527845859527588,-3.482320547103882,-0.6033188104629517,0.02352130226790905,-0.30614009047508284,0.10311925386465105,-0.09419527751042764
2.372798204421997,-0.002871491014957428,0.11416730284690857,0.1047315001487732,-3.4341869354248047,-0.4747537076473236,0.005569892469793558,-0.3406234858913075,0.09893274637295799,-0.09037885735608532
2.3813390731811523,-0.02229698747396469,0.005524635314941406,0.012179374694824219,-3.3060696125030518,-0.35845959186553955,-0.005277961492538452,-0.3742769209806741,0.09600545702074441,-0.08684974078157678
2.3916192054748535,-0.016403019428253174,0.007820844650268555,-0.05137985944747925,-3.1354198455810547,-0.24422214925289154,-0.029801521450281143,-0.4063790007091491,0.09419430555520904,-0.08371240868842238
2.4010982513427734,-0.004065662622451782,0.03993070125579834,-0.07414364814758301,-2.914734363555908,-0.10027403384447098,-0.08234861493110657,-0.4366419166483345,0.09348017798951386,-0.0812095176133521
2.4112000465393066,-0.015336185693740845,0.017605990171432495,-0.08462786674499512,-2.6573736667633057,-0.0763089582324028,-0.16710616648197174,-0.4645619528303576,0.09342886934915601,-0.07964715752706027
2.421950101852417,-0.04158342629671097,-0.029941827058792114,-0.09871333837509155,-2.477891445159912,-0.06137394532561302,-0.1957109123468399,-0.49026513580885756,0.09296582753503667,-0.07911003820360776
2.431220054626465,-0.046829625964164734,-0.031662970781326294,-0.06861001253128052,-2.221745252609253,-0.11951816827058792,-0.08610016107559204,-0.5138835229799026,0.09249005951741571,-0.07829223714774929
2.4410653114318848,-0.021377377212047577,0.0672265887260437,-0.031022191047668457,-1.9267431497573853,-0.18968208134174347,0.0028387673664838076,-0.5346151090869914,0.09180929010177828,-0.07649442425120323
2.4511752128601074,-0.01230514794588089,0.1526733636856079,-0.04012608528137207,-1.6614842414855957,-0.20582012832164764,0.017130514606833458,-0.5524641133031893,0.09087154345105714,-0.07445725041281338
2.461207151412964,-0.027330294251441956,0.08314532041549683,-0.05285000801086426,-1.3970999717712402,-0.22832515835762024,0.02790646441280842,-0.5677119285654728,0.0897060519009691,-0.07255801376123026
2.472154140472412,-0.05038909614086151,0.012146174907684326,-0.07232558727264404,-1.115844488143921,-0.24114441871643066,0.03443616256117821,-0.5801950524544172,0.08825855136925276,-0.07087477496487825
2.4814021587371826,-0.03870777785778046,0.015430033206939697,-0.07572358846664429,-0.8748167157173157,-0.23766633868217468,0.03837630897760391,-0.5900752745323392,0.08667272731645867,-0.06938616813396892
2.4929871559143066,-0.025078728795051575,0.025147974491119385,-0.08307510614395142,-0.6754122376441956,-0.20269134640693665,0.0343811959028244,-0.5977368492680878,0.08513732704192292,-0.06815158157851611
2.501190185546875,-0.02652633935213089,0.018646419048309326,-0.08880621194839478,-0.5252991914749146,-0.17358273267745972,0.0047372812405228615,-0.6036944637889506,0.08375405849467128,-0.06727544619918116
2.5113730430603027,-0.028223760426044464,0.0004197359085083008,-0.09224188327789307,-0.41870206594467163,-0.11251045763492584,-0.05698626860976219,-0.608400833132407,0.08242810754854295,-0.06710597302985821
2.5222082138061523,-0.031932540237903595,-0.01681828498840332,-0.08601206541061401,-0.3514859974384308,-0.08977798372507095,-0.10624862462282181,-0.6122685442181821,0.08104405539196692,-0.0677523188856389
2.5312600135803223,-0.038202524185180664,-0.029297053813934326,-0.0823790431022644,-0.3546569347381592,-0.09710557758808136,-0.10312920808792114,-0.6158121234243824,0.07953898236634403,-0.06873910027561898
2.5413413047790527,-0.03339376300573349,-0.006181836128234863,-0.061643004417419434,-0.4224652647972107,-0.10256532579660416,-0.05490468814969063,-0.6197453082829528,0.07816100523420286,-0.0693623246490743
2.5514631271362305,-0.02061808854341507,0.05023396015167236,-0.027942776679992676,-0.45574480295181274,-0.101503387093544,-0.009527035057544708,-0.6241711181703963,0.07717886259368124,-0.0693051182689132
2.5614442825317383,-0.026219084858894348,0.06510144472122192,-0.015607237815856934,-0.47676995396614075,-0.0972236916422844,-0.013142010197043419,-0.6288168282828772,0.07634301793104994,-0.06897963832137954
2.5739591121673584,-0.03978381305932999,0.005992770195007324,-0.02463078498840332,-0.4968239665031433,-0.08711477369070053,-0.030435726046562195,-0.633707535806838,0.0755341434574523,-0.06881325504624668
2.581827163696289,-0.04111187905073166,-0.036631107330322266,-0.024478256702423096,-0.48833489418029785,-0.0887203961610794,-0.03267570957541466,-0.6386852468585947,0.07470817033707204,-0.06872566486386239
2.5913851261138916,-0.032423052936792374,-0.026158034801483154,-0.028579771518707275,-0.45065513253211975,-0.0875023603439331,-0.03967934474349022,-0.6433999348839564,0.07381622028266041,-0.06874413788457147
2.6013102531433105,-0.023560315370559692,-0.018636107444763184,-0.032793521881103516,-0.41197511553764343,-0.08129080384969711,-0.030009938403964043,-0.6477371479874345,0.07292949500209454,-0.06880264573386999
2.611480236053467,-0.016677439212799072,-0.02219831943511963,-0.03551328182220459,-0.36707010865211487,-0.07184083759784698,-0.01327841728925705,-0.6516550625601841,0.07222219178524192,-0.06870793528791477
2.6220149993896484,-0.008460044860839844,-0.0069100260734558105,-0.0367969274520874,-0.3156609833240509,-0.06408224999904633,-8.991104550659657e-05,-0.655057701509733,0.07166749205305735,-0.0684910961155915
2.6315250396728516,-0.001505184918642044,0.00025713443756103516,-0.03356117010116577,-0.2710886299610138,-0.042041484266519547,0.01760477013885975,-0.6579912719499371,0.07136991100184292,-0.06810855177336513
2.6415741443634033,0.0006417818367481232,-0.0035635828971862793,-0.024560630321502686,-0.21581576764583588,-0.014802674762904644,0.038578495383262634,-0.6604117939242024,0.0714323825503819,-0.06753189798408976
2.651416301727295,-0.00048702582716941833,0.00736767053604126,-0.013879001140594482,-0.16546036303043365,0.011331634595990181,0.06058856472373009,-0.662260504233842,0.07190355176229966,-0.06673046161111928
2.661612033843994,-0.003641124814748764,0.0177384614944458,-0.012210488319396973,-0.12516726553440094,0.050232961773872375,0.07018579542636871,-0.6636609392813907,0.07279234452693871,-0.06577333669931713
2.67301607131958,-0.007735107094049454,0.0046770572662353516,-0.014088988304138184,-0.09006369113922119,0.07224039733409882,0.0711706355214119,-0.664687810848005,0.07404262179107136,-0.06477466919673684
2.6820201873779297,-0.010848559439182281,-0.013789057731628418,-0.008495211601257324,-0.06259345263242722,0.0749879777431488,0.06820493936538696,-0.66538968722368,0.07536806681983434,-0.06381224399474279
2.691542148590088,-0.009635929018259048,-0.013020753860473633,0.0023245811462402344,-0.058853939175605774,0.08291709423065186,0.06579333543777466,-0.6659260789929106,0.07671404552852548,-0.06289950274574337
2.7015321254730225,-0.0003396458923816681,-0.009592711925506592,0.01498425006866455,-0.07015559822320938,0.08207260817289352,0.0642809271812439,-0.6665149659257672,0.0781079905142729,-0.061989262708236015
2.711618185043335,-0.0018216371536254883,-0.011873900890350342,0.016595423221588135,-0.09222960472106934,0.08596312999725342,0.05199725925922394,-0.6672820234244669,0.07944374402628714,-0.061167883298169384
2.7222752571105957,-0.003643900156021118,-0.02100682258605957,0.022308826446533203,-0.10201086103916168,0.09173073619604111,0.042349159717559814,-0.6682251700832913,0.08075940069109676,-0.060475951995226804
2.73153018951416,-0.0030511245131492615,-0.026661694049835205,0.021684348583221436,-0.0922217145562172,0.10390520095825195,0.038656845688819885,-0.6691702320512719,0.08211107846221487,-0.05986271197006963
2.741497039794922,-0.002379193902015686,-0.013931095600128174,0.009004950523376465,-0.0686655193567276,0.13528628647327423,0.0396408811211586,-0.6699620317628974,0.08349025950570221,-0.0593875618919368
2.751512050628662,-0.006489686667919159,-0.006894290447235107,-0.004800021648406982,-0.025915995240211487,0.14228534698486328,0.0490284189581871,-0.6703092903332788,0.08502550022368353,-0.05892362661892588
2.7615890502929688,-0.01328190416097641,-0.0035467147827148438,-0.016565024852752686,0.03014248050749302,0.15141865611076355,0.05511188134551048,-0.6699902362422356,0.08660878351265598,-0.058445524049212175
2.772249221801758,-0.006661742925643921,0.00575411319732666,-0.023348629474639893,0.08644693344831467,0.1581796109676361,0.052169620990753174,-0.6691624354167025,0.08819506998039138,-0.05805111115188299
2.7816731929779053,-0.008385352790355682,0.008898258209228516,-0.023617923259735107,0.13062822818756104,0.1539372056722641,0.05413849279284477,-0.6680140909402648,0.08996791782125232,-0.057589490161110736
2.7918221950531006,-0.010058663785457611,0.007560551166534424,-0.018588364124298096,0.15000863373279572,0.13656416535377502,0.05186836048960686,-0.6665507756546258,0.09157289603073449,-0.057172196784816026
2.801622152328491,-0.0018769055604934692,0.02082282304763794,-0.012937545776367188,0.14539922773838043,0.12128348648548126,0.046616874635219574,-0.6650149048121216,0.09295776536314856,-0.05685011026509631
2.811650276184082,0.006087392568588257,0.026378273963928223,-0.00864708423614502,0.1176735907793045,0.11425673216581345,0.034714676439762115,-0.6635986036797468,0.09415886569047704,-0.056605238866566154
2.822986125946045,0.006372109055519104,0.017306923866271973,-0.009771287441253662,0.06616885960102081,0.1111176609992981,0.024796264246106148,-0.6626595758574305,0.09526279002286298,-0.056456861624129315
2.8319640159606934,0.00319797545671463,0.006289780139923096,-0.014006376266479492,0.009648323059082031,0.11019754409790039,0.01926541142165661,-0.6622534899889695,0.09624368691955534,-0.05638813085438156
2.842764139175415,0.0013351142406463623,0.007678508758544922,-0.020778417587280273,-0.035218749195337296,0.12037880718708038,0.011277259327471256,-0.6623112565985527,0.09714396191908671,-0.056417374650575704
2.851536273956299,0.0019074901938438416,0.0034682154655456543,-0.02191108465194702,-0.0541628822684288,0.12125951796770096,0.00631978502497077,-0.6627355544823907,0.09817761614176843,-0.05642866903673839
2.862161159515381,-0.0016715005040168762,0.0032883286476135254,-0.02483999729156494,-0.05048706755042076,0.11501257866621017,0.0009524503257125616,-0.6632348877359928,0.0991413487658646,-0.056496182920282995
2.872493267059326,-0.002810932695865631,0.008533716201782227,-0.02455449104309082,-0.02220875956118107,0.10047411173582077,-0.004154054448008537,-0.663588171228033,0.0999410856516293,-0.0566540647120644
2.8817501068115234,-0.003817141056060791,0.009280502796173096,-0.019110918045043945,0.011487152427434921,0.08384879678487778,-0.008092070929706097,-0.6637442058257722,0.10071152832960222,-0.05679508365878563
2.8918421268463135,-0.0035907700657844543,0.012127041816711426,-0.011919975280761719,0.039706505835056305,0.07513494044542313,-0.011561157181859016,-0.6635979520346508,0.10140403801686754,-0.056955812015816544
2.901670217514038,-0.004695333540439606,0.016827881336212158,-0.009701967239379883,0.05494218319654465,0.07138600200414658,-0.015233656391501427,-0.6631898166931982,0.1019825085079706,-0.057192487583591946
2.911797046661377,-0.004819236695766449,0.015801846981048584,-0.013144910335540771,0.05836201459169388,0.07294493168592453,-0.019615834578871727,-0.6626137274006244,0.10250306368848089,-0.05750607045514688
2.9220480918884277,-0.003322601318359375,0.01157069206237793,-0.015568256378173828,0.060028888285160065,0.06780023872852325,-0.022360222414135933,-0.6620002579613486,0.1029578799839346,-0.05787576059446372
2.9318501949310303,-0.0010651573538780212,0.011573851108551025,-0.015213251113891602,0.05000307038426399,0.06476019322872162,-0.023394007235765457,-0.6614160617632006,0.10335908956339321,-0.05826243086287127
2.9418630599975586,0.003952585160732269,0.011507034301757812,-0.014156222343444824,0.03570482134819031,0.06117797642946243,-0.026577018201351166,-0.6609399502860323,0.10369295217364084,-0.05867187814968
2.951889991760254,0.004539817571640015,0.0017768144607543945,-0.009469568729400635,0.02447156049311161,0.056372348219156265,-0.02068328484892845,-0.6606438855884732,0.1040093217102927,-0.059047561649350475
2.962843179702759,0.00252445787191391,-0.0035020112991333008,-0.0012186765670776367,0.026061467826366425,0.05060820281505585,-0.01731198839843273,-0.6604111676239177,0.1043028019503425,-0.05936003503746617
2.972140312194824,0.0015968307852745056,0.0036600232124328613,0.005463063716888428,0.036105599254369736,0.0516229122877121,-0.020450148731470108,-0.660152739826932,0.10456911300775804,-0.05968300323703434
2.9818882942199707,-0.0006744787096977234,0.0013150572776794434,0.006535649299621582,0.04513584449887276,0.06335865706205368,-0.013654296286404133,-0.6598761936019037,0.10489328816238898,-0.06001613502439236
