timestamp,accel_x,accel_y,accel_z,rotation_x,rotation_y,rotation_z, pitch,roll,yaw
0.0395810604095459,-8.299946784973145e-05,-0.013244546949863434,-9.560585021972656e-05,-0.029569929465651512,-0.020770415663719177,0.006043901666998863,0.04183664040575345,0.18972343259581226,-0.003981216966217747
0.04772210121154785,-0.00030753016471862793,-0.01327129453420639,0.0009479522705078125,-0.019321586936712265,-0.02578914165496826,0.010335266590118408,0.04167241973220918,0.18948442874333926,-0.0038494130073969918
0.06007719039916992,0.0007206201553344727,-0.009736176580190659,0.007117092609405518,-0.015662403777241707,-0.030574308708310127,0.020322652533650398,0.04154532051349869,0.189244227410326,-0.003676876570005035
0.06761813163757324,0.0021957755088806152,-0.008012458682060242,0.010892212390899658,-0.012439828366041183,-0.03264594078063965,0.02300424315035343,0.04160587457831831,0.18895432626639977,-0.0034363864069416137
0.07408404350280762,0.002035394310951233,-0.010496113449335098,0.014503240585327148,-0.011822507716715336,-0.026610150933265686,0.02671642415225506,0.04170103670010933,0.18863650490031805,-0.003173878921080677
0.08098125457763672,0.000778883695602417,-0.006950031965970993,0.013218045234680176,-0.004123958293348551,-0.029035093262791634,0.0296557005494833,0.04184453998142877,0.18837873808192043,-0.00288050231296008
0.09104204177856445,0.0018098056316375732,0.0007869116961956024,0.011962652206420898,-0.0016075375024229288,-0.029645221307873726,0.02641463279724121,0.04199800040344956,0.18812247689067185,-0.0025979601162477253
0.10110712051391602,0.003395974636077881,0.0025290101766586304,0.01339024305343628,0.003078477457165718,-0.026790091767907143,0.023795468732714653,0.0421685963365661,0.18787585049559577,-0.0023574047406214357
0.1121530532836914,0.001365765929222107,0.004892867058515549,0.013776659965515137,0.003104310017079115,-0.021448589861392975,0.018221205100417137,0.042350608240510935,0.187644930187718,-0.0021562236645584366
0.12109708786010742,-0.001006096601486206,0.005292203277349472,0.014460921287536621,-0.0034785247407853603,-0.015633488073945045,0.010371538810431957,0.04247539616086481,0.1874662815518639,-0.0020135022685057497
0.13112401962280273,-0.0011852234601974487,0.004559267312288284,0.014854967594146729,-0.001573032932356,-0.008473580703139305,0.001688035437837243,0.042535973177509116,0.187384989392878,-0.001953228131954123
0.14101314544677734,-0.0024304986000061035,0.00488821417093277,0.015400886535644531,-0.0029359390027821064,-0.0004439717158675194,0.00014031259343028069,0.04257503428949812,0.18739477722243392,-0.0019468454456659627
0.15117597579956055,-0.005986496806144714,0.007081463932991028,0.016143798828125,-0.002642192179337144,0.010145023465156555,-0.004289057105779648,0.04263210296388456,0.1874892419558738,-0.0019686229505474612
0.16188526153564453,-0.007283017039299011,0.006937161087989807,0.015743255615234375,-0.007911406457424164,0.01725757122039795,-0.006747154518961906,0.04262513252548793,0.18767523099630018,-0.0020171595628774405
0.17115306854248047,-0.006505057215690613,0.004968363791704178,0.017486751079559326,-0.008993715047836304,0.023807084187865257,-0.01047158520668745,0.042517801297445965,0.18792333681833767,-0.0020906842649133484
0.18130207061767578,-0.005723699927330017,0.0025445520877838135,0.018503189086914062,-0.011796226724982262,0.029726581647992134,-0.011166190728545189,0.04238269015080946,0.18822996690664254,-0.002175482411567259
0.19121599197387695,-0.00655074417591095,-0.0006264485418796539,0.019342422485351562,-0.008246764540672302,0.03715306892991066,-0.012868217192590237,0.04223279533680399,0.18858948308026868,-0.0022757996551349656
0.20138120651245117,-0.008670881390571594,-0.001867588609457016,0.01794499158859253,0.006979292258620262,0.03856028616428375,-0.013987330719828606,0.04216652704584373,0.1889768002080077,-0.0024030490689790273
0.21230792999267578,-0.009211182594299316,-0.001385428011417389,0.01801609992980957,0.022020559757947922,0.042606160044670105,-0.015363652259111404,0.04226730500842267,0.18938828482507378,-0.002570024676201336
0.22131705284118652,-0.010835543274879456,0.0016555115580558777,0.015494287014007568,0.03139908239245415,0.050524625927209854,-0.015931490808725357,0.04248556539684431,0.18984810753895692,-0.002767537519062357
0.23129010200500488,-0.013123676180839539,0.0026411637663841248,0.00999140739440918,0.0314004123210907,0.06344015896320343,-0.018038585782051086,0.042739020423938866,0.19040938757622078,-0.0029868462369150727
0.24124407768249512,-0.013022229075431824,-0.000567857176065445,0.005222678184509277,0.03297574073076248,0.06642866879701614,-0.02056160941720009,0.04299398478563067,0.1910391757227357,-0.0032351688681171173
0.25139713287353516,-0.014242187142372131,-0.0030223913490772247,0.0043836236000061035,0.02772265486419201,0.07071635872125626,-0.019869454205036163,0.04322520646069567,0.19170928453330144,-0.0034980134881592534
0.26184797286987305,-0.015338510274887085,-0.0006181783974170685,0.0035903453826904297,0.01579810120165348,0.07034152001142502,-0.023082131519913673,0.04338652799200863,0.19239288329442938,-0.0037488524588335966
0.2712101936340332,-0.013338729739189148,-0.0018485747277736664,0.0021458864212036133,0.01549689844250679,0.06610416620969772,-0.027531474828720093,0.043483743479956885,0.19306195709931107,-0.004021182194534029
0.2812530994415283,-0.011285915970802307,-0.00470387190580368,-0.0013710856437683105,0.016877712681889534,0.05628402531147003,-0.024905385449528694,0.04360402371445224,0.19363053527824087,-0.004314309349888709
0.2912940979003906,-0.009201139211654663,-0.003269009292125702,-0.005582749843597412,0.022057827562093735,0.04263106361031532,-0.02282971702516079,0.04375729375997279,0.19407344128926318,-0.004582566753674368
0.3012380599975586,-0.004144877195358276,0.00020070746541023254,-0.008909821510314941,0.015097356401383877,0.03152727708220482,-0.02051069214940071,0.043885459406594156,0.1943646152514725,-0.004824408008248071
0.3116612434387207,-0.0024554282426834106,-0.0042882561683654785,-0.011280238628387451,0.004898781888186932,0.02383020892739296,-0.019805751740932465,0.04392839429241815,0.19454058356069615,-0.005044643676135595
0.32122111320495605,-0.0026661306619644165,-0.009736783802509308,-0.010521113872528076,-0.0037902810145169497,0.020295927301049232,-0.015901770442724228,0.04389671257276009,0.1946463000693628,-0.005213043685370072
0.3314371109008789,-0.0033913850784301758,-0.009434256702661514,-0.008069157600402832,-0.00580229889601469,0.010996702127158642,-0.009856927208602428,0.043832959712085603,0.19468512271540236,-0.005323011859873709
0.3413362503051758,-0.001554444432258606,-0.00862264633178711,-0.007914423942565918,0.0007500424981117249,-0.002885557245463133,-0.0033866711892187595,0.04380531620347035,0.19460103871274137,-0.00538530854301505
0.35147523880004883,0.002208203077316284,-0.007418368011713028,-0.005832254886627197,0.013268232345581055,-0.016439449042081833,-0.0007083301316015422,0.043880512083181625,0.19439016636188253,-0.005407958631830694
0.36292219161987305,0.006146728992462158,-0.004002094268798828,-0.003262042999267578,0.027858825400471687,-0.02926540933549404,0.0053726788610219955,0.04412319739095512,0.19406357660468604,-0.005419460482164474
0.37158823013305664,0.0059629082679748535,-0.003329038619995117,-0.0026983022689819336,0.029660984873771667,-0.03245161846280098,0.00919191725552082,0.04444561771503369,0.19367798179876478,-0.005401202067905901
0.38158512115478516,0.006188780069351196,-0.005365148186683655,6.151199340820312e-05,0.020155763253569603,-0.031794171780347824,0.010686110705137253,0.04471384351446908,0.19330982960490595,-0.005351494415340582
0.3915860652923584,0.0026492178440093994,-0.009298127144575119,0.0019322037696838379,0.007122521288692951,-0.026927776634693146,0.010514603927731514,0.04488565474050377,0.19298404326493307,-0.005271397752300994
0.40154314041137695,0.002835184335708618,-0.01042332872748375,0.004161715507507324,-0.007110727019608021,-0.021319648250937462,0.010037736967206001,0.0449659804406841,0.19271725239508752,-0.005172054984723231
0.41257405281066895,0.0010991990566253662,-0.011109348386526108,0.008490920066833496,-0.01627200096845627,-0.014489704743027687,0.007708270568400621,0.0449207820022525,0.1925109598120716,-0.00506424471040955
0.42156314849853516,-0.001307561993598938,-0.011507503688335419,0.013047218322753906,-0.009129486046731472,-0.006767292972654104,0.010446906089782715,0.044858262299136704,0.19239728138365586,-0.00494689623389553
0.4333319664001465,-9.5367431640625e-07,-0.007461875677108765,0.014118015766143799,0.00803059246391058,-0.0019059586338698864,0.010037845000624657,0.044906130536380914,0.1923723291087315,-0.0048477843388084795
0.4414639472961426,-0.00013415515422821045,-0.0042929016053676605,0.013811111450195312,0.022375525906682014,0.001463606022298336,0.013430445455014706,0.0450998402566656,0.192416520633494,-0.0047618773702158435
0.45166707038879395,0.0017852932214736938,-0.002260398119688034,0.013875961303710938,0.029258999973535538,0.004838630091398954,0.01601744070649147,0.04540840802048782,0.1924846788379619,-0.004667396461760649
0.462177038192749,0.0007946789264678955,-0.0022248215973377228,0.015024423599243164,0.02448909543454647,0.01563939079642296,0.013319071382284164,0.045734247087580775,0.19262643949574648,-0.004573133709167359
0.4715871810913086,-0.0005686432123184204,-0.00625990703701973,0.016467571258544922,0.013452154584228992,0.02292606607079506,0.016193954274058342,0.046002415302922886,0.19283653549173896,-0.004465894490085532
0.4815530776977539,-0.0027090758085250854,-0.006379611790180206,0.016834557056427002,0.006641054525971413,0.025527529418468475,0.014050056226551533,0.04618808653299261,0.19310708450577796,-0.004332298651528269
0.49167394638061523,-0.0015211403369903564,-0.005559325218200684,0.01726388931274414,0.007672497071325779,0.02585669793188572,0.011947223916649818,0.04635242617623706,0.19337548570964563,-0.0042199820843768715
0.5015811920166016,0.001242905855178833,-0.0027283839881420135,0.017585933208465576,0.011608698405325413,0.02736613154411316,0.015463236719369888,0.046543798638873,0.19363958134217327,-0.00411576878969704
0.5118999481201172,0.003083139657974243,0.0033560730516910553,0.00983196496963501,0.02113642357289791,0.023715205490589142,0.011433606967329979,0.04678440657097293,0.19391263547601967,-0.004013322668823993
0.521536111831665,0.0020793676376342773,0.00526738166809082,0.004437446594238281,0.023916615173220634,0.019353434443473816,0.012536901980638504,0.04704805374030256,0.1941296473229409,-0.003932549979330387
0.5316581726074219,0.0023360401391983032,0.0032945647835731506,0.005957305431365967,0.02099406160414219,0.01975104585289955,0.011451130732893944,0.04730330498538553,0.1943371594629455,-0.0038527327054709666
0.5416631698608398,0.0002995431423187256,0.0025181882083415985,0.006519019603729248,0.02295326627790928,0.020576758310198784,0.009823566302657127,0.04753427165445134,0.19453338561016817,-0.003788713849701762
0.5517659187316895,-0.0037776678800582886,0.0013842284679412842,0.006708085536956787,0.027208732441067696,0.018783384934067726,0.009127150289714336,0.047850251869424196,0.1947419552300203,-0.003758437488425152
0.562434196472168,-0.005446285009384155,0.0020635761320590973,0.007233917713165283,0.03691988065838814,0.022908532992005348,0.007211911026388407,0.0481943006530432,0.19493757654541752,-0.003743521194164843
0.5716800689697266,-0.005697146058082581,0.003979597240686417,0.006380796432495117,0.057783883064985275,0.02670273929834366,0.00878291018307209,0.048707117546154866,0.19519850399630967,-0.0037596077576179474
0.5818319320678711,-0.007502391934394836,0.005273398011922836,0.002999246120452881,0.07359503954648972,0.024608073756098747,0.00712168263271451,0.049376108927480074,0.1954745430955332,-0.0038164876068687253
0.5917420387268066,-0.009331673383712769,0.008578527718782425,0.005792200565338135,0.07852934300899506,0.030866768211126328,0.011592332273721695,0.05010340167103683,0.19576027417304157,-0.0038816156022015327
0.6018681526184082,-0.008375629782676697,0.003291286528110504,0.005180001258850098,0.056271590292453766,0.031824395060539246,0.006793315056711435,0.0507221065016957,0.19608336914041352,-0.003919503145071034
0.6121749877929688,-0.010898992419242859,0.002340160310268402,0.0042746663093566895,0.02560688927769661,0.029047783464193344,0.0016744533786550164,0.05109898501305581,0.196404516202325,-0.003942121014726516
0.6219630241394043,-0.009334161877632141,-0.008014228194952011,0.00812298059463501,-0.008608388714492321,0.030048467218875885,-0.0054169585928320885,0.05113587403181696,0.19669224491896278,-0.003972413813857331
0.631749153137207,-0.010082647204399109,-0.011642567813396454,0.009578168392181396,-0.02921459637582302,0.026321373879909515,-0.007450814824551344,0.05090994901105354,0.19695563879864417,-0.003997130848590972
0.6417732238769531,-0.009823471307754517,-0.007018815726041794,0.010152578353881836,-0.03427906706929207,0.019597070291638374,-0.008519754745066166,0.050543604221508345,0.19715468579034237,-0.0040072078712074894
0.6519351005554199,-0.008327260613441467,-0.004518803209066391,0.0067018866539001465,-0.02951786480844021,0.00883230660110712,-0.00893201120197773,0.05017449594643063,0.1972591549609177,-0.004025229550578047
0.6625580787658691,-0.006082504987716675,0.00012181326746940613,0.002232372760772705,-0.02384924329817295,0.0027921239379793406,-0.007075522094964981,0.0498556119521379,0.19725422492189668,-0.0040516119050422635
0.6720950603485107,-0.004311099648475647,0.0014618895947933197,-0.0018159747123718262,-0.016065355390310287,-0.002307030837982893,-0.004763898439705372,0.04959319120227168,0.19718788684935612,-0.004067030795826183
0.6836991310119629,-0.005163282155990601,-0.001719750463962555,-0.00231093168258667,-0.011772223748266697,-0.002618132159113884,-0.0008965091546997428,0.04943259053419413,0.197106054142058,-0.004066242556267273
0.6919069290161133,-0.00832715630531311,-0.0031417161226272583,-0.0011376738548278809,-0.00908056739717722,-0.009012115187942982,0.0012079208390787244,0.049322749282286464,0.196985745949355,-0.004046339353909883
0.7019710540771484,-0.005874618887901306,9.606406092643738e-05,-0.00014007091522216797,-0.010156883858144283,-0.016110859811306,0.0013899743789806962,0.0493103939338114,0.19680290231551922,-0.004010460538691026
0.7125191688537598,-0.003291487693786621,-0.0021750405430793762,-0.0008390545845031738,-0.01642037183046341,-0.01978016458451748,0.00011645082850009203,0.0492670188544496,0.19656430542811415,-0.003983526221001603
0.7219440937042236,-0.0023977458477020264,-0.007464803755283356,0.0005125999450683594,-0.023219522088766098,-0.020459802821278572,-0.0003689369768835604,0.049119292073497266,0.19632030552321422,-0.00394935896592003
0.7320551872253418,-0.0038033276796340942,-0.004251062870025635,0.0008341670036315918,-0.02636817656457424,-0.023542145267128944,-0.0019460609182715416,0.04889953605405618,0.1960551762173967,-0.0039051483618730764
0.7420840263366699,-0.004702925682067871,-0.002270665019750595,0.007608950138092041,-0.024102643132209778,-0.020385898649692535,-0.0042908675968647,0.04865185915099865,0.19580290242830084,-0.0038936809745973634
0.7521350383758545,-0.0039658695459365845,-0.004581991583108902,0.009235560894012451,-0.022392094135284424,-0.020757943391799927,-0.0044844793155789375,0.048415444541038674,0.1955778629839875,-0.003893638575373484
0.7622432708740234,-0.004278630018234253,-0.0019416175782680511,0.007104098796844482,-0.019205840304493904,-0.014842307195067406,-0.0032719424925744534,0.04821745324101881,0.19536568543776525,-0.003889928372858732
0.7719602584838867,0.0002793222665786743,-0.003253597766160965,0.008074700832366943,-0.012960460036993027,-0.011224670335650444,-0.003050100989639759,0.04806497028460243,0.1951974464592856,-0.003891177360615841
0.7822260856628418,-0.0012611299753189087,-0.002520263195037842,0.007784426212310791,-0.012624152936041355,-0.009315405040979385,-0.0016980140935629606,0.04794366873981733,0.19507102347591165,-0.0038883749795137067
0.7919831275939941,-0.0001890808343887329,-0.0017715655267238617,0.009944677352905273,-0.014906748197972775,-0.008451474830508232,-0.0010247669415548444,0.04783775615537387,0.19497257263273932,-0.003865300318380683
0.8020381927490234,0.001116231083869934,-0.00433436781167984,0.008335351943969727,-0.023936495184898376,-0.008319294080138206,-0.000884152133949101,0.04770094030361072,0.19488494573993384,-0.003841258965796649
0.812283992767334,0.0033490657806396484,-0.005119316279888153,0.011494696140289307,-0.035484760999679565,-0.0075674839317798615,0.0013829970266669989,0.04744976861643613,0.19478399588325016,-0.0037854055679689053
0.8220372200012207,0.0034034252166748047,-0.006456464529037476,0.01413506269454956,-0.042847052216529846,-0.00422055646777153,0.0007439980981871486,0.04708877939579991,0.1947095935150185,-0.003685619116458193
0.8320291042327881,0.0029090046882629395,-0.005430590361356735,0.01570427417755127,-0.051933225244283676,-0.003202696330845356,0.002718199510127306,0.04666460407055888,0.19466523059471805,-0.0035839287634356573
0.8420219421386719,0.0030075162649154663,-0.0053691864013671875,0.016041338443756104,-0.06021504104137421,-0.0024627367965877056,0.0021488156635314226,0.04614561759393186,0.1946222333639874,-0.0034485917372807226
0.8519530296325684,0.002666294574737549,-0.005180533975362778,0.015460491180419922,-0.06791450083255768,-0.004135468043386936,0.0032457716297358274,0.045555444259215885,0.19460696281667136,-0.0033017021639573673
0.861936092376709,0.0030128955841064453,-0.005265861749649048,0.01932626962661743,-0.07603228837251663,-0.0018785279244184494,0.004293512552976608,0.04488960579118833,0.19457432859454196,-0.0031265416179321625
0.8721411228179932,0.0025276988744735718,-0.005223531275987625,0.020599961280822754,-0.08611927926540375,-0.005362742114812136,0.0052991220727562904,0.044137736849044276,0.1945490079451191,-0.0029229078150691075
0.8821101188659668,0.002252250909805298,-0.007680792361497879,0.018586337566375732,-0.09543804079294205,-0.005493768956512213,0.0067405314184725285,0.043297103811050286,0.1944958798200146,-0.0026882224642069503
0.8921809196472168,0.0026119351387023926,-0.010333426296710968,0.022615492343902588,-0.11266230046749115,-0.004145943094044924,0.0072401403449475765,0.04233731263029193,0.19446331098618524,-0.0024148365198920154
0.902122974395752,0.0014216601848602295,-0.010549858212471008,0.026216566562652588,-0.15365250408649445,-0.011724677868187428,0.007419850677251816,0.041112731463868075,0.194406636159349,-0.0020848588905348063
0.9122121334075928,0.00048451125621795654,-0.012472696602344513,0.029210329055786133,-0.2331308275461197,-0.028150521218776703,-0.008522097952663898,0.039279969348436666,0.19421185484196749,-0.001708660402636915
0.9221010208129883,0.0019198358058929443,-0.023351013660430908,0.03617668151855469,-0.4034847617149353,-0.06063509359955788,-0.03917103260755539,0.0362577703735021,0.19379935302717735,-0.0013253032384583441
0.9323549270629883,0.002269953489303589,-0.04300839826464653,0.045324862003326416,-0.8906179070472717,-0.1492704153060913,-0.16449487209320068,0.03000942100425727,0.1927484576440681,-0.001066667035419957
0.9421811103820801,-0.0015974491834640503,-0.09019806981086731,0.09026902914047241,-1.612583875656128,-0.12238847464323044,-0.28865766525268555,0.01731623100658111,0.1912976752496876,-0.0009648583742683399
0.9523530006408691,-0.00673384964466095,-0.19735310971736908,0.1388271450996399,-2.312821388244629,-0.17121806740760803,-0.35151946544647217,-0.002528895135660569,0.1900201414458657,-0.0003696880887301126
0.9627060890197754,-0.024644121527671814,-0.2617001235485077,0.15366750955581665,-3.0083670616149902,-0.20275455713272095,-0.48018598556518555,-0.029572474928314222,0.18811057408147652,0.0005742024703693865
0.9721510410308838,-0.0133742094039917,-0.20408573746681213,0.19025009870529175,-3.492398738861084,-0.30741384625434875,-0.5253491997718811,-0.06243318915446187,0.18574451116651777,0.0016239131880167183
0.9822320938110352,0.016396358609199524,-0.14136992394924164,0.15707862377166748,-4.00004243850708,-0.50201815366745,-0.5812457799911499,-0.10043151095539804,0.18178809820907893,0.003046988499105516
0.9927129745483398,0.026972874999046326,-0.14060194790363312,0.16007792949676514,-4.46642541885376,-0.6615611910820007,-0.6217612624168396,-0.1431811402480675,0.17621687705666175,0.004694800109125385
1.0022740364074707,0.0515376478433609,-0.1784343272447586,0.13060516119003296,-5.031155586242676,-0.9297034740447998,-0.7176265120506287,-0.19113159436576152,0.16849901085257396,0.0062812151262494524
1.0127301216125488,0.06493030488491058,-0.18019650876522064,0.10044264793395996,-5.749608516693115,-1.1567829847335815,-0.7975761890411377,-0.24539619054180442,0.15841408122569475,0.007584304306565612
1.0223631858825684,0.0759442001581192,-0.19810569286346436,0.10073918104171753,-6.549248218536377,-1.2623440027236938,-0.8713905215263367,-0.3074972278325847,0.14648287345464853,0.008672888334665976
1.032289981842041,0.049316197633743286,-0.21502050757408142,0.09650707244873047,-7.476356029510498,-1.364696741104126,-0.9035396575927734,-0.37843864289095597,0.13353558761427015,0.009743961740072239
1.0422840118408203,0.007825121283531189,-0.21531668305397034,0.08102202415466309,-8.3214750289917,-1.408251404762268,-0.8656303882598877,-0.4578966025785595,0.1203070700038351,0.011026531541853807
1.0524320602416992,-0.00988413393497467,-0.17429840564727783,0.051631152629852295,-8.859331130981445,-1.4634523391723633,-0.7740283012390137,-0.5445856300317586,0.10673531391825024,0.012798733247421243
1.0628771781921387,-0.008083418011665344,-0.08249342441558838,0.0029509663581848145,-9.036479949951172,-1.540844202041626,-0.6286394596099854,-0.6347311170240534,0.09303933332727693,0.015242435865350935
1.0724120140075684,0.005852065980434418,0.0021921396255493164,-0.06899785995483398,-8.725635528564453,-1.608761191368103,-0.5316787958145142,-0.7239628172588617,0.0788511716732512,0.017656825537318916
1.0823960304260254,0.0062296949326992035,0.09442770481109619,-0.1434638500213623,-8.199953079223633,-1.6899044513702393,-0.44732826948165894,-0.8089982924754464,0.0632845069872051,0.019219542877603503
1.0924720764160156,-0.007086185738444328,0.15337258577346802,-0.2053462266921997,-7.082740783691406,-1.5822288990020752,-0.28345412015914917,-0.8858989172827471,0.047739153919363744,0.020175343079253037
1.1023480892181396,-0.015235215425491333,0.17706221342086792,-0.2947847843170166,-5.658588886260986,-1.5303782224655151,-0.27699947357177734,-0.9497917639164574,0.03182764950996182,0.019834632955735454
1.1128249168395996,-0.053427599370479584,0.20536589622497559,-0.34582728147506714,-3.8780930042266846,-1.2926751375198364,-0.2007875144481659,-0.9977868820856249,0.01566100076443685,0.017463857588122588
1.122392177581787,-0.09033218026161194,0.23535269498825073,-0.31573688983917236,-2.1989476680755615,-1.1120250225067139,-0.15853466093540192,-1.0281352892717426,0.0013890630023514277,0.014804827298582518
1.1324071884155273,-0.112015001475811,0.2566986680030823,-0.2330693006515503,-0.3906218409538269,-0.749419093132019,-0.11129604279994965,-1.0413120590464702,-0.010754519374866538,0.011824841596491865
1.1423671245574951,-0.1297527551651001,0.26268434524536133,-0.1294810175895691,1.690503716468811,-0.1723988652229309,0.029140327125787735,-1.0350236048589454,-0.01582785327536367,0.011275132241468162
1.1525802612304688,-0.13469696044921875,0.30384576320648193,-0.10878795385360718,4.189128875732422,0.3958749771118164,0.13455277681350708,-1.0057739542338002,-0.012610621798827099,0.01371124647029767
1.1624770164489746,-0.13461406528949738,0.4327291250228882,-0.11653226613998413,6.967321395874023,1.066508412361145,0.15913641452789307,-0.949965123646819,-0.002463932753668638,0.017148785854229208
1.1725921630859375,-0.1336679458618164,0.5676915645599365,-0.11148172616958618,9.67211627960205,1.7872436046600342,0.07752969861030579,-0.8664982352254057,0.012986586498111588,0.018571209894284627
1.1874730587005615,-0.1723100244998932,0.7522194385528564,-0.024432659149169922,12.15311336517334,2.6272566318511963,-0.03354521095752716,-0.7570653300492812,0.03263949950268041,0.015189757203219283
1.198655128479004,-0.247453972697258,0.9251278638839722,0.1171562671661377,14.203910827636719,3.3632102012634277,-0.10077404975891113,-0.6252237480976651,0.05714852040124648,0.006604497542080414
1.2067489624023438,-0.3185376822948456,1.059067726135254,0.2852858304977417,15.885152816772461,3.8436684608459473,-0.019031783565878868,-0.4746364723152208,0.08653015210171472,-0.006833550832058578
1.2180161476135254,-0.3371667265892029,1.252589464187622,0.4320974349975586,17.239973068237305,4.001038074493408,0.13262991607189178,-0.3092627224173364,0.11932729733802644,-0.02472472307571135
1.2252490520477295,-0.295876145362854,1.5070923566818237,0.5546405911445618,17.820756912231445,3.79097843170166,0.3052482306957245,-0.13459483722843787,0.15357558916420871,-0.047083250946506734
1.2338950634002686,-0.2143968641757965,1.610860824584961,0.6957808136940002,17.016517639160156,3.407202959060669,0.40386560559272766,0.038742188794076905,0.18842886537491443,-0.07324601611916418
1.2428021430969238,-0.14145292341709137,1.4744160175323486,0.8698408007621765,14.721393585205078,2.989323377609253,0.30774277448654175,0.19589672224084984,0.2239057140728586,-0.10249442830730383
1.252593994140625,-0.1301618218421936,1.1228597164154053,1.0542614459991455,11.46141529083252,2.9054694175720215,-0.08737500011920929,0.3240907149396816,0.2613220193667088,-0.13374229615657462
1.2632641792297363,-0.19650524854660034,0.6584311127662659,1.0483856201171875,8.296844482421875,3.0211050510406494,-1.165428638458252,0.4166595438097668,0.3038432403621729,-0.1692319721883228
1.2725920677185059,-0.3431490361690521,0.10842746496200562,0.9076247811317444,5.895660877227783,3.3557894229888916,-2.041701316833496,0.47815584140756967,0.3541897754594262,-0.21165053805428788
1.282595157623291,-0.43603673577308655,-0.44047001004219055,0.8302532434463501,4.891303539276123,3.6046297550201416,-2.315894842147827,0.5189423388678491,0.4110947999571643,-0.2575259610320242
1.2926349639892578,-0.3640909492969513,-0.305279016494751,0.7759495973587036,4.767969131469727,3.399932384490967,-2.2337799072265625,0.5526942965724908,0.4709398200933975,-0.305416179709206
1.3026399612426758,-0.1430191695690155,0.1820366382598877,0.6932960152626038,4.970977306365967,2.629195213317871,-2.2599358558654785,0.5847807397394594,0.5289925851396744,-0.3564757615981195
1.313791036605835,0.21306711435317993,0.3905668258666992,0.8029891848564148,5.270148277282715,1.9921057224273682,-2.4327661991119385,0.61579677421833,0.5839895814357392,-0.41343318448799793
1.322659969329834,0.46936097741127014,0.25609588623046875,0.9027177691459656,5.576648235321045,1.697596788406372,-2.4274823665618896,0.6463060209505688,0.6399931076291006,-0.47702317343209505
1.3326771259307861,0.47006988525390625,0.19945526123046875,0.7938686609268188,5.484495162963867,1.4559847116470337,-2.30595326423645,0.6753173162451255,0.6969840091197541,-0.5441941483409726
1.3426110744476318,0.40375763177871704,0.13661617040634155,0.610784649848938,5.034190654754639,1.229718804359436,-2.1949541568756104,0.6999367581154157,0.7530465393716798,-0.611401199947077
1.3527851104736328,0.39370882511138916,-0.1064687967300415,0.4179990887641907,4.367203712463379,1.1689015626907349,-2.096140146255493,0.7182160103309753,0.8066917945748492,-0.6753806581581483
1.362767219543457,0.3720323443412781,-0.3595172166824341,0.1971101462841034,3.575082302093506,1.082251787185669,-1.8629547357559204,0.7304447422699956,0.8558783308697833,-0.7325674211757146
1.3727600574493408,0.2814640402793884,-0.4823755621910095,0.05729639530181885,2.9302849769592285,1.2661209106445312,-1.652937889099121,0.7377276024178736,0.9003418205332433,-0.7812939643387615
1.3833050727844238,0.16257625818252563,-0.5701643824577332,0.029262304306030273,2.4637341499328613,1.271884799003601,-1.387761116027832,0.7418732827255066,0.9411771640045438,-0.8228252237237597
1.3926310539245605,0.042308270931243896,-0.6678566932678223,0.011218011379241943,2.0802109241485596,1.1909449100494385,-1.0001577138900757,0.7450579448219485,0.9769674368132424,-0.8574336512210544
1.4027900695800781,0.027299225330352783,-0.6753116250038147,0.06236827373504639,1.8180925846099854,1.1710835695266724,-0.5718351006507874,0.7491225804138135,1.0077899580754426,-0.8854484148981425
1.4128742218017578,-0.04124152660369873,-0.6661007404327393,0.03615051507949829,1.537635326385498,1.1198315620422363,-0.20621876418590546,0.7546093040705404,1.0346392652701442,-0.9079369887371639
1.4227452278137207,-0.09983569383621216,-0.6352839469909668,-0.014844119548797607,1.219206690788269,1.133530855178833,0.07428282499313354,0.7610085030784233,1.0574712683610197,-0.9248353507299834
1.4328022003173828,-0.12087887525558472,-0.6175678968429565,-0.020367443561553955,0.7543559074401855,1.176137924194336,0.2682831883430481,0.7673923808491742,1.0765434150410125,-0.9357151161494105
1.4428701400756836,-0.14885443449020386,-0.5507875084877014,-0.018353700637817383,0.33407723903656006,1.2581621408462524,0.3096640706062317,0.772504281101716,1.0919312651758184,-0.940296753516857
1.4528391361236572,-0.1615871787071228,-0.4352133274078369,0.01827910542488098,0.24768108129501343,1.2620929479599,0.24601878225803375,0.7762454467880551,1.1056943571586493,-0.9418799768770212
1.4636502265930176,-0.14554929733276367,-0.19724810123443604,0.013952314853668213,0.2869270145893097,1.3343144655227661,0.19880670309066772,0.7794857899980493,1.1199664424251488,-0.9438264365046066
1.4728469848632812,-0.1086696982383728,0.061823487281799316,0.016203701496124268,0.3386642634868622,1.2110011577606201,0.05915559083223343,0.7819454231019807,1.1349652388837115,-0.9469172625804358
1.48284912109375,-0.08588677644729614,0.17112630605697632,0.04607200622558594,0.5052332878112793,1.1209743022918701,-0.12632863223552704,0.7833716031555645,1.150511027546453,-0.9525416228075904
1.4929821491241455,-0.0029630661010742188,0.2527533173561096,0.043499916791915894,0.5774025917053223,1.0140299797058105,-0.246554896235466,0.7838563500024361,1.1670276669186264,-0.9606838356321735
1.503006935119629,0.034600794315338135,0.29547446966171265,-0.00981605052947998,0.6324845552444458,0.8485672473907471,-0.4157475531101227,0.7831192771768403,1.1831629312875418,-0.9703758405633685
1.5132040977478027,0.12015324831008911,0.2379724383354187,-0.058032870292663574,0.5572113394737244,0.6861953735351562,-0.5092092752456665,0.7810662202337973,1.1981283632873632,-0.9807273124762531
1.5228691101074219,0.17748868465423584,0.13667339086532593,-0.11225458979606628,0.42274463176727295,0.5354349613189697,-0.5399463772773743,0.7778540592843503,1.2106623364960334,-0.9898271693361459
1.5329179763793945,0.19776713848114014,0.01170581579208374,-0.14396238327026367,0.3807929456233978,0.3471100330352783,-0.4525664448738098,0.7745423805895534,1.2204669038143203,-0.9974508760450055
1.5428681373596191,0.21422719955444336,-0.03376823663711548,-0.1705368161201477,0.3785164952278137,0.1168479397892952,-0.3598562777042389,0.7720010424279199,1.2276111432674828,-1.0043647973274323
1.5530409812927246,0.20843547582626343,-0.04776078462600708,-0.16425031423568726,0.4015270173549652,-0.09102136641740799,-0.30931612849235535,0.7701921039135938,1.2323660847069606,-1.0110479961665428
1.563157081604004,0.177503764629364,-0.08631473779678345,-0.18273812532424927,0.3702605366706848,-0.15557724237442017,-0.23211811482906342,0.768924419357313,1.2354887968731783,-1.0174725273652523
1.5729601383209229,0.13572484254837036,-0.10725915431976318,-0.2748388648033142,0.1814597100019455,-0.15268771350383759,-0.13928644359111786,0.7681260285907217,1.2371482516069745,-1.022084771631737
1.58321213722229,0.07727676630020142,-0.13979679346084595,-0.3192822337150574,-0.07971504330635071,-0.16437315940856934,-0.06992500275373459,0.7672907688254923,1.2363424791340267,-1.0231802622883521
1.5930352210998535,0.05725550651550293,-0.2116735577583313,-0.26679015159606934,-0.22238777577877045,-0.24846114218235016,-0.022193169221282005,0.7663262446511642,1.2329834295165205,-1.0212769761381253
1.6030890941619873,0.055070579051971436,-0.19043892621994019,-0.1942591518163681,-0.23552165925502777,-0.35887372493743896,0.04371654987335205,0.765619796919109,1.2277798022318334,-1.0181618420122693
1.6140022277832031,0.061280131340026855,-0.1024240255355835,-0.14911863207817078,-0.19745896756649017,-0.4399043917655945,0.12094316631555557,0.7656652114249616,1.221479129286699,-1.0148802059566886
1.6231951713562012,0.04877251386642456,-0.02375650405883789,-0.12845107913017273,-0.1085701584815979,-0.48913848400115967,0.17346149682998657,0.7665239246633812,1.2149373516017274,-1.0121725265721355
1.6333060264587402,0.028365731239318848,0.01715916395187378,-0.12060320377349854,-0.0828930214047432,-0.5331426858901978,0.20524819195270538,0.7680597846922133,1.2083508413146553,-1.0100768499078194
1.64308500289917,0.01038426160812378,0.03457474708557129,-0.08498385548591614,-0.1440041959285736,-0.5180637240409851,0.18658560514450073,0.7694895708988467,1.201424626209439,-1.0076770248979143
1.6531991958618164,-0.01542365550994873,-0.008414804935455322,-0.03353685140609741,-0.2539277672767639,-0.495514452457428,0.11886754631996155,0.7702469889483574,1.1939338721072645,-1.0042960639222047
1.6638479232788086,-0.04722464084625244,-0.04556173086166382,0.014896124601364136,-0.31996989250183105,-0.439079612493515,0.06374203413724899,0.7699821421145975,1.1863184227506647,-1.0000385881192129
1.6731939315795898,-0.06839537620544434,-0.03444242477416992,0.049580663442611694,-0.32766324281692505,-0.3790924549102783,0.04310013726353645,0.7692111712076413,1.1790702385560217,-0.9955566403222743
1.6845030784606934,-0.06366455554962158,0.04002940654754639,0.07188424468040466,-0.2960905134677887,-0.34485283493995667,0.07892705500125885,0.7685441035497441,1.1724455022435338,-0.9911673861859231
1.6931252479553223,-0.046121835708618164,0.10361838340759277,0.09960460662841797,-0.2573854625225067,-0.29538169503211975,0.09465088695287704,0.7682972745518587,1.1664678895167795,-0.9872026218386394
1.703226089477539,-0.02957552671432495,0.13341295719146729,0.12651461362838745,-0.2552412450313568,-0.2647239863872528,0.10366899520158768,0.7682042861638793,1.1610402453573385,-0.9834013861917266
1.7134311199188232,-0.025285184383392334,0.09074312448501587,0.11730298399925232,-0.2782008945941925,-0.2062641680240631,0.08314134925603867,0.7680470440965999,1.1558662545310128,-0.9794467622920614
1.7230372428894043,-0.01644808053970337,0.061174988746643066,0.08521193265914917,-0.3093911111354828,-0.14043249189853668,0.028123637661337852,0.7673731963877981,1.1513553908825795,-0.9754363510906706
1.7332720756530762,-0.027679741382598877,0.009079515933990479,0.05943953990936279,-0.3393726944923401,-0.06537503004074097,-9.282038081437349e-05,0.7660991737828291,1.1473783867062712,-0.9712047407420524
1.7432560920715332,-0.01824551820755005,-0.03330129384994507,0.05149531364440918,-0.2766335606575012,-0.049145378172397614,-0.015766482800245285,0.7647561170709714,1.144051661886508,-0.9671894245851769
1.7534401416778564,-0.006451547145843506,-0.024469316005706787,0.06043204665184021,-0.1264725625514984,-0.08190012723207474,-0.012793062254786491,0.7637163985060204,1.1418188822538955,-0.9648024855748646
1.7643451690673828,0.010210871696472168,-0.006816089153289795,0.06700402498245239,-0.025657961145043373,-0.14245197176933289,0.0007167273433879018,0.7633768161531828,1.1400461954726961,-0.9639163175087121
1.7732939720153809,0.033190131187438965,-0.005961120128631592,0.06642988324165344,-0.0400419607758522,-0.16686010360717773,0.007213242817670107,0.7633140658043739,1.1382516176268958,-0.9635814115464308
1.7832450866699219,0.020648419857025146,-0.06527376174926758,0.05489799380302429,-0.12006231397390366,-0.13680914044380188,0.00428056949749589,0.7630372574717027,1.136018271977801,-0.9625569407958274
1.793328046798706,-0.004334092140197754,-0.12947869300842285,0.0445292592048645,-0.18192408978939056,-0.13153181970119476,0.00992593914270401,0.7624729518251022,1.1333245013365807,-0.9605800310354002
1.8032889366149902,-0.014510035514831543,-0.1338023543357849,0.04653969407081604,-0.22358275949954987,-0.12036611884832382,0.018511170521378517,0.7617061915828968,1.130271662193967,-0.9579810881861028
1.8135910034179688,-0.006346523761749268,-0.11608833074569702,0.039297789335250854,-0.2871689200401306,-0.12603119015693665,0.03657166659832001,0.7608820279006956,1.1266929616154704,-0.9546092744139507
1.8236620426177979,0.0067768096923828125,-0.1154128909111023,0.017230898141860962,-0.2992580235004425,-0.09206864982843399,0.07776772975921631,0.7600452811523853,1.1228289962463185,-0.95056437439419
1.8332791328430176,0.015876829624176025,-0.11150765419006348,-0.02192068099975586,-0.22309935092926025,-0.11238723993301392,0.14006012678146362,0.7599176091988319,1.119073436428595,-0.9465582922391016
1.8432369232177734,0.023981988430023193,-0.032610952854156494,-0.05680111050605774,-0.18020489811897278,-0.15033049881458282,0.15746533870697021,0.7604138951203332,1.115515699210074,-0.9433033640706541
1.8534269332885742,0.0377659797668457,0.0029774904251098633,-0.048664629459381104,-0.3362584114074707,-0.17941807210445404,0.13681811094284058,0.7606945976929331,1.111082484676343,-0.939305617737441
1.86348295211792,0.023569345474243164,-0.0734628438949585,-0.031680941581726074,-0.6498343348503113,-0.16278032958507538,0.08349751681089401,0.7595031214390975,1.104729126275376,-0.9326219141830282
1.8733201026916504,0.0018611550331115723,-0.17798608541488647,-0.022931694984436035,-0.9285857677459717,-0.12008026987314224,0.0766686424612999,0.7565186881630499,1.096327100020561,-0.9223912266239975
1.8834152221679688,-0.019526362419128418,-0.21224260330200195,-0.022716641426086426,-0.9919118285179138,-0.14429986476898193,0.10286419093608856,0.75285240350678,1.0864551537560332,-0.909876592187134
1.8934290409088135,-0.0007355213165283203,-0.10153043270111084,-0.008724838495254517,-0.8926241397857666,-0.21397428214550018,0.15004020929336548,0.7495044043166869,1.0763888697211206,-0.8976915972135006
1.9035992622375488,0.024029016494750977,0.019670188426971436,0.009160339832305908,-0.9159994721412659,-0.2790665030479431,0.17401953041553497,0.7467149541609136,1.0658692347043792,-0.8859458063560949
1.9137990474700928,0.027741312980651855,0.0342254638671875,0.02244943380355835,-1.2502920627593994,-0.24082404375076294,0.14077423512935638,0.7428940562334966,1.0539273809325298,-0.8722380161166554
1.9234042167663574,-0.0009807348251342773,-0.10729485750198364,0.013005375862121582,-1.80888831615448,-0.21314562857151031,0.1394791454076767,0.736455860330302,1.0389965560590375,-0.8534049654705376
1.9336762428283691,-0.03018665313720703,-0.275820791721344,0.024738281965255737,-2.4092183113098145,-0.21743197739124298,0.06369782239198685,0.7264599700098914,1.0201328570536912,-0.8283566209152904
1.9434542655944824,-0.018037080764770508,-0.34877538681030273,0.06591612100601196,-2.921743869781494,-0.2934828996658325,0.03166510909795761,0.7124993491464952,0.9975392935494963,-0.7978922595476242
1.9535551071166992,-0.007234632968902588,-0.38000160455703735,0.08900618553161621,-3.007659912109375,-0.39734673500061035,0.1919141709804535,0.6967878407901665,0.9724796400732019,-0.7644494787338493
1.963778018951416,0.026419460773468018,-0.24865353107452393,0.10758322477340698,-2.7249388694763184,-0.6470791697502136,0.35463058948516846,0.6825078385786433,0.9464230577721502,-0.7316290326570084
1.9734759330749512,0.06244379281997681,0.05260729789733887,0.14624792337417603,-2.1933374404907227,-0.9096956253051758,0.4449831247329712,0.6710271080155692,0.920838812709272,-0.7031952236468615
1.983476161956787,0.0907096266746521,0.2436431646347046,0.15122836828231812,-1.9281296730041504,-1.1527684926986694,0.593388020992279,0.6626716866271499,0.8952923062820144,-0.678709848410597
1.9935169219970703,0.09372854232788086,0.23687142133712769,0.11000972986221313,-2.1568691730499268,-1.235748529434204,0.5935773849487305,0.6544565656416811,0.8681891330695516,-0.6541237571596475
2.0035271644592285,0.0666915774345398,-0.030651330947875977,0.0961374044418335,-2.675644874572754,-1.25387442111969,0.633674681186676,0.6432081377668871,0.8388858732656862,-0.6262310646753317
2.0136940479278564,0.02143692970275879,-0.2861027121543884,0.10678243637084961,-3.1859610080718994,-1.2601892948150635,0.6488323211669922,0.6278826200088452,0.8071721311785107,-0.5940086427595211
2.023522138595581,0.022193968296051025,-0.3239215612411499,0.12550336122512817,-3.611834764480591,-1.2985281944274902,0.6942969560623169,0.6086796225832328,0.7738182422298658,-0.5585118965620243
2.033623218536377,0.04518938064575195,-0.3122865557670593,0.1413896679878235,-4.069426536560059,-1.3487213850021362,0.7761164903640747,0.5858065158213651,0.7389916053147022,-0.5202094537504168
2.0434670448303223,0.0706983208656311,-0.29613834619522095,0.19969558715820312,-4.741489887237549,-1.3407865762710571,0.7845832705497742,0.5580105846387392,0.7029558299814626,-0.47862550557741057
2.0537331104278564,0.07831895351409912,-0.3533276915550232,0.2408003807067871,-5.625606536865234,-1.2750846147537231,0.7138939499855042,0.52261801338522,0.6667191126097018,-0.43367540983206254
2.064284086227417,0.06595945358276367,-0.49241000413894653,0.2698887586593628,-6.090504169464111,-1.2550716400146484,0.6034822463989258,0.4793336834797302,0.6315623496106629,-0.3867674884960495
2.073568105697632,0.05819201469421387,-0.5575528144836426,0.33269745111465454,-5.922641754150391,-1.406530737876892,0.762003481388092,0.4335815970878816,0.5984943850974851,-0.3417001952774645
2.0836400985717773,0.09377196431159973,-0.2653745710849762,0.38510942459106445,-4.778555393218994,-1.6369608640670776,0.8405279517173767,0.393142960577931,0.567300040147739,-0.3018683794761433
2.0936710834503174,0.19777178764343262,0.273203581571579,0.3713289499282837,-3.511337995529175,-2.024038076400757,0.962057888507843,0.36247984682475815,0.5374498719563668,-0.2703347341853786
2.103652000427246,0.27930837869644165,0.514968752861023,0.31023722887039185,-2.4448330402374268,-2.4256250858306885,1.2227401733398438,0.34235729492246547,0.5061761177568105,-0.24446929964647507
2.113771915435791,0.33264777064323425,0.5262420177459717,0.27197641134262085,-1.9549916982650757,-2.6254007816314697,1.2186723947525024,0.32918265109793116,0.4733464393585135,-0.22209814025975697
2.1235930919647217,0.2895963788032532,0.2646130919456482,0.22269392013549805,-2.239313840866089,-2.5480055809020996,0.9653105139732361,0.31558673030307216,0.4409443081912018,-0.2020952859777126
2.1336612701416016,0.17554324865341187,-0.16054078936576843,0.21111375093460083,-3.2935547828674316,-2.290609836578369,0.5877912044525146,0.29402533614175597,0.41085925477860435,-0.1828753160466437
2.143637180328369,0.05905330181121826,-0.4596347510814667,0.20725363492965698,-4.743891716003418,-1.9568021297454834,0.15615633130073547,0.2583795590548866,0.38423811719052753,-0.16310504676380513
2.1537179946899414,-0.05597206950187683,-0.49445274472236633,0.24238115549087524,-6.209141731262207,-1.6259435415267944,-0.09663411229848862,0.20719130120705484,0.3615216769780305,-0.14255402869812164
2.1639411449432373,-0.12472590804100037,-0.27135133743286133,0.27670860290527344,-7.1365485191345215,-1.5095690488815308,-0.03664630651473999,0.1437859720712441,0.3420477514158123,-0.11973270404769046
2.1737570762634277,-0.08873048424720764,0.07930433005094528,0.26957130432128906,-7.5862956047058105,-1.5881741046905518,-0.07873330265283585,0.07383246148386231,0.323964211264144,-0.09587570278162548
2.1846611499786377,-0.001003563404083252,0.12914767861366272,0.2922123074531555,-7.638241291046143,-1.6521462202072144,-0.21915027499198914,0.0005923914434135686,0.3068684376687106,-0.07353202206310175
2.193700075149536,0.05181843042373657,0.014908850193023682,0.310852587223053,-7.447618007659912,-1.6435731649398804,-0.32658833265304565,-0.07241945948938518,0.29100576801524186,-0.05394359251523346
2.203623056411743,0.04682427644729614,-0.008089333772659302,0.286060094833374,-7.084015369415283,-1.6607545614242554,-0.3889811336994171,-0.14354580278105983,0.2763340415150457,-0.03681626457901494
2.2138540744781494,0.007203131914138794,0.020152956247329712,0.2765251398086548,-6.476438999176025,-1.6577025651931763,-0.5455246567726135,-0.2100098235560248,0.2620844420853474,-0.0230639251279385
2.223586082458496,-0.027970537543296814,-0.08357122540473938,0.244515061378479,-6.235579967498779,-1.6527265310287476,-0.6984604001045227,-0.27315859486336286,0.24792950863222182,-0.012777580191060138
2.2336630821228027,-0.045383378863334656,-0.1459176242351532,0.22448551654815674,-5.932161331176758,-1.5127499103546143,-0.7675641179084778,-0.3341057367743786,0.23434313134053186,-0.005029495903351917
2.2437970638275146,-0.04846160113811493,-0.1643022894859314,0.22557711601257324,-6.204571723937988,-1.4427801370620728,-0.8603867292404175,-0.39433765664848186,0.22184189464014914,0.0010361910985748559
2.2538132667541504,-0.06705443561077118,-0.16194742918014526,0.1891345977783203,-6.45089054107666,-1.3731367588043213,-0.8678002953529358,-0.458788019296054,0.20999309981402164,0.006610101427950799
2.2643001079559326,-0.07319074869155884,-0.17768120765686035,0.2554389238357544,-6.505195140838623,-1.1588823795318604,-0.7140259146690369,-0.5236960256585736,0.20008306067350634,0.012771268521533404
2.274057149887085,-0.03569529950618744,-0.25236862897872925,0.156549334526062,-6.485114574432373,-0.9792202115058899,-0.6587203145027161,-0.5889455913602775,0.19324267408834533,0.019869385695994717
2.283931255340576,-0.027961239218711853,-0.1749272346496582,0.1648463010787964,-6.176595211029053,-0.8129696249961853,-0.5815269947052002,-0.65260053836756,0.1884123394496829,0.027130309711099237
2.2940149307250977,-0.039970338344573975,-0.10182255506515503,0.18965750932693481,-5.574864387512207,-0.6258509159088135,-0.39050883054733276,-0.7114590614258716,0.18622638126768315,0.03504049415490561
2.3044071197509766,-0.029808297753334045,-0.036765098571777344,0.1327660083770752,-4.808255195617676,-0.5359312891960144,-0.1986212581396103,-0.7631474302302257,0.18664819643692204,0.04420246140656694
2.314023017883301,-0.005863025784492493,0.0947275161743164,0.07998639345169067,-3.8664560317993164,-0.47182151675224304,-0.023941054940223694,-0.8061143207585375,0.18866496176512712,0.05412582669145372
2.323836088180542,0.026631340384483337,0.18083792924880981,0.059556782245635986,-2.867776393890381,-0.46946045756340027,0.15223893523216248,-0.8391016227161866,0.19151628940212942,0.06444003560663866
2.3339180946350098,0.047710120677948,0.24683552980422974,0.02109891176223755,-1.905678629875183,-0.4456222355365753,0.3234833776950836,-0.8620001949182144,0.194819337389614,0.07495575792452067
2.343867063522339,0.03899283707141876,0.31257951259613037,-0.0070230960845947266,-1.174112319946289,-0.40366068482398987,0.4385620951652527,-0.8762165268420543,0.1985882810019168,0.08546022210431277
2.353957176208496,0.0178307443857193,0.33033013343811035,-0.028316020965576172,-0.7058830261230469,-0.3171587884426117,0.5029096603393555,-0.8843545359368857,0.20274022530518784,0.09561268488039683
2.364000082015991,-0.011464059352874756,0.27235668897628784,-0.01889747381210327,-0.4284076392650604,-0.20270191133022308,0.5715497732162476,-0.8886839445869164,0.20800954909167485,0.10575441081839733
2.3739709854125977,-0.039925768971443176,0.1963289976119995,-0.023010194301605225,-0.3041791617870331,-0.06792651861906052,0.5896685719490051,-0.8909755035419253,0.2146467298360052,0.11603033517098454
2.3839550018310547,-0.06738713383674622,0.16114985942840576,-0.018974244594573975,-0.278839647769928,0.05709242448210716,0.5781254768371582,-0.8925184513537081,0.22245562805050728,0.12612611193162163
2.39394211769104,-0.08167898654937744,0.13824158906936646,-0.015050172805786133,-0.28213027119636536,0.17029860615730286,0.5620370507240295,-0.8939621981188107,0.23132908723685747,0.13602294408855525
2.4039981365203857,-0.07989262044429779,0.14026027917861938,-0.013967156410217285,-0.2657787501811981,0.26166605949401855,0.5266692042350769,-0.8953690812853505,0.2409284362860136,0.1455393879950068
2.4140710830688477,-0.07832984626293182,0.15637844800949097,-0.011164665222167969,-0.17350557446479797,0.3495969772338867,0.48480963706970215,-0.8963136665717893,0.25080640848702124,0.15425437335488906
2.4242570400238037,-0.07786090672016144,0.1775185465812683,-0.006387293338775635,-0.023562688380479813,0.4262717664241791,0.44999828934669495,-0.8961074245783844,0.2606697743445014,0.16190580298961468
2.436385154724121,-0.0715583860874176,0.20791572332382202,-0.01612389087677002,0.13640940189361572,0.4831334352493286,0.3944404721260071,-0.8944454872238273,0.270169457461404,0.16821497988314027
2.444014072418213,-0.0626937747001648,0.2270972728729248,-0.026339054107666016,0.3226720094680786,0.5346028208732605,0.3401057720184326,-0.8912807934596024,0.2788708140434141,0.17286613767926634
2.4540650844573975,-0.05813188850879669,0.21731507778167725,-0.02391582727432251,0.5694139003753662,0.5880623459815979,0.302493691444397,-0.8861032013457382,0.28677340171940324,0.17579177501591445
2.4640679359436035,-0.05256076157093048,0.20612555742263794,-0.03422433137893677,0.780429482460022,0.6019842028617859,0.23807986080646515,-0.8787848066904723,0.29361451980487596,0.1768563915836348
2.4740800857543945,-0.053079307079315186,0.20684605836868286,-0.043647170066833496,1.0008691549301147,0.599503219127655,0.1487574279308319,-0.8697416740287087,0.2986951069189747,0.1756764300029795
2.484097957611084,-0.05890394747257233,0.16467195749282837,-0.018868565559387207,1.2052336931228638,0.5921124815940857,0.09518548846244812,-0.8587868936243941,0.30216763435828015,0.17238899300560304
2.494081974029541,-0.06404897570610046,0.11426705121994019,-0.011232614517211914,1.2796472311019897,0.5614991784095764,0.019551187753677368,-0.8466421992916894,0.3043110692969908,0.16755730105073327
2.5040721893310547,-0.062060222029685974,0.12738072872161865,-0.014101862907409668,1.183297038078308,0.5355085730552673,-0.04143104329705238,-0.8348040237506438,0.3054893965091901,0.16177375272463534
2.514129161834717,-0.05303686857223511,0.10657525062561035,-0.007109403610229492,0.9665346145629883,0.5279020667076111,-0.060025766491889954,-0.824666572434113,0.3066971389179085,0.1562033923877346
2.524144172668457,-0.04902032017707825,0.056364595890045166,0.005151569843292236,0.7008870244026184,0.5318838357925415,-0.057429347187280655,-0.8168678057731891,0.30868223690484514,0.15165234659184376
2.5342612266540527,-0.05691447854042053,0.021570265293121338,0.015591204166412354,0.3931065797805786,0.5214165449142456,-0.05608098953962326,-0.8118051229729643,0.3116402704002389,0.14844603982813895
2.544304132461548,-0.06022384762763977,0.004211544990539551,0.022018611431121826,0.14117124676704407,0.5073140859603882,-0.05055950954556465,-0.8094935909973519,0.31538895111202075,0.1465133287036629
2.5544509887695312,-0.05162924528121948,-0.024695158004760742,0.03343236446380615,0.01355788204818964,0.4859869182109833,-0.026933010667562485,-0.8089724959137579,0.3197421890690295,0.1456591221963384
2.5641942024230957,-0.04815003275871277,-0.041668713092803955,0.030598998069763184,-0.004367570858448744,0.4552040994167328,-0.009786087088286877,-0.8090251281574334,0.3243048131801838,0.14542260337252927
2.5742759704589844,-0.04864087700843811,-0.021285176277160645,0.011514365673065186,0.052105024456977844,0.4111735224723816,-0.010580508038401604,-0.8088735112952493,0.32847908637069273,0.1452052276157742
2.584557056427002,-0.040791600942611694,0.0007692575454711914,-0.006057620048522949,0.16903896629810333,0.3598896563053131,-0.00945095531642437,-0.8078934958836993,0.3318545507752035,0.14456064510703068
2.596395969390869,-0.026573404669761658,0.0004565119743347168,-0.01726841926574707,0.2929728925228119,0.3125991225242615,-0.011004110798239708,-0.805720892872114,0.3343420177318422,0.1433312864479534
2.6043052673339844,-0.01984754204750061,0.001747727394104004,-0.03133934736251831,0.40559402108192444,0.2735663652420044,-0.020131617784500122,-0.8024521225042159,0.33593668216189315,0.1414759245008127
2.6142821311950684,-0.01318998634815216,0.008261442184448242,-0.03630465269088745,0.47884905338287354,0.2359665334224701,-0.025121580809354782,-0.798335515877518,0.33674428512187293,0.13904024979103954
2.6242620944976807,-0.0022489577531814575,0.0050879716873168945,-0.03734123706817627,0.5106264352798462,0.20468424260616302,-0.022410482168197632,-0.7937108594626102,0.3370303784078681,0.13635879041005275
2.6342601776123047,0.008933871984481812,0.004988551139831543,-0.03657883405685425,0.44414222240448,0.16704152524471283,-0.02637193351984024,-0.7892061492165146,0.3370458340393291,0.1337616341685246
2.644534111022949,0.015003412961959839,0.0025314688682556152,-0.027417480945587158,0.3140632212162018,0.1387915015220642,-0.027415521442890167,-0.7856820823418673,0.33704829195563973,0.13160308222949327
2.654439926147461,0.01796652376651764,-0.016584157943725586,-0.006950259208679199,0.1599503606557846,0.11644545197486877,-0.01979541778564453,-0.7835207376488964,0.3373156778675714,0.1301842655805796
2.664377212524414,0.01934005320072174,-0.038514912128448486,0.011762738227844238,0.01845570281147957,0.09508281201124191,-0.017919275909662247,-0.7827511314554746,0.3379135169000759,0.12951971850094393
2.674288034439087,0.01419338583946228,-0.041168212890625,0.024602651596069336,-0.08022240549325943,0.07429657876491547,-0.017176520079374313,-0.7831361470432356,0.338739578160393,0.1294604639277144
2.6843371391296387,0.013821542263031006,-0.03824484348297119,0.029283583164215088,-0.11322331428527832,0.053665291517972946,-0.01499906461685896,-0.7841359155230103,0.33955631628005317,0.12971823084592587
2.695801258087158,0.017236322164535522,-0.033061087131500244,0.023797929286956787,-0.09596150368452072,0.036694563925266266,-0.013663489371538162,-0.7851985330520729,0.3402107312085452,0.1300224818447777
2.704340934753418,0.016255676746368408,-0.022530853748321533,0.012761950492858887,-0.05225258693099022,0.026333313435316086,-0.018441839143633842,-0.7859516345124773,0.34062112924073035,0.1301649850629499
2.714369058609009,0.01141732931137085,-0.018875420093536377,0.0014908909797668457,0.006081025116145611,0.022542836144566536,-0.02414313517510891,-0.7862418273489175,0.34074899389894686,0.1299991051996463
2.724274158477783,0.005354657769203186,-0.027478396892547607,-0.003231823444366455,0.061133772134780884,0.023629095405340195,-0.025759408250451088,-0.7859999903996097,0.3406247098736487,0.12949527021470167
2.7343640327453613,0.002041637897491455,-0.03561824560165405,-0.004690885543823242,0.09799085557460785,0.03370995819568634,-0.026753298938274384,-0.7853406721522883,0.3403937962384445,0.12876337448720138
2.7458760738372803,0.0002598017454147339,-0.03711068630218506,-0.0052623748779296875,0.1308773159980774,0.0467226505279541,-0.019106032326817513,-0.7843444535816202,0.34019650069650614,0.1279091985462416
2.754544258117676,-0.0004911571741104126,-0.03882724046707153,6.92605972290039e-05,0.1635228842496872,0.0575992688536644,-0.005994225852191448,-0.7828472761241557,0.34038156590420016,0.12722466611781127
2.7645840644836426,-2.2396445274353027e-05,-0.03945338726043701,0.004412710666656494,0.17310303449630737,0.05445629358291626,0.0068818917497992516,-0.7811489408801716,0.34065725576808387,0.12660985588829005
2.774435043334961,0.004785418510437012,-0.037681400775909424,0.006506562232971191,0.157646045088768,0.04677440598607063,0.014061507768929005,-0.7795145621798456,0.3409016874045711,0.12610909938386258
2.7844841480255127,0.009494096040725708,-0.04072827100753784,0.015305280685424805,0.12538930773735046,0.039445653557777405,0.025033200159668922,-0.7780713101133901,0.34115631263659224,0.12577858404670333
2.795773983001709,0.013733923435211182,-0.045405447483062744,0.020870983600616455,0.08456651121377945,0.029046010226011276,0.03343547135591507,-0.7769476896217539,0.34147095732747806,0.1257089401209006
2.804513931274414,0.015038639307022095,-0.03773796558380127,0.02244246006011963,0.015134939923882484,0.014138255268335342,0.04112774878740311,-0.7763167649598203,0.3418746993728509,0.12597781408762282
2.814523220062256,0.0151071697473526,-0.03232759237289429,0.018053650856018066,-0.02533658593893051,0.011689478531479836,0.04969007521867752,-0.7761975189181217,0.34243471928401426,0.12660115477006278
2.8245081901550293,0.01649753749370575,-0.03155714273452759,0.01593315601348877,-0.03533870354294777,0.005525459069758654,0.05694585666060448,-0.7762724881530316,0.34311675773272804,0.1274620921582555
2.8345770835876465,0.015748172998428345,-0.02214229106903076,0.008677840232849121,-0.02192382887005806,0.0034857443533837795,0.05690591037273407,-0.7763150947096302,0.34379288214494774,0.12836754351729732
2.8459129333496094,0.013652235269546509,-0.00917661190032959,0.0006750822067260742,0.0033432955387979746,0.003184052649885416,0.062299080193042755,-0.776149996380704,0.34440169065598425,0.12920298734338384
2.8546221256256104,0.012829706072807312,-0.006640434265136719,-0.003735661506652832,0.03204870969057083,0.005992089863866568,0.06544054299592972,-0.7756965990535502,0.3450120554098396,0.12997818688242319
2.864572048187256,0.009323552250862122,-0.006891310214996338,-0.00361478328704834,0.04728255793452263,0.009896017611026764,0.0686289370059967,-0.7750223457035417,0.3456548828695632,0.13072587359756618
2.8745391368865967,0.00642026960849762,-0.004773378372192383,6.270408630371094e-05,0.046420760452747345,0.011585792526602745,0.0699559897184372,-0.7742579207312571,0.34634449587792393,0.13148031379494216
2.8846049308776855,0.0045560747385025024,-0.004903018474578857,0.004977583885192871,0.02979898639023304,0.012464147992432117,0.06872209161520004,-0.7736071378441055,0.3470940727283119,0.13228945703338243
2.8959031105041504,0.005322247743606567,-0.007931411266326904,0.00859898328781128,0.024974403902888298,0.015274847857654095,0.062458064407110214,-0.7730840477528351,0.3478568842034617,0.13309199240759842
2.9045939445495605,0.0010190308094024658,-0.01290804147720337,0.013485133647918701,0.027805112302303314,0.014705464243888855,0.05782768502831459,-0.7725756749061302,0.34858422544152334,0.13383683178294045
2.9147419929504395,-0.0015429109334945679,-0.012105941772460938,0.014026284217834473,0.033016387373209,0.0024847507011145353,0.04731325805187225,-0.7720735488728686,0.34915206476630345,0.13446340967366874
2.9248199462890625,6.970763206481934e-05,-0.005635619163513184,0.008911609649658203,0.039897263050079346,-0.0076827541925013065,0.0412873774766922,-0.7715405098958644,0.3494687916650914,0.13490658107621528
2.9357972145080566,0.0033750534057617188,-0.0071672797203063965,0.008363962173461914,0.028922908008098602,-0.009587714448571205,0.04006951302289963,-0.7710377882689453,0.3496842976721877,0.13530328126558216
2.946179151535034,0.001742526888847351,-0.005790352821350098,0.004924893379211426,0.00040110177360475063,-0.017813198268413544,0.03653224930167198,-0.7707348793126974,0.3498937399336745,0.13576608360912526
2.9546961784362793,-0.0013937056064605713,-0.001380324363708496,0.0063179731369018555,-0.022161997854709625,-0.027126003056764603,0.033778008073568344,-0.7707133133821721,0.3500567314267916,0.13629258774681308
2.964756965637207,0.0001634359359741211,-0.007026851177215576,0.011361002922058105,-0.0495452843606472,-0.034773360937833786,0.03347723186016083,-0.7709484184573614,0.35020692891670374,0.13692405433288535
2.9748520851135254,6.684660911560059e-05,-0.011250734329223633,0.010037660598754883,-0.0624709352850914,-0.03534114733338356,0.03402078151702881,-0.7713700509286021,0.35043212807589375,0.13769341802674237
2.9847590923309326,-0.00428345799446106,-0.005626380443572998,0.008003056049346924,-0.06215338781476021,-0.037984687834978104,0.03822895139455795,-0.7718469437122762,0.350672076963798,0.1385134198491973
2.996446132659912,-0.007249966263771057,-0.004609942436218262,0.0042757391929626465,-0.041735999286174774,-0.03572632744908333,0.0413895882666111,-0.7722172548685087,0.3508813997822324,0.13932435122417275
3.0047030448913574,-0.009583666920661926,-0.006142139434814453,0.003567337989807129,-0.01075879205018282,-0.03269800543785095,0.0399048775434494,-0.7723325682179127,0.35103461887917653,0.14001292819722452
3.014766216278076,-0.01387631893157959,-0.00253140926361084,0.0019952058792114258,0.012925231829285622,-0.03365354612469673,0.03374231979250908,-0.7721699750803567,0.3510973619127622,0.14053168437321678
3.024843215942383,-0.015926659107208252,0.0013388991355895996,-0.0007647275924682617,0.03129075467586517,-0.03798828274011612,0.02900541014969349,-0.7718155248713789,0.3509793807652376,0.14084899461186698
3.0348141193389893,-0.01459859311580658,0.00042325258255004883,-0.0013016462326049805,0.027859540656208992,-0.042839765548706055,0.02274937927722931,-0.7714537134483539,0.35071374721653614,0.14104446444817187
3.047070026397705,-0.011659041047096252,0.004254639148712158,-0.000792384147644043,0.010563175193965435,-0.05249612033367157,0.01549583300948143,-0.7712176990932407,0.3503885974346827,0.1412318932612817
3.056138038635254,-0.010202094912528992,0.006516218185424805,0.0005562305450439453,-0.0019134680042043328,-0.05876732990145683,0.009738345630466938,-0.7711280078425747,0.3499833471052862,0.14140996528794067
3.0670409202575684,-0.008503496646881104,0.002473294734954834,0.003910720348358154,-0.007877949625253677,-0.06828990578651428,0.009845883585512638,-0.7711696481917987,0.3494473060567606,0.14155418768380681
3.075698137283325,-0.009369537234306335,0.0025293827056884766,0.005033433437347412,-0.008412446826696396,-0.0745704397559166,0.006995768751949072,-0.771240312746414,0.34878743778476046,0.14165940345890385
3.0869390964508057,-0.008700072765350342,0.010059773921966553,0.004302382469177246,-0.00498710572719574,-0.08202031999826431,0.007592902518808842,-0.77129338582382,0.34801660413475394,0.14172573088874854
3.0968711376190186,-0.005402460694313049,0.013347983360290527,0.002648472785949707,-0.0015023592859506607,-0.08393460512161255,0.007838712073862553,-0.7713253521535175,0.3471425432141819,0.1417476017577532
3.1082992553710938,-0.005157485604286194,0.010942935943603516,0.0028960704803466797,0.007143327035009861,-0.08211904019117355,0.005466421600431204,-0.7713172327952913,0.346210716391,0.14171469382327134
3.117393970489502,-0.006658539175987244,0.008111834526062012,0.005356550216674805,0.014516288414597511,-0.08196351677179337,0.0007920414209365845,-0.7712222825148108,0.34525850451264356,0.14162083241925094
3.124886989593506,-0.008368194103240967,0.0029944181442260742,0.009473919868469238,0.018623266369104385,-0.08189085125923157,-0.005799601785838604,-0.7711238239572077,0.34427558752377546,0.14144087339467912
3.134951114654541,-0.00798383355140686,0.002042114734649658,0.012453436851501465,0.029575783759355545,-0.08202933520078659,-0.012251376174390316,-0.7709836590180453,0.34325080257372603,0.1411750668645987
3.1458029747009277,-0.006912603974342346,-0.0010242462158203125,0.016971588134765625,0.028221214190125465,-0.08025358617305756,-0.013252670876681805,-0.7707912346428626,0.3421857044055334,0.14084250302065462
3.154956102371216,-0.011053070425987244,-0.004955947399139404,0.020612716674804688,0.01719093509018421,-0.06668557971715927,-0.007421946153044701,-0.7706565554572624,0.34124414901477385,0.14057612304765604
3.165034055709839,-0.012483090162277222,-0.009186208248138428,0.021229445934295654,-0.012600284069776535,-0.0503360740840435,-0.0020980210974812508,-0.7707253142929442,0.3405843961817365,0.14048877332342433
3.1749651432037354,-0.0139131098985672,-0.01196974515914917,0.01824355125427246,-0.02959657832980156,-0.03322073817253113,0.005132195074111223,-0.7710322428618795,0.34023224073997516,0.14058520926551774
3.185037136077881,-0.014868319034576416,-0.02289605140686035,0.023695826530456543,-0.045013319700956345,-0.019490277394652367,0.011437548324465752,-0.7714378608737699,0.34018221344679156,0.14087670225112325
3.195864200592041,-0.013312757015228271,-0.024909555912017822,0.0244024395942688,-0.04642000049352646,-0.005709751974791288,0.01834658719599247,-0.7719053548594482,0.3403445258282869,0.14128611760160176
3.2049601078033447,-0.009723812341690063,-0.012265801429748535,0.020570456981658936,-0.04449406638741493,0.0053016203455626965,0.028338661417365074,-0.7723180478515731,0.3406856365773248,0.1417837878818794
3.2149970531463623,-0.00494423508644104,-0.002841174602508545,0.01400601863861084,-0.03784122318029404,0.01928720995783806,0.031059078872203827,-0.7726664036100199,0.34120769266429957,0.1423632120675357
3.2249910831451416,-0.004865437746047974,0.0004595518112182617,0.010873675346374512,-0.035179346799850464,0.022689444944262505,0.027702059596776962,-0.7729580863089106,0.3418253388390354,0.1429364896859557
3.235011100769043,-0.005088627338409424,0.0009813904762268066,0.009446561336517334,-0.02360151894390583,0.022699298337101936,0.015692533925175667,-0.7732308652692698,0.34231897759770724,0.14333166940112285
3.2459380626678467,-0.005261734127998352,-0.004033684730529785,0.016002953052520752,-0.006660169921815395,0.022483360022306442,0.006645616143941879,-0.7733731464817216,0.3426479485952715,0.143516876525747
3.255157947540283,-0.008507147431373596,-0.006368517875671387,0.017455697059631348,0.0031535783782601357,0.02144579216837883,-0.0034096811432391405,-0.7733947444354579,0.34282965364085694,0.14350418631190537
3.265191078186035,-0.011297106742858887,0.000990152359008789,0.010944604873657227,0.015646766871213913,0.025754254311323166,-0.006536711473017931,-0.7733253186554045,0.34293771239556553,0.14335183580343674
3.2751340866088867,-0.013267919421195984,0.0030950307846069336,0.00754624605178833,0.020358432084321976,0.03259431570768356,-0.004787281155586243,-0.7731772199958749,0.3430708498156767,0.14315863168368792
3.2851829528808594,-0.014862656593322754,0.0008414983749389648,0.004754900932312012,0.017488576471805573,0.04136943072080612,-0.0043955836445093155,-0.7730425739979442,0.343307206130291,0.1429876562511905
3.296473979949951,-0.018396303057670593,-0.003115415573120117,0.0016513466835021973,0.01872694492340088,0.04869871586561203,-0.0018647813703864813,-0.7729215055900241,0.34366294414137166,0.14285485056699104
3.305333137512207,-0.01781165599822998,-0.003202497959136963,-0.0018413066864013672,0.01730080507695675,0.05071326717734337,0.0003406889736652374,-0.772787440584403,0.34408438270447284,0.14274596098805453
3.3151540756225586,-0.015491053462028503,-0.002693355083465576,-0.0024300813674926758,0.014511942863464355,0.04675048217177391,-0.0009799726540222764,-0.772673056238943,0.34449531567559394,0.14265679663881115
3.3250961303710938,-0.013649135828018188,-0.0026563405990600586,-0.0006908178329467773,0.011067095212638378,0.04152309522032738,0.0035501173697412014,-0.7726000356960095,0.3448837917574506,0.14258357620454906
