timestamp,accel_x,accel_y,accel_z,rotation_x,rotation_y,rotation_z, pitch,roll,yaw
0.04778909683227539,-0.0011830925941467285,-0.005507398396730423,0.002048969268798828,0.006885258946567774,0.01629083976149559,-0.02501688525080681,-0.05468317914562714,0.2272719039787484,0.0062423981072469445
0.06152701377868652,-0.0021089911460876465,-0.005271490663290024,0.001226961612701416,0.012572173029184341,0.014358451589941978,-0.02448851428925991,-0.05464558060704115,0.22740755826215653,0.005989925888184591
0.06260108947753906,-0.0020161718130111694,-0.002662520855665207,0.002135753631591797,0.02165563404560089,0.013082130812108517,-0.030405312776565552,-0.05453889035697963,0.2275303877842296,0.005686765388264417
0.06847214698791504,-0.00048044323921203613,0.0005745291709899902,0.002460479736328125,0.030776161700487137,0.020093435421586037,-0.03519953414797783,-0.0543533218790246,0.2276904727391737,0.005308820795971643
0.07379603385925293,-0.0028740912675857544,0.004589978605508804,0.0038316845893859863,0.032446764409542084,0.025476127862930298,-0.04026252403855324,-0.05412171155087271,0.22788944823891788,0.004869977686532152
0.08284902572631836,-0.004467830061912537,0.006260428577661514,0.0034660696983337402,0.03676667809486389,0.03049086034297943,-0.05152316763997078,-0.0538852458019244,0.2281444987849679,0.004342964342623146
0.0887138843536377,-0.0033359676599502563,0.006094731390476227,0.002726316452026367,0.039289239794015884,0.033078521490097046,-0.05661071091890335,-0.05363859876489659,0.22843668766327174,0.0037250669304805823
0.09878420829772949,-0.003904372453689575,0.00627758726477623,0.0035994648933410645,0.04294522479176521,0.03657978028059006,-0.06730889528989792,-0.05337907423733883,0.2287511704800827,0.003028908798721278
0.10875201225280762,-0.0037076473236083984,0.006345681846141815,0.007068991661071777,0.05071208253502846,0.033576931804418564,-0.07018229365348816,-0.053081680713068714,0.22906295071371652,0.0022418436981838192
0.1187288761138916,-0.002787292003631592,0.004082757979631424,0.008271753787994385,0.051116086542606354,0.033649101853370667,-0.07665962725877762,-0.05275013936746813,0.22935199063774975,0.0014024788798824132
0.12874913215637207,-0.0022964179515838623,0.0036812424659729004,0.008140981197357178,0.04650269076228142,0.035916518419981,-0.07402842491865158,-0.052449339585093575,0.22965948133198724,0.0005473181943763956
0.1387631893157959,-0.004746288061141968,0.0010071806609630585,0.006217837333679199,0.046727463603019714,0.03894266486167908,-0.07152239233255386,-0.05216280209882278,0.22999420161142536,-0.00026882974230665993
0.14908289909362793,-0.0058570802211761475,-0.003074653446674347,0.003909170627593994,0.04485507681965828,0.03839010372757912,-0.06354015320539474,-0.05186496542516419,0.23034833255724027,-0.0010450296613877573
0.1591169834136963,-0.006107449531555176,-0.0067817457020282745,0.00509566068649292,0.044056929647922516,0.036754123866558075,-0.053060341626405716,-0.051573860510783553,0.23069646296686394,-0.001718517786491687
0.16909408569335938,-0.005410045385360718,-0.008252866566181183,0.00279998779296875,0.042758453637361526,0.028745513409376144,-0.04436677694320679,-0.05125928626849082,0.23099551421047626,-0.00229093596129431
0.1791069507598877,-0.001996546983718872,-0.008553911000490189,0.0033556222915649414,0.037027597427368164,0.022894281893968582,-0.0340116061270237,-0.05096485935998537,0.23123201914895974,-0.002770430357952547
0.18920493125915527,-0.00162602961063385,-0.010949991643428802,0.006165206432342529,0.029736697673797607,0.015812136232852936,-0.025396225973963737,-0.050705571740473236,0.23141284115695684,-0.003129376352528417
0.19895505905151367,-0.0028640925884246826,-0.012674923986196518,0.007330000400543213,0.016342060640454292,0.0075787086971104145,-0.019383074715733528,-0.0506145848317211,0.2314766871831033,-0.003397415518939547
0.20882606506347656,-0.0034218430519104004,-0.014583460986614227,0.006561398506164551,0.004822824150323868,0.0043437667191028595,-0.012245270423591137,-0.0506157800813885,0.23150107889793622,-0.0035774756788172803
0.21888518333435059,-0.0016735345125198364,-0.013047169893980026,0.006663143634796143,-0.003958682995289564,-0.0027381107211112976,-0.005617461632937193,-0.05066647252496338,0.23144554302082754,-0.00366885456195426
0.22896695137023926,-0.003366634249687195,-0.011665098369121552,0.0065070390701293945,-0.004738722927868366,-0.006440171040594578,-0.001319119706749916,-0.05070350943756966,0.23131975609611105,-0.0037010126674047977
0.23912787437438965,-0.0016125291585922241,-0.008165698498487473,0.0047550201416015625,-0.00622050603851676,-0.009282296523451805,0.001950443140231073,-0.05068309155070845,0.23117892931984388,-0.0036889137386240346
0.24906420707702637,-0.002170249819755554,-0.003080397844314575,0.0049890875816345215,-0.007441582158207893,-0.009372799657285213,0.0065971799194812775,-0.05064840265457242,0.23103019773950456,-0.003632660261481072
0.2590949535369873,-0.004501700401306152,-0.0010781362652778625,0.006313741207122803,-0.008312169462442398,-0.011481757275760174,0.00781930424273014,-0.050614481778399535,0.2309166979245487,-0.0035489089669111917
0.26932406425476074,-0.0038306713104248047,0.0005284138023853302,0.006817162036895752,-0.013955890201032162,-0.01500951312482357,0.004368859343230724,-0.05057954531705392,0.23079107992306913,-0.003465145840750368
0.27924108505249023,-0.0018287599086761475,0.0028425566852092743,0.005948841571807861,-0.020881440490484238,-0.01583988592028618,0.0037289022002369165,-0.050600022170725074,0.23064697082631133,-0.0033794630118283817
0.2892911434173584,-0.0017887502908706665,0.003856062889099121,0.008157908916473389,-0.02683442085981369,-0.021265678107738495,-0.0004260552814230323,-0.050654698186554846,0.2304495680639964,-0.003307097678521949
0.29930806159973145,-0.0026566535234451294,0.004631202667951584,0.011023223400115967,-0.03448488563299179,-0.023452401161193848,-0.0012175467563793063,-0.05081053985604955,0.2302298034601149,-0.0032545106247927765
0.30910420417785645,-0.0017099231481552124,0.0034362338483333588,0.014392733573913574,-0.032479338347911835,-0.022956741973757744,-0.0010017240419983864,-0.051013955962469826,0.229996156829289,-0.0031847841588890247
0.3192570209503174,-0.0008540451526641846,0.004662677645683289,0.011959433555603027,-0.03407430648803711,-0.0228736512362957,0.0015868684276938438,-0.05123739051907065,0.22977771890541177,-0.0031160009962062515
0.32924699783325195,-0.0010327845811843872,0.005055315792560577,0.010937631130218506,-0.03861546143889427,-0.020317193120718002,0.005751519463956356,-0.05154706964612589,0.22957296250184503,-0.0030037269916465405
0.33973193168640137,-0.0009517073631286621,0.003894709050655365,0.011436641216278076,-0.038100674748420715,-0.016071848571300507,0.008048762567341328,-0.05188415364729376,0.22938382936036364,-0.002854747647741791
0.3494710922241211,-0.0007577240467071533,0.003781486302614212,0.012281298637390137,-0.03264845162630081,-0.016980696469545364,0.008352575823664665,-0.052211437199586555,0.2292197356824038,-0.002692991431577407
0.35927414894104004,-0.0018056780099868774,0.004411723464727402,0.012602686882019043,-0.033025022596120834,-0.01559798326343298,0.01138857938349247,-0.05252767381734821,0.2290773386865805,-0.002521285563878021
0.36931800842285156,-0.00118979811668396,0.003388434648513794,0.012692093849182129,-0.02918870374560356,-0.016117921099066734,0.009813319891691208,-0.05283423204103785,0.2289499166502517,-0.002338664207279656
0.3792910575866699,-0.0001478642225265503,0.006111025810241699,0.010119259357452393,-0.026864297688007355,-0.019851140677928925,0.008810905739665031,-0.05311801699764592,0.22879206429982957,-0.0021970607503908357
0.3893911838531494,-0.001094624400138855,0.0037780217826366425,0.008906424045562744,-0.03125694766640663,-0.02153922989964485,0.007041767705231905,-0.0534067514664002,0.22862380093887288,-0.0020450915060854827
0.3995490074157715,-0.0013298392295837402,-0.0014353394508361816,0.010306179523468018,-0.033023424446582794,-0.026186179369688034,0.0059235068038105965,-0.053737776989534226,0.22843049588722472,-0.0019121720690900986
0.4093921184539795,-0.0004242062568664551,-0.0018165037035942078,0.010233521461486816,-0.03617497533559799,-0.02808554470539093,0.002368506509810686,-0.05410421530222394,0.22819425816726882,-0.0017911199011193823
0.419327974319458,0.0010143518447875977,-0.0027794204652309418,0.009469270706176758,-0.03966664522886276,-0.022101689130067825,0.0034441570751369,-0.05448786512409206,0.227975112856414,-0.00166761599094675
0.4291698932647705,0.0011879950761795044,-0.00409824401140213,0.008819878101348877,-0.03831389173865318,-0.023434512317180634,0.006596380844712257,-0.05487648590921574,0.2277858334274142,-0.0015265956240806899
0.43928003311157227,-0.001207605004310608,-0.004239927977323532,0.0061026811599731445,-0.03221552073955536,-0.024937067180871964,0.008526373654603958,-0.05523232927294115,0.22757073486474874,-0.0013768278204707102
0.4494469165802002,0.0007210522890090942,-0.004966471344232559,0.004982352256774902,-0.02774989977478981,-0.019204702228307724,0.012223906815052032,-0.05551680374337346,0.22739562571593652,-0.0012141322403545329
0.4595050811767578,0.002769961953163147,-0.005329564213752747,0.003744840621948242,-0.024033989757299423,-0.015074139460921288,0.013225520960986614,-0.0557887670491737,0.22726929726643985,-0.0010282602113742558
0.46947598457336426,0.0006119310855865479,-0.004448719322681427,0.0016228556632995605,-0.02161579020321369,-0.014489708468317986,0.014983686618506908,-0.05600689417393523,0.22715334063852208,-0.0008328690205486873
0.4793832302093506,-0.00023518502712249756,-0.006435845047235489,0.0006357431411743164,-0.014725926332175732,-0.015824219211935997,0.01354984100908041,-0.0561173619915557,0.2270373934984914,-0.0006536022902864133
0.4896540641784668,0.0016621202230453491,-0.007709309458732605,0.0021683573722839355,-0.013483578339219093,-0.014656201004981995,0.013656526803970337,-0.056185483835944114,0.2269231202162025,-0.0004910797082148485
0.49967312812805176,0.0029356032609939575,-0.006619412451982498,0.003362894058227539,-0.01171896792948246,-0.01535101979970932,0.013963056728243828,-0.05624008415873379,0.22682252711664064,-0.00033789306276926214
0.5096650123596191,0.0012271702289581299,-0.005077637732028961,0.003808736801147461,-0.014332294464111328,-0.011584777384996414,0.01122378371655941,-0.05628530140553519,0.22672843689003538,-0.00019102332103943906
0.5196731090545654,0.0024605393409729004,-0.006587829440832138,0.0030628442764282227,-0.01319938525557518,-0.011045487597584724,0.012393975630402565,-0.05634600162883365,0.22663779772148457,-4.3915201856756234e-05
0.5295531749725342,0.0037734806537628174,-0.003112420439720154,-0.0003114938735961914,-0.008171620778739452,-0.008845582604408264,0.01467321626842022,-0.05636489128909341,0.2265746069492689,0.0001061301189628229
0.5396101474761963,0.004037916660308838,-0.000867307186126709,-0.0027806758880615234,-0.0016657845117151737,-0.01489468663930893,0.017886053770780563,-0.05631696628232528,0.22650605281060285,0.00028188736853148455
0.5498058795928955,0.00478033721446991,-0.004437074065208435,-0.001612246036529541,0.0005701719783246517,-0.02193768136203289,0.021500708535313606,-0.05622447092681704,0.22635344007746233,0.0004825889668711399
0.5595929622650146,0.006720498204231262,-0.003210078924894333,-0.001283109188079834,-0.007511456497013569,-0.025568636134266853,0.020461808890104294,-0.05614175488273812,0.2261304515198882,0.0007008991797512258
0.569594144821167,0.007516622543334961,-0.005358755588531494,0.00014269351959228516,-0.021405568346381187,-0.030421357601881027,0.0216696597635746,-0.05615422174533107,0.2258926466255994,0.0009377683093112044
0.5795261859893799,0.0059315115213394165,-0.011407524347305298,0.000768125057220459,-0.027467986568808556,-0.029579531401395798,0.02334771864116192,-0.05628278286163688,0.22565724227944517,0.0012160646077931437
0.5899600982666016,0.005246713757514954,-0.011485695838928223,0.0021413564682006836,-0.02915192022919655,-0.028839483857154846,0.02255425415933132,-0.05646805838417378,0.22540686181141537,0.001505240335933185
0.5995070934295654,0.004562109708786011,-0.006015125662088394,0.004270195960998535,-0.02086629346013069,-0.02544315531849861,0.023297276347875595,-0.0565976786927423,0.22520260923447763,0.0017882718838736226
0.6095550060272217,0.0016761571168899536,-0.0036262571811676025,0.0020952224731445312,-0.00827561691403389,-0.02481558360159397,0.023718802258372307,-0.05666558382928626,0.22501744911938576,0.002067857905057341
0.6197071075439453,-0.0017178207635879517,-0.0015508197247982025,0.00022745132446289062,0.004084113519638777,-0.021890366449952126,0.02506396546959877,-0.05661949069032997,0.2248510837458354,0.0023099522298178424
0.6297030448913574,-0.003694012761116028,-0.0014665760099887848,0.0040972232818603516,0.009706112556159496,-0.019544478505849838,0.025456301867961884,-0.056443408851003844,0.22471572604398687,0.002544315808879656
0.639700174331665,-0.006776437163352966,0.00043605268001556396,0.007534623146057129,0.008440844714641571,-0.01786615327000618,0.022562775760889053,-0.056264743654227206,0.2246038520180432,0.0027528864664472102
0.6498901844024658,-0.008255451917648315,-0.002369217574596405,0.008275806903839111,0.0038220081478357315,-0.014119396917521954,0.021854642778635025,-0.05609427629979481,0.22453783051179174,0.0029474459956786827
0.6597681045532227,-0.006758138537406921,-0.003998100757598877,0.007748126983642578,0.002655277494341135,-0.011889264918863773,0.01996273174881935,-0.05590707028132876,0.22448639052712607,0.0031549890504252724
0.6697309017181396,-0.006109461188316345,-0.0009977705776691437,0.007279694080352783,0.007555394433438778,-0.009604183956980705,0.020730149000883102,-0.055714055359678126,0.2244445487490144,0.003353692602741242
0.6798341274261475,-0.0050494372844696045,-0.00011917576193809509,0.007239043712615967,0.014746728353202343,-0.011518731713294983,0.024576552212238312,-0.055506526146771186,0.22440321379935008,0.0035566078596079853
0.6896998882293701,-0.004977524280548096,0.0016399510204792023,0.0054149627685546875,0.0204458087682724,-0.015351418405771255,0.021479295566678047,-0.055257642649379386,0.22429484011971093,0.0037400127519854305
0.6997091770172119,-0.003808155655860901,0.003765847533941269,0.004595458507537842,0.017277712002396584,-0.01622280478477478,0.023941121995449066,-0.05502347701191232,0.2241251791509442,0.003918844586855752
0.7096168994903564,-0.0020661354064941406,0.0024427175521850586,0.0029978156089782715,0.012873243540525436,-0.018611839041113853,0.02650398761034012,-0.05482041974883045,0.22394762905109802,0.004127832885878523
0.7197360992431641,-0.003209248185157776,0.0033982954919338226,0.003208458423614502,0.0014125965535640717,-0.023667316883802414,0.02452579326927662,-0.05471918132431911,0.22370996779363778,0.004359539506381681
0.729856014251709,-0.004876643419265747,0.0001068897545337677,0.004835247993469238,-0.006494578439742327,-0.030644576996564865,0.025271425023674965,-0.054684127681178425,0.2234003897536532,0.004614856366737827
0.7402811050415039,-0.00325736403465271,-0.002504345029592514,0.0035410523414611816,-0.012778040021657944,-0.035164494067430496,0.028715692460536957,-0.05470139446305014,0.2230382965108349,0.004892969292726262
0.7509310245513916,-0.002075597643852234,0.0017859116196632385,0.006138324737548828,-0.017727525904774666,-0.040098268538713455,0.030082425102591515,-0.054790536948272746,0.22265631037429293,0.005208567510801705
0.7599060535430908,-0.002862408757209778,0.0015680454671382904,0.006953120231628418,-0.02563498355448246,-0.042926542460918427,0.030140215530991554,-0.05494760867033087,0.22224407461309256,0.005549425042878437
0.7699391841888428,-0.003751024603843689,0.00281379371881485,0.006652355194091797,-0.0385911799967289,-0.04488338902592659,0.025997349992394447,-0.0552128805642543,0.22181241983483949,0.005893819279329277
0.7799921035766602,-0.00291307270526886,0.0029864124953746796,0.006742954254150391,-0.053553882986307144,-0.046363040804862976,0.026519061997532845,-0.055636004202190684,0.22136472645011704,0.0062587568086086304
0.7899560928344727,-0.0026409775018692017,-0.00016698241233825684,0.006167292594909668,-0.06350325047969818,-0.049749426543712616,0.026211148127913475,-0.05616570842834147,0.2209354154236666,0.00665231863905023
0.7999579906463623,-0.003018781542778015,-0.002803117036819458,0.006566345691680908,-0.07024424523115158,-0.058530934154987335,0.029573922976851463,-0.056773397018508184,0.2204224695516608,0.007073840421635632
0.8099949359893799,-0.003439381718635559,-0.0038906075060367584,0.009789645671844482,-0.07290457934141159,-0.06329932808876038,0.03374560549855232,-0.05738886394944364,0.21982838932015292,0.007546518255034483
0.8200671672821045,0.0008429139852523804,-0.003047998994588852,0.0099564790725708,-0.0766412615776062,-0.07150746136903763,0.030991896986961365,-0.057996856468358414,0.21918407723694489,0.008036759991550072
0.8326630592346191,-0.0011668205261230469,-0.0023168176412582397,0.009872376918792725,-0.0822361409664154,-0.06766313314437866,0.03330463543534279,-0.05868591518142618,0.21854650760339378,0.00852087594759848
0.8404281139373779,-0.004372879862785339,-0.008520454168319702,0.010252416133880615,-0.08761226385831833,-0.06616004556417465,0.03586606681346893,-0.059428194890115624,0.21793170652961807,0.009042693044349818
0.8499181270599365,-0.0036934614181518555,-0.009498238563537598,0.0053917765617370605,-0.08243060111999512,-0.07509073615074158,0.03657563775777817,-0.060163157066860415,0.21727568292188987,0.009578710316862422
0.8599410057067871,-0.004144534468650818,0.0004642270505428314,0.0029689669609069824,-0.0770195946097374,-0.07535652071237564,0.034873344004154205,-0.06085258445304733,0.21657359624480763,0.010094221388688715
0.8699500560760498,-0.002265632152557373,0.0016396977007389069,0.004666447639465332,-0.11380858719348907,-0.08243098855018616,0.02397254854440689,-0.061662275770400954,0.21583108241970916,0.010606454874647647
0.8800251483917236,-0.004466116428375244,0.0024357587099075317,0.007632613182067871,-0.16179022192955017,-0.0902995616197586,0.002354604424908757,-0.06289803401643593,0.21502180557696862,0.011023088101647932
0.8899610042572021,-0.007409483194351196,-0.006031140685081482,0.01122736930847168,-0.2124381810426712,-0.08999995142221451,-0.01736764796078205,-0.06468521945020854,0.21416873680277707,0.011349451648916388
0.8999230861663818,-0.008219867944717407,-0.028067797422409058,0.009053707122802734,-0.23512911796569824,-0.09948214143514633,-0.025993360206484795,-0.06685963649436927,0.21332525426180945,0.011616697005172634
0.9099152088165283,-0.007995381951332092,-0.021197952330112457,0.009403347969055176,-0.2313181608915329,-0.12589587271213531,-0.028927577659487724,-0.0691350508535198,0.21225228127916276,0.011852237018536644
0.9200899600982666,-0.0038281679153442383,-0.006085053086280823,0.01360088586807251,-0.24001498520374298,-0.14466369152069092,-0.03998102620244026,-0.07134633714486102,0.21093860805750178,0.01202487811129433
0.9324371814727783,0.0029824823141098022,-0.0034002959728240967,0.019781768321990967,-0.2843043804168701,-0.1789202094078064,-0.058886222541332245,-0.0738102810704835,0.20936020473778824,0.012075277371658316
0.9414730072021484,0.0007825493812561035,-0.005354054272174835,0.01822364330291748,-0.4010528326034546,-0.21000486612319946,-0.09824933856725693,-0.07716214205668956,0.20743017104775535,0.012037630469453034
0.9505100250244141,0.0020670145750045776,-0.03132694214582443,0.019088804721832275,-0.611136794090271,-0.23762261867523193,-0.15772615373134613,-0.08224662791647669,0.20521341976953966,0.011793403627589906
0.9600322246551514,0.0016899704933166504,-0.07254816591739655,0.0256803035736084,-0.8699814081192017,-0.2983195185661316,-0.2188049554824829,-0.08974313652328753,0.20254305065510445,0.011465478707478799
0.9700620174407959,0.0013517290353775024,-0.10698556154966354,0.035364508628845215,-1.2183701992034912,-0.3872402608394623,-0.3230704963207245,-0.10050178833623297,0.19906291734634005,0.010882870083760326
0.9818570613861084,0.009004220366477966,-0.13424690067768097,0.054788947105407715,-1.553400993347168,-0.430630087852478,-0.349814236164093,-0.11481512599737623,0.19491882817442865,0.010264373779797489
0.9900820255279541,0.016371890902519226,-0.1539972722530365,0.06266820430755615,-1.79715096950531,-0.5395732522010803,-0.396631121635437,-0.1320263269056239,0.19004234504256323,0.0098588601861153
1.0000040531158447,0.031220227479934692,-0.14078186452388763,0.04154294729232788,-1.9790645837783813,-0.688877522945404,-0.44816941022872925,-0.15143071149582873,0.18381888909237132,0.009186630993333448
1.0100901126861572,0.03677375614643097,-0.11585338413715363,0.0322759747505188,-2.1827392578125,-0.761816143989563,-0.5250064730644226,-0.17280336387042758,0.17629901279627247,0.008155192917091486
1.0200750827789307,0.04933901131153107,-0.1204141229391098,0.024701595306396484,-2.436282157897949,-0.8501787781715393,-0.5517075657844543,-0.19634979827683383,0.1679959207482133,0.006690071660737746
1.0301549434661865,0.030209213495254517,-0.12468983232975006,0.02010279893875122,-2.893947124481201,-0.9151111245155334,-0.6539149880409241,-0.2235315061051716,0.1586986309734657,0.005143912196846092
1.0401420593261719,0.02536916732788086,-0.1259651482105255,0.02577143907546997,-3.4470295906066895,-0.8714331984519958,-0.7977051734924316,-0.2561212036908962,0.14919105395004853,0.002666004683346598
1.0502021312713623,0.018341943621635437,-0.18027839064598083,0.028423070907592773,-3.775250196456909,-0.9301126599311829,-0.8314331769943237,-0.29321105679716547,0.13935847177957444,-0.00029024630803519005
1.0601351261138916,-0.014598280191421509,-0.18172287940979004,0.004470348358154297,-3.8820624351501465,-0.9220885634422302,-0.8294675350189209,-0.3324187966510266,0.12907360609213892,-0.0036088762425234436
1.0701990127563477,0.002637892961502075,-0.10069447755813599,-0.006103575229644775,-3.8236615657806396,-0.943732500076294,-0.759023129940033,-0.37178915347612473,0.11854294878375099,-0.006976352248322483
1.082273006439209,0.009213432669639587,-0.015054792165756226,-0.05306178331375122,-3.606962203979492,-0.943658709526062,-0.6652649641036987,-0.40970658679070093,0.10789437219121828,-0.0100621832727255
1.0902221202850342,0.024056173861026764,0.06661313772201538,-0.07895791530609131,-3.1444132328033447,-0.9814392924308777,-0.5834313631057739,-0.4440526431110889,0.09710128652695302,-0.01306147577660395
1.1003539562225342,0.023736774921417236,0.11481145024299622,-0.10293114185333252,-2.6135575771331787,-1.015734314918518,-0.5747939348220825,-0.47327770804077696,0.08546642158964245,-0.016534006952020983
1.11067795753479,0.015398725867271423,0.13634341955184937,-0.0832204818725586,-2.094667911529541,-0.9305782318115234,-0.5449261665344238,-0.4972194414429025,0.07369155023029332,-0.020758331559292856
1.1208269596099854,-0.007279187440872192,0.12881949543952942,-0.04575061798095703,-1.5199778079986572,-0.7629985809326172,-0.544380784034729,-0.5157175394803345,0.06287065138949949,-0.02553725766769293
1.1317269802093506,-0.04966730996966362,0.13101154565811157,-0.03201186656951904,-0.83517986536026,-0.5679763555526733,-0.5523701906204224,-0.5278860059320153,0.05342111130118615,-0.031059288408272993
1.1403071880340576,-0.08102690428495407,0.1468101143836975,0.0027355551719665527,0.2729787826538086,-0.11509625613689423,-0.5255244374275208,-0.531380216727241,0.046799591503423874,-0.03716292816467125
1.1502411365509033,-0.10668174922466278,0.189790278673172,0.0016107559204101562,2.0601189136505127,0.24924485385417938,-0.4641510546207428,-0.5204987580213821,0.04422148145646303,-0.04353047869679785
1.1602680683135986,-0.13632577657699585,0.3188495635986328,-0.04796785116195679,4.666236877441406,0.46470603346824646,-0.27903419733047485,-0.4872683912814664,0.045228712425965344,-0.049485714333110324
1.170309066772461,-0.11881829798221588,0.5575117468833923,-0.09028482437133789,7.364912033081055,0.7076475024223328,-0.29595500230789185,-0.4272462923719079,0.04806727416380574,-0.05573018776507927
1.181265115737915,-0.0887630358338356,0.798790693283081,-0.07482242584228516,9.957980155944824,1.268586277961731,-0.27118414640426636,-0.3407613949984109,0.05496198284501307,-0.06357988604246581
1.192641019821167,-0.127397358417511,0.9216175079345703,-0.02598947286605835,12.55927562713623,1.7531124353408813,-0.2927616834640503,-0.22830994035960717,0.06755479192252917,-0.07370158888382633
1.201923131942749,-0.17453742027282715,1.0701106786727905,-0.06171894073486328,14.547296524047852,2.0051498413085938,-0.41788017749786377,-0.0926806330699784,0.08408492648235548,-0.08764146238883455
1.2102129459381104,-0.19732671976089478,1.2761672735214233,0.0979452133178711,15.119864463806152,2.295058250427246,-0.46971046924591064,0.055798316325313534,0.1052465402414657,-0.10633254740659728
1.2202332019805908,-0.18135641515254974,1.3668553829193115,0.3711710572242737,14.067389488220215,2.6811962127685547,-0.4417102634906769,0.20145191644293586,0.13294501871340486,-0.12836358049296945
1.231355905532837,-0.13113000988960266,1.3446085453033447,0.5458378195762634,11.501494407653809,3.2591757774353027,-0.7967079877853394,0.3278198932491279,0.16919292338705344,-0.15441544569051516
1.2402799129486084,-0.07557262480258942,1.13770592212677,0.665043830871582,8.579534530639648,4.123631954193115,-1.3210010528564453,0.4239759150249125,0.21787516227233972,-0.18603594910873297
1.2503411769866943,-0.1426825076341629,0.6450250148773193,0.67335045337677,6.588971138000488,4.576977729797363,-2.0349040031433105,0.49305342235289207,0.27887885258768574,-0.22465433587389202
1.2601349353790283,-0.20435252785682678,0.2125270962715149,0.6796380877494812,5.26948881149292,4.743600845336914,-2.5925278663635254,0.5417756914068731,0.3487949874007223,-0.2712868353333513
1.2702991962432861,-0.282676100730896,-0.12372350692749023,0.825946569442749,4.8251953125,4.611302375793457,-2.5192971229553223,0.5784020972214841,0.42268183333333337,-0.32179238495189877
1.2813231945037842,-0.1806880533695221,-0.2060014009475708,0.9443851113319397,4.9591288566589355,4.100140571594238,-2.3208563327789307,0.6113977660431876,0.4958366681588658,-0.3739376706193062
1.2903969287872314,0.13677218556404114,-0.05369502305984497,0.9408521056175232,5.247025012969971,3.3118855953216553,-2.4588465690612793,0.6434522351519262,0.5667680995182435,-0.4314190655579734
1.300389051437378,0.40150585770606995,-0.0456661581993103,0.9680467844009399,5.401125431060791,2.538742780685425,-2.5556983947753906,0.6731046324428122,0.6354445354859196,-0.49575397637598523
1.3103358745574951,0.42921891808509827,-0.22788232564926147,0.9494712352752686,5.489017963409424,1.8271541595458984,-2.5997791290283203,0.6999412324467783,0.701510689873426,-0.5657574718994332
1.3206830024719238,0.3643854260444641,-0.32126814126968384,0.8015432953834534,5.26369571685791,1.4135254621505737,-2.4869117736816406,0.7230675481511141,0.7650297687261205,-0.6386655073683313
1.3332931995391846,0.3628377318382263,-0.40926849842071533,0.5868589282035828,4.482236385345459,1.5013729333877563,-2.2336196899414062,0.7405382668660481,0.8257058888088246,-0.7081441168223989
1.3403270244598389,0.3068576455116272,-0.5581565499305725,0.30457741022109985,3.448024272918701,1.860338568687439,-1.92401123046875,0.7509132147559009,0.8827820748260157,-0.7675301300089968
1.35072922706604,0.17683029174804688,-0.7569752335548401,-0.022308290004730225,2.376342296600342,2.2140119075775146,-1.5016275644302368,0.755247079099567,0.9346917994482454,-0.8135507333763651
1.360746145248413,0.12364274263381958,-0.9169774055480957,-0.24347767233848572,1.453606128692627,2.4296376705169678,-0.9265598058700562,0.7562345057140502,0.9793991779560408,-0.8445935696165372
1.3713881969451904,0.0651811957359314,-0.9864030480384827,-0.29526662826538086,0.8966725468635559,2.420276641845703,-0.3771377205848694,0.7569925310740417,1.0162491124168278,-0.8627330727592365
1.3821840286254883,0.004923045635223389,-0.9654900431632996,-0.29845139384269714,0.7430723309516907,2.2601587772369385,0.19536469876766205,0.7602838525185025,1.0467674994819325,-0.8728563302846413
1.3907420635223389,-0.022461354732513428,-0.8437376618385315,-0.2930573523044586,0.8176747560501099,2.0243208408355713,0.7174105048179626,0.7681288641425376,1.0725161673082504,-0.8791019904063642
1.4007461071014404,-0.06613737344741821,-0.6361647844314575,-0.23991239070892334,1.0625324249267578,1.8147170543670654,1.0999467372894287,0.7806051202010175,1.095451488703775,-0.8845452304743298
1.410660982131958,-0.09953176975250244,-0.43134331703186035,-0.1946524977684021,1.447680115699768,1.702469825744629,1.2677347660064697,0.7969350579512434,1.1189180747875953,-0.8928739840105038
1.4206500053405762,-0.10954678058624268,-0.23314768075942993,-0.20318764448165894,1.7935869693756104,1.6607428789138794,1.3754385709762573,0.815872686628088,1.145194067153974,-0.906088425258816
1.4322690963745117,-0.1134028434753418,-0.037111639976501465,-0.22706672549247742,1.9068933725357056,1.5159732103347778,1.3611801862716675,0.8359608183273269,1.1737822846774533,-0.9231941718465639
1.4406039714813232,-0.09393203258514404,0.11255425214767456,-0.16041478514671326,1.7371724843978882,1.3872721195220947,1.1310465335845947,0.85446044987377,1.202370807324266,-0.9419110577371195
1.4506781101226807,-0.022741258144378662,0.1681147813796997,-0.09598663449287415,1.2983464002609253,1.2928727865219116,0.8289014101028442,0.8689951937156695,1.2284462331025001,-0.958654554977903
1.4606471061706543,0.0480802059173584,0.1635376214981079,-0.10650548338890076,0.8173916935920715,1.1809417009353638,0.44091713428497314,0.8785276139854947,1.2501783491162817,-0.9709498192375033
1.4708080291748047,0.07692515850067139,0.18434268236160278,-0.11254695057868958,0.541153073310852,1.0758888721466064,0.06863951683044434,0.8829255345335597,1.2682541840455723,-0.9796578468037824
1.4825270175933838,0.10429221391677856,0.18463069200515747,-0.14176975190639496,0.4931708872318268,0.8780748248100281,-0.20227853953838348,0.883691780417601,1.2842069065895314,-0.987607944975149
1.4908859729766846,0.13786590099334717,0.2961159348487854,-0.16850000619888306,0.5608389973640442,0.7000215649604797,-0.3899866044521332,0.8822328337955406,1.2991869547098769,-0.9968328238648605
1.5009291172027588,0.15391457080841064,0.38899093866348267,-0.13385848701000214,0.6717225909233093,0.5184182524681091,-0.4577438235282898,0.8796829551721704,1.3139508698890603,-1.0079664946438027
1.5108659267425537,0.1300041675567627,0.3832392692565918,-0.1322282999753952,0.6943804025650024,0.40519678592681885,-0.47683048248291016,0.8768166089453593,1.3279576802576634,-1.0202499969579744
1.5219120979309082,0.11269181966781616,0.3619897961616516,-0.12665019929409027,0.5839124917984009,0.33240780234336853,-0.46452268958091736,0.8737304161130465,1.340519363852078,-1.031803651608056
1.5318810939788818,0.05540657043457031,0.20013141632080078,-0.11332182586193085,0.4216676354408264,0.22863700985908508,-0.4268288314342499,0.8705147760335166,1.3503902102278316,-1.0410012864661713
1.5407710075378418,0.0034882426261901855,0.038172245025634766,-0.0936657041311264,0.2337709665298462,0.10114216804504395,-0.3651700019836426,0.8673440295909031,1.3569246961869017,-1.0473327996992474
1.550813913345337,-0.02615046501159668,-0.046638309955596924,-0.05674578249454498,0.06964995712041855,0.010932426899671555,-0.29174306988716125,0.8643974724521534,1.3598979498427588,-1.0505993264520732
1.5608150959014893,-0.06060749292373657,-0.1061100959777832,-0.017370209097862244,-0.02805982530117035,-0.10922247171401978,-0.18809284269809723,0.8621072930541622,1.3601942399083025,-1.0515873221580228
1.5709102153778076,-0.10161608457565308,-0.1223573088645935,-0.0049703121185302734,-0.07376929372549057,-0.21282227337360382,-0.13186657428741455,0.8604496848894614,1.3582937260462746,-1.0512715022123327
1.5820062160491943,-0.1050177812576294,-0.07873916625976562,0.0009538084268569946,-0.0422651581466198,-0.22301019728183746,-0.09775149077177048,0.8591766171853633,1.3556657984097311,-1.0507292087525035
1.590820074081421,-0.10517239570617676,-0.07041853666305542,-0.007907792925834656,0.004041153006255627,-0.17312288284301758,-0.048551931977272034,0.8584362006463252,1.353624568648071,-1.0507283805266245
1.6009650230407715,-0.10377991199493408,0.00383836030960083,-0.050268471240997314,0.01648077741265297,-0.041362468153238297,-0.04540247842669487,0.858051279552833,1.3527704835256615,-1.0510467896298268
1.6109380722045898,-0.08654755353927612,0.07894665002822876,-0.08074335753917694,-0.07090194523334503,0.0957578793168068,-0.10629592090845108,0.8572883723088017,1.3530661207446357,-1.0510421179078626
1.6212489604949951,-0.07378995418548584,0.07189512252807617,-0.10168074071407318,-0.23875939846038818,0.16376915574073792,-0.19106142222881317,0.8554920620929226,1.3530747903646723,-1.0492312999948847
1.6318480968475342,-0.04235363006591797,0.007967770099639893,-0.08687484264373779,-0.33655622601509094,0.10069378465414047,-0.2612689435482025,0.8526457627774944,1.3516272284391377,-1.0455276638103652
1.6409320831298828,-0.0010838508605957031,-0.033419251441955566,-0.044839635491371155,-0.27507156133651733,0.008931638672947884,-0.30662551522254944,0.8491433560941338,1.3493952541497125,-1.0418236052392287
1.6509490013122559,0.03572195768356323,0.009272217750549316,-0.015236616134643555,-0.12852974236011505,-0.09964859485626221,-0.2956845462322235,0.8457274502643949,1.3474323691644265,-1.0398356665626507
1.6608412265777588,0.04595392942428589,0.06823641061782837,-0.024599790573120117,-0.048634905368089676,-0.16308215260505676,-0.268075555562973,0.8427935771636884,1.3459143419174204,-1.0395817681256934
1.670971155166626,0.05557668209075928,0.08723640441894531,-0.03701120615005493,-0.0975097045302391,-0.19006910920143127,-0.2675950527191162,0.8400501164304603,1.3440444723544158,-1.039499037123246
1.6819078922271729,0.05259615182876587,0.014825940132141113,-0.04719509184360504,-0.22805999219417572,-0.14321798086166382,-0.27571797370910645,0.8370262460834953,1.3412969551306386,-1.0381023699692042
1.690906047821045,0.04063403606414795,-0.09420335292816162,-0.05409921705722809,-0.38525599241256714,-0.12910988926887512,-0.23161602020263672,0.8338341103379363,1.3373257571995296,-1.0345004686410402
1.7010471820831299,0.01891493797302246,-0.17367374897003174,-0.050005003809928894,-0.47543594241142273,-0.12431807070970535,-0.20988568663597107,0.8306794460341166,1.3319742453546797,-1.029007267045536
1.711022138595581,0.016203999519348145,-0.17116397619247437,-0.017508313059806824,-0.5153152346611023,-0.08935960382223129,-0.16397134959697723,0.8276182621620416,1.3261278553300029,-1.0225185383749344
1.7221019268035889,-0.0013627409934997559,-0.1654607057571411,0.007456675171852112,-0.5297176241874695,-0.13960465788841248,-0.06796573847532272,0.8252258003179778,1.3197434383819477,-1.0153916507024794
1.7323338985443115,-0.017618894577026367,-0.14128458499908447,0.025317981839179993,-0.5162011384963989,-0.15257282555103302,-0.015428653918206692,0.8235270581076976,1.3128938987766912,-1.0080864122968554
1.7416369915008545,-0.007745325565338135,-0.08489388227462769,0.05454649031162262,-0.45648857951164246,-0.12901955842971802,0.006061458494514227,0.8221948282459449,1.306298900212519,-1.0010958175000568
1.7509949207305908,-0.026235997676849365,-0.07554590702056885,0.057037353515625,-0.388416588306427,-0.12471342086791992,0.05337651073932648,0.8214022918729527,1.300625044934024,-0.9950092244708031
1.7609670162200928,-0.03325313329696655,-0.047651469707489014,0.05989374220371246,-0.27723467350006104,-0.1033434122800827,0.0586189404129982,0.8210459318715373,1.2957510774679797,-0.990006785468064
1.7710769176483154,-0.019683420658111572,0.0054666996002197266,0.05902285873889923,-0.1548020839691162,-0.07793325930833817,0.0654727965593338,0.821071708352693,1.2924629148123021,-0.9867263042597936
1.7819249629974365,-0.014436125755310059,0.05071061849594116,0.04271155595779419,-0.0852067694067955,-0.047731950879096985,0.06655670702457428,0.8213652539384368,1.2904847409470597,-0.9848517710473034
1.7912840843200684,-0.010467886924743652,0.06343293190002441,0.03321021795272827,-0.0675605908036232,-0.06059164181351662,0.04425997659564018,0.8217185630619419,1.2889685133860926,-0.9835329001229531
1.8012940883636475,0.007387399673461914,0.030505001544952393,0.024386972188949585,-0.07753253728151321,-0.06713396310806274,0.014742031693458557,0.8218088879743151,1.2875225010178422,-0.9824036168784154
1.8113319873809814,0.023326218128204346,-0.005712985992431641,0.020609349012374878,-0.1399921327829361,-0.07339438796043396,-0.013191385194659233,0.8215047773506441,1.285717304023745,-0.9809267003869786
1.8217480182647705,0.0292932391166687,-0.034464895725250244,0.014538660645484924,-0.22356373071670532,-0.0782003328204155,-0.014884356409311295,0.8208264281694319,1.2830802504825505,-0.9783768954266939
1.8334300518035889,0.0338473916053772,-0.06139129400253296,0.004570573568344116,-0.2501680254936218,-0.08744025975465775,0.011879772879183292,0.8201181952000253,1.279787018702233,-0.9750057293179912
1.8412392139434814,0.03687334060668945,-0.07199740409851074,-0.007299900054931641,-0.22010867297649384,-0.10051451623439789,0.056686658412218094,0.8197362452579219,1.276311953673072,-0.9715214867980292
1.851283073425293,0.03426659107208252,-0.0462421178817749,-0.013420343399047852,-0.17128048837184906,-0.1436573714017868,0.11596164852380753,0.820002341302751,1.2727903225246304,-0.9683682933256352
1.8611171245574951,0.029053866863250732,-0.014273643493652344,-0.014053821563720703,-0.11517433822154999,-0.16596719622612,0.15426136553287506,0.8208769395560502,1.2692803254792722,-0.965745284018106
1.8712708950042725,0.03077751398086548,0.008703768253326416,-0.008087188005447388,-0.11268329620361328,-0.18786507844924927,0.1723589301109314,0.8221279725265358,1.2658543080115314,-0.9634929396651409
1.8824341297149658,0.02064669132232666,-0.0008819103240966797,-0.017220258712768555,-0.15823933482170105,-0.17201422154903412,0.16940388083457947,0.8233570992447197,1.2620824246053572,-0.960852806921741
1.891266107559204,0.013781964778900146,-0.018856346607208252,-0.019149690866470337,-0.22583933174610138,-0.15603120625019073,0.16686956584453583,0.82439100593453,1.257912754571503,-0.9573886438076921
1.9016802310943604,0.0037891268730163574,-0.04518014192581177,-0.02348741888999939,-0.2890646457672119,-0.14544834196567535,0.15882602334022522,0.8251518614569999,1.2533945903185664,-0.9531714557141792
1.911302089691162,0.0052106380462646484,-0.03749340772628784,-0.02413317561149597,-0.3034488260746002,-0.14790812134742737,0.16824860870838165,0.8257762500995898,1.2484853690530748,-0.94835840570131
1.9216420650482178,0.009323954582214355,-0.02622467279434204,-0.021247148513793945,-0.2563928961753845,-0.20921622216701508,0.1779680699110031,0.826598289215112,1.2432635033702064,-0.9436295966410376
1.9321911334991455,0.01675570011138916,0.010853171348571777,-0.008813828229904175,-0.21144874393939972,-0.23294997215270996,0.1757817417383194,0.8274982175644805,1.2381199738405937,-0.9396309298842536
1.9413011074066162,0.025104165077209473,0.041597843170166016,-0.0001420825719833374,-0.2352834939956665,-0.23100000619888306,0.1796683520078659,0.8283979948996941,1.2329694367461232,-0.9357727995890965
1.9512760639190674,0.007775247097015381,0.029903709888458252,-0.009454667568206787,-0.3086434602737427,-0.17075693607330322,0.17686530947685242,0.8291569847956143,1.227509128780888,-0.9311198492827134
1.9613568782806396,-0.006576657295227051,0.002655923366546631,-0.015446066856384277,-0.3558133542537689,-0.17648300528526306,0.18783114850521088,0.8297510812201851,1.2216215533650165,-0.9254664501049719
1.9714610576629639,-0.024598240852355957,-0.019045114517211914,-0.011403143405914307,-0.33187413215637207,-0.1627623587846756,0.16967366635799408,0.8302439392330497,1.2156193158093365,-0.9196876991831664
1.9825232028961182,-0.022891640663146973,0.025014936923980713,0.014577329158782959,-0.2703026533126831,-0.17180298268795013,0.16266608238220215,0.8307534484113414,1.210274675782525,-0.9146541486800982
1.991412878036499,-0.040074825286865234,0.03446614742279053,0.02559220790863037,-0.24724695086479187,-0.19724737107753754,0.14611758291721344,0.8312828810627332,1.205117710562613,-0.910232430413877
2.0015640258789062,-0.03939276933670044,0.05524677038192749,0.05387713015079498,-0.23102909326553345,-0.1960097998380661,0.12071368098258972,0.8316650361354486,1.2001821099109484,-0.9062112037742407
2.0115249156951904,-0.02878624200820923,0.043392837047576904,0.06410598754882812,-0.23809777200222015,-0.17865987122058868,0.08922632783651352,0.8318043481627814,1.1954675872653158,-0.9024068593871407
2.0213420391082764,-0.025182664394378662,0.03573179244995117,0.050426989793777466,-0.28670525550842285,-0.12476148456335068,0.0466863289475441,0.8314855275735388,1.1910122765277598,-0.8984514373021918
2.0322721004486084,-0.020714104175567627,0.022485315799713135,0.037338703870773315,-0.3432752788066864,-0.05224955826997757,0.016899192705750465,0.8305546288132619,1.1867814133085708,-0.8939219792264955
2.0413870811462402,-0.023983538150787354,-0.003953218460083008,0.013496190309524536,-0.3556064963340759,-0.04221023991703987,0.037713661789894104,0.829476657459121,1.182636513553426,-0.888870606324135
2.051337957382202,-0.010692954063415527,-0.0056473612785339355,7.635354995727539e-05,-0.2997046113014221,-0.06281778216362,0.03704094886779785,0.8285726925650144,1.1786337370498488,-0.8841479672421358
2.0613510608673096,0.01704084873199463,0.038766443729400635,-0.0032561421394348145,-0.29907265305519104,-0.10862389206886292,0.03637755289673805,0.8277987471159843,1.1746928716212555,-0.8799386295330012
2.071458101272583,0.02628391981124878,0.028904974460601807,-0.003349006175994873,-0.4166983664035797,-0.1630522459745407,0.02138368971645832,0.826710470539058,1.1696900357393576,-0.8749883189478062
2.082885980606079,0.030469954013824463,-0.026864290237426758,0.002058863639831543,-0.6041079163551331,-0.21442514657974243,-0.011009404435753822,0.8247773487258389,1.162718701616436,-0.8680798707772108
2.09135103225708,0.03704512119293213,-0.09685415029525757,0.001642853021621704,-0.838342010974884,-0.265776664018631,-0.04635269567370415,0.821616131267829,1.1533153564475052,-0.8585324737842851
2.101532220840454,0.02718561887741089,-0.14590227603912354,0.00540614128112793,-1.060163140296936,-0.3683430254459381,-0.04301655292510986,0.8172702338426319,1.1411020869072757,-0.8460920145231482
2.1114299297332764,0.016403675079345703,-0.18133997917175293,0.02677556872367859,-1.2276554107666016,-0.5022433996200562,-0.026946239173412323,0.8120784050313391,1.1258406729800434,-0.8311352163541293
2.1215450763702393,0.023123443126678467,-0.18476617336273193,0.052557796239852905,-1.328332781791687,-0.6037468910217285,0.03205609321594238,0.8064276867609548,1.1081712656105434,-0.8144037822159262
2.132253885269165,0.028813600540161133,-0.18345379829406738,0.040038615465164185,-1.3561856746673584,-0.658602774143219,0.13310974836349487,0.8010193585533502,1.0889274059944,-0.7965298421788559
2.1415021419525146,0.024100124835968018,-0.17691868543624878,0.009308546781539917,-1.3336526155471802,-0.5942264795303345,0.2489338219165802,0.7963668531739514,1.0695267860329551,-0.7782754260633133
2.152087926864624,0.03039604425430298,-0.11162722110748291,-0.05016052722930908,-1.4651448726654053,-0.530674934387207,0.3259734809398651,0.7921200225220243,1.050168178489816,-0.7589568158420162
2.1615281105041504,-0.004480123519897461,-0.09465634822845459,-0.08727401494979858,-1.8510496616363525,-0.5444666147232056,0.3353901505470276,0.7866861671565343,1.02881568596543,-0.7364201606544211
2.171726942062378,-0.0167238712310791,-0.20885813236236572,-0.0542752742767334,-2.506175994873047,-0.6017068028450012,0.24347220361232758,0.7777949191523583,1.003222454775336,-0.708237573153547
2.181896924972534,-0.009780824184417725,-0.37020403146743774,0.003643333911895752,-3.3947103023529053,-0.6797353029251099,0.05593080073595047,0.7629122770288903,0.9721766192283803,-0.6728712155270844
2.1915009021759033,-0.026046574115753174,-0.5266667604446411,0.05436602234840393,-4.4818196296691895,-0.7602302432060242,-0.18065036833286285,0.739632880883516,0.9352898104316655,-0.6294280567894577
2.2015600204467773,-0.05116677284240723,-0.6699597835540771,0.1182403564453125,-5.572902679443359,-0.8929179906845093,-0.39861491322517395,0.706563171716743,0.8933515416855567,-0.578524988804528
2.2115700244903564,-0.06859982013702393,-0.767055332660675,0.20236492156982422,-6.249462127685547,-1.0968292951583862,-0.5236589312553406,0.664431504962648,0.8485598260839546,-0.5234924312603133
2.221776008605957,-0.04985201358795166,-0.7486143112182617,0.29406726360321045,-6.376894950866699,-1.3423535823822021,-0.3680157959461212,0.6179783349003403,0.8035363384689319,-0.4688410419367075
2.23180890083313,0.05559259653091431,-0.5117183327674866,0.29173731803894043,-5.673011779785156,-1.5060597658157349,-0.06436572968959808,0.5734238257416174,0.7614594190928589,-0.4191498029094287
2.2416341304779053,0.19782483577728271,0.00035828351974487305,0.14628010988235474,-4.872138023376465,-1.8536006212234497,0.26998430490493774,0.5352578907323183,0.7221934029546094,-0.37632186830525727
2.2518060207366943,0.2034497857093811,0.36863473057746887,0.06271159648895264,-4.226694583892822,-2.2777292728424072,0.544884979724884,0.5033103064007655,0.6829239796130906,-0.3388478224237231
2.2615790367126465,0.23801559209823608,0.4438598155975342,0.126703679561615,-3.9243738651275635,-2.629305839538574,0.6888077855110168,0.4751829730978595,0.6423706748317841,-0.30498947841887963
2.271771192550659,0.2754773497581482,0.2899194657802582,0.19713371992111206,-4.021596908569336,-2.949699640274048,0.7504235506057739,0.44724407260614396,0.6000524879234752,-0.27270996683286997
2.282353162765503,0.21881330013275146,0.07224184274673462,0.28564023971557617,-4.4373555183410645,-3.2226505279541016,0.7755113244056702,0.41616726511985863,0.5557011627188018,-0.24028863343451656
2.29180908203125,0.1744774580001831,-0.09683564305305481,0.40501677989959717,-5.101620197296143,-3.432255744934082,0.6579327583312988,0.37872094854377736,0.5094608897288385,-0.2072841978395893
2.3018910884857178,0.1615300476551056,-0.18180885910987854,0.5065757632255554,-5.8246750831604,-3.5247132778167725,0.5273222923278809,0.3331225074044481,0.463134641369347,-0.17439890113475
2.3119471073150635,0.13786864280700684,-0.21629709005355835,0.5268667936325073,-6.480277061462402,-3.4449381828308105,0.3909450173377991,0.2792619719830917,0.418486554161146,-0.142482507652511
2.3222758769989014,0.10905885696411133,-0.14799827337265015,0.47175198793411255,-6.827505111694336,-3.272475004196167,0.3711515963077545,0.2191540277382116,0.3773162406387679,-0.11217306059748747
2.3325181007385254,0.08592730760574341,-0.009048521518707275,0.38304948806762695,-6.895617485046387,-3.0821423530578613,0.3487114906311035,0.15599687140245583,0.34030535894701175,-0.08415548310532527
2.341810941696167,0.09061959385871887,0.09029170870780945,0.25699079036712646,-6.791543960571289,-2.9046242237091064,0.35642239451408386,0.09205437725390206,0.30716080868570134,-0.05885930308990947
2.3519880771636963,0.09481403231620789,0.11941367387771606,0.18745553493499756,-6.501510143280029,-2.7615764141082764,0.4416499435901642,0.02931474367108105,0.27742447880764015,-0.03582135631841674
2.3617000579833984,0.08974224328994751,0.12267182767391205,0.16678261756896973,-6.014989852905273,-2.6637840270996094,0.511859118938446,-0.029966294414779025,0.2503002570786667,-0.014852320241451195
2.3719441890716553,0.08797766268253326,0.15409833192825317,0.16517168283462524,-5.623983383178711,-2.615414619445801,0.5117518901824951,-0.08523207922467543,0.22496646545631455,0.003908329664486037
2.3823370933532715,0.07954993844032288,0.11839744448661804,0.20445013046264648,-5.523751258850098,-2.546053647994995,0.4125528335571289,-0.138684201213458,0.20093732248038618,0.020348521485808905
2.391839027404785,0.0811021625995636,0.0033617019653320312,0.27527958154678345,-5.491565704345703,-2.4240520000457764,0.29769396781921387,-0.1921234289480205,0.1783550100787648,0.03440649493176287
2.4020779132843018,0.04927206039428711,-0.10595858097076416,0.3166065216064453,-5.465111255645752,-2.2794315814971924,0.20109762251377106,-0.24587975437071213,0.15740067719996942,0.04632342364893942
2.411987066268921,0.033002883195877075,-0.12275657057762146,0.3023839592933655,-5.317405700683594,-2.082735776901245,0.12852872908115387,-0.2990539209769772,0.13820895229476046,0.05625741340106495
2.422187089920044,0.029359392821788788,-0.06793546676635742,0.27971839904785156,-5.037740707397461,-1.9833601713180542,0.009143214672803879,-0.3504396484825569,0.12034803224202752,0.0640520766163754
2.4321160316467285,0.012735970318317413,-0.040311336517333984,0.23180508613586426,-4.742043495178223,-1.842124342918396,0.03574883192777634,-0.39918702801383266,0.10344671285201978,0.07002897397152602
2.441869020462036,-0.008591137826442719,-0.00503385066986084,0.21715885400772095,-4.308530330657959,-1.6886460781097412,0.1583101749420166,-0.44426314985318405,0.08810863744355232,0.07586979829633854
2.4519269466400146,-0.004222273826599121,0.08976364135742188,0.20283949375152588,-3.767587900161743,-1.5101659297943115,0.22052176296710968,-0.4844104763926357,0.07470735292052796,0.08171505341911069
2.4619300365448,-0.0226404070854187,0.10222688317298889,0.15527063608169556,-3.316993474960327,-1.31757652759552,0.19525237381458282,-0.5195590317593244,0.06302106015943106,0.08690536361459145
2.4719860553741455,-0.0654078871011734,0.03457283973693848,0.11548089981079102,-2.9792673587799072,-1.091360330581665,0.1668677031993866,-0.5508485920104754,0.05313136812465642,0.0911120827905995
2.4822371006011963,-0.09210103750228882,-0.030727088451385498,0.1103816032409668,-2.757113456726074,-0.9169238209724426,0.13787440955638885,-0.5793876973540241,0.04496241786916781,0.09458805484783125
2.4919850826263428,-0.0905863493680954,-0.0708688497543335,0.10983008146286011,-2.6984548568725586,-0.7154760360717773,0.09000887721776962,-0.6065603172396531,0.03827936371849479,0.09732389007624824
2.5020430088043213,-0.0707738921046257,-0.0886649489402771,0.12080800533294678,-2.6555299758911133,-0.4876052737236023,0.02928161434829235,-0.6333380356078315,0.033384448385603414,0.09925574014938059
2.5119850635528564,-0.056343406438827515,-0.12773853540420532,0.11279189586639404,-2.6144683361053467,-0.270555317401886,-0.04141050577163696,-0.6597343201719102,0.030236452578735775,0.10021577831335456
2.5218870639801025,-0.04531702771782875,-0.15924954414367676,0.07670515775680542,-2.4796719551086426,-0.16918660700321198,-0.09230857342481613,-0.6852505596891975,0.028065071615263355,0.10027112731591649
2.531864881515503,-0.029310809448361397,-0.11789077520370483,0.06099081039428711,-2.349245071411133,-0.10241179168224335,-0.012322928756475449,-0.7095072599465364,0.026871242681656596,0.10034598869522243
2.542051076889038,-0.0033246763050556183,-0.04018324613571167,0.06334394216537476,-2.225787878036499,-0.041085854172706604,0.1829427033662796,-0.7324286292619552,0.027294446289595344,0.10220927756812832
2.552061080932617,0.024730408564209938,0.08426547050476074,0.05844426155090332,-1.7334644794464111,-0.03278224915266037,0.2709736227989197,-0.7521228353177675,0.029493377488800994,0.10617768410170382
2.5620481967926025,0.024985624477267265,0.14911669492721558,0.03591418266296387,-1.326804518699646,0.039930034428834915,0.23418734967708588,-0.7674433095010555,0.0324348004721981,0.1104141181772698
2.5720040798187256,0.011341230943799019,0.061293184757232666,-0.013499438762664795,-0.9637478590011597,0.11266770958900452,0.172037273645401,-0.77881939500251,0.035568451620032276,0.11376168104134801
2.58270001411438,-0.009521959349513054,-0.03814888000488281,-0.02759021520614624,-0.6813561320304871,0.16088396310806274,0.14872422814369202,-0.7868917694356722,0.0388028618484267,0.11641643042614089
2.592170000076294,-0.02512103132903576,-0.021706342697143555,-0.03486353158950806,-0.5244627594947815,0.24850894510746002,0.1477501541376114,-0.7928185398191337,0.04254550518150001,0.11885859355653261
2.6030960083007812,-0.009854473173618317,0.024090945720672607,-0.03295785188674927,-0.4507187306880951,0.31780359148979187,0.14011166989803314,-0.7975615049797536,0.04711450126975865,0.12123172060382392
2.6121909618377686,-0.009139478206634521,0.00905686616897583,-0.05176103115081787,-0.5009394884109497,0.34006446599960327,0.11857250332832336,-0.802166146452966,0.05202282012449853,0.12343604028981052
2.6220850944519043,-0.01687125489115715,-0.00540691614151001,-0.06310057640075684,-0.6405549049377441,0.35946187376976013,0.1349027454853058,-0.8077554928917725,0.05707389640182025,0.12561971470188646
2.6326382160186768,-0.010364394634962082,0.006015479564666748,-0.04236125946044922,-0.765099048614502,0.3147358000278473,0.1936267614364624,-0.8147450276801318,0.06272252348027815,0.12865036071107647
2.6421620845794678,-0.0024535730481147766,0.03953289985656738,-0.0372350811958313,-0.8687064051628113,0.25779980421066284,0.22762148082256317,-0.822772876408156,0.06840222509083459,0.13253601917570793
2.65240216255188,0.0037488937377929688,0.06601768732070923,-0.03125876188278198,-0.8870214223861694,0.20416057109832764,0.24388764798641205,-0.831434266201608,0.07398870242867113,0.13697749119290656
2.662123918533325,0.006425041705369949,0.05591738224029541,-0.03349447250366211,-0.8325650691986084,0.159510537981987,0.23550215363502502,-0.8398733965112674,0.07919126609465653,0.14154535487370845
2.6722280979156494,-0.004846073687076569,0.0582963228225708,-0.05576515197753906,-0.7162481546401978,0.13811977207660675,0.22331488132476807,-0.8474276163882759,0.08395415313043776,0.1459299558483843
2.682647943496704,-0.008773788809776306,0.061518073081970215,-0.07995569705963135,-0.5825966000556946,0.12453550845384598,0.22417588531970978,-0.853717118523709,0.08843772926472525,0.15015037642668985
2.6922662258148193,-0.013181675225496292,0.07714575529098511,-0.10352379083633423,-0.4354929029941559,0.1179760992527008,0.2263183444738388,-0.8585791815509223,0.09277815856502784,0.15429103511850825
2.7026560306549072,-0.016351759433746338,0.09650057554244995,-0.11010026931762695,-0.31751805543899536,0.10662783682346344,0.21933794021606445,-0.8621017990808442,0.0969222864781093,0.15826062221721313
2.712303876876831,-0.019224151968955994,0.09839862585067749,-0.10638982057571411,-0.22091378271579742,0.10095557570457458,0.20422418415546417,-0.8645577970047275,0.10075190868151702,0.16192700195009208
2.7225680351257324,-0.02429267019033432,0.08487576246261597,-0.08914780616760254,-0.13704711198806763,0.06741971522569656,0.17425909638404846,-0.8661637798782562,0.10404892759948967,0.16512589377958126
2.7336409091949463,-0.022541455924510956,0.07100087404251099,-0.06402677297592163,-0.07266445457935333,0.030345052480697632,0.1469344198703766,-0.8670193316973397,0.10655453593613455,0.16775491643533466
2.7423698902130127,-0.021247193217277527,0.05760270357131958,-0.03474926948547363,-0.01814502663910389,-0.013109746389091015,0.1305714249610901,-0.8673274927205803,0.10830589790412938,0.16995879562661992
2.75274395942688,-0.017039373517036438,0.05840110778808594,-0.012960672378540039,0.02988991141319275,-0.03511882200837135,0.13017526268959045,-0.8671311470152808,0.10956743352364051,0.17194689159415025
2.762265920639038,-0.016758978366851807,0.06551116704940796,-0.0011806488037109375,0.08004868775606155,-0.03671165928244591,0.12961839139461517,-0.8664246895109603,0.11065239037781842,0.17385861844274916
2.772289991378784,-0.022756896913051605,0.06281828880310059,-0.0073626041412353516,0.12685507535934448,-0.014690510928630829,0.11914710700511932,-0.8652586925220201,0.11170965968929474,0.17560659193091865
2.7823500633239746,-0.03128070384263992,0.051232755184173584,-0.017459571361541748,0.1676083654165268,0.024387381970882416,0.10727126896381378,-0.8636662989155726,0.11288594846618147,0.1770858188329001
2.792156934738159,-0.03452082723379135,0.04045659303665161,-0.02358686923980713,0.20400871336460114,0.05962979048490524,0.10217717289924622,-0.8617009934624243,0.1142851579122667,0.17836717732611396
2.8024351596832275,-0.034148819744586945,0.04169398546218872,-0.03227579593658447,0.24041704833507538,0.09671483933925629,0.08912795037031174,-0.8593820129443468,0.11589622985089909,0.1794407799169968
2.8123419284820557,-0.03082995116710663,0.0437888503074646,-0.035097718238830566,0.24917538464069366,0.12791404128074646,0.06881389021873474,-0.8568316111937455,0.11760590141722367,0.1802105954179953
2.82250714302063,-0.028343722224235535,0.035437047481536865,-0.03493380546569824,0.2179596871137619,0.1519823521375656,0.050683364272117615,-0.8543963749484353,0.11935916662439115,0.18068741253972848
2.833124876022339,-0.025780990719795227,0.030750930309295654,-0.028654038906097412,0.156342551112175,0.1535802185535431,0.02598227560520172,-0.8524724364370627,0.12105779998642108,0.18093301083987995
2.8429172039031982,-0.018409311771392822,0.024291157722473145,-0.018270909786224365,0.06988327950239182,0.1577880084514618,0.015606069006025791,-0.8513451271499771,0.12271823801423112,0.18102287418359506
2.8537840843200684,-0.011978112161159515,0.008197307586669922,-0.001531064510345459,0.01109496783465147,0.1376466155052185,0.017323967069387436,-0.8509914262111298,0.12426672693591774,0.18115447920773
2.862416982650757,-0.007909253239631653,0.017206132411956787,0.002300441265106201,-0.028546450659632683,0.12619048357009888,0.012515628710389137,-0.8511211154807773,0.12566976715613445,0.18133825943761797
2.8725080490112305,-0.006991848349571228,0.02238333225250244,-0.006304800510406494,-0.04229382053017616,0.11838937550783157,0.005632795859128237,-0.8515310432522513,0.12694001623472162,0.18146619108921866
2.882715940475464,-0.00760786235332489,0.007830023765563965,-0.01651054620742798,-0.02266179770231247,0.10787255316972733,0.007970519363880157,-0.8518962646223006,0.1280297771618474,0.18150342609489434
2.8923981189727783,-0.01085645705461502,0.00499647855758667,-0.024812698364257812,0.024532612413167953,0.09106560796499252,0.014287803322076797,-0.851912452323339,0.12898770634195306,0.1815478874914036
2.902576208114624,-0.009748131036758423,0.016360938549041748,-0.02765411138534546,0.08270643651485443,0.07499982416629791,0.01605294644832611,-0.851361611243799,0.12973193513891765,0.18154157536053972
2.912558078765869,-0.005351647734642029,0.018819868564605713,-0.02581632137298584,0.13686920702457428,0.058853879570961,0.014452279545366764,-0.8502705534878358,0.13024315453027044,0.18141953990058057
2.9226229190826416,0.00020506232976913452,0.011792778968811035,-0.017094910144805908,0.18929912149906158,0.05467298626899719,0.011984328739345074,-0.848642195249398,0.13057903966382398,0.18119265924499395
2.9331471920013428,0.0005910024046897888,0.011033833026885986,-0.012859821319580078,0.23754465579986572,0.04865645989775658,0.0004613632336258888,-0.846538004820473,0.1307473427051332,0.180794939554767
2.9426350593566895,-0.0018508434295654297,0.009947359561920166,-0.014828979969024658,0.260765016078949,0.051168087869882584,-0.008457829244434834,-0.8441509189272433,0.13076514485208354,0.18018633626905173
2.9527242183685303,-0.0057358518242836,-0.0020409822463989258,-0.008420407772064209,0.28441116213798523,0.03552476689219475,-0.00911621656268835,-0.8415288844937284,0.1306238039536147,0.1794556084367045
2.9624860286712646,-0.005531303584575653,-0.002230703830718994,-0.0034121274948120117,0.27860599756240845,0.03437694534659386,-0.012680591084063053,-0.8387492923980813,0.13032273843945416,0.1786438953464464
2.9725501537323,-0.005708076059818268,-0.0014627575874328613,-0.003440380096435547,0.24874140322208405,0.026114799082279205,-0.013238043524324894,-0.8361203701073782,0.1299313543610139,0.17780337280896616
2.983431100845337,-0.007647901773452759,-0.011950910091400146,-0.00436025857925415,0.18785327672958374,0.021555200219154358,-0.010177538730204105,-0.8340138629510667,0.1295389935076088,0.17705505624349593
2.992521047592163,-0.011882409453392029,-0.022419750690460205,0.0005769729614257812,0.11402653157711029,0.024392355233430862,0.0003320934483781457,-0.8326543279404495,0.1293330520670932,0.17656530183018088
3.002674102783203,-0.015460655093193054,-0.02587181329727173,0.010858237743377686,0.037085406482219696,0.03486204147338867,0.01289875153452158,-0.8320701389670266,0.12955820034708318,0.176501339384239
3.012608051300049,-0.020693272352218628,-0.02901226282119751,0.014013528823852539,-0.01820027083158493,0.04560154676437378,0.016799377277493477,-0.8321565639813214,0.13009453228320936,0.1767017290432824
3.0225830078125,-0.02439858764410019,-0.03105950355529785,0.01772475242614746,-0.045116838067770004,0.05367891490459442,0.020266281440854073,-0.83256845024708,0.13079019290771743,0.17698755216363773
3.033330202102661,-0.029027268290519714,-0.031692445278167725,0.024144768714904785,-0.033009059727191925,0.05897172540426254,0.02260858379304409,-0.832964877572973,0.13151894898236396,0.1772843590704204
3.0427138805389404,-0.029992036521434784,-0.0226098895072937,0.02725774049758911,-0.010463004931807518,0.06520378589630127,0.01791342906653881,-0.8331865303016897,0.13226594884703083,0.17752863953655634
3.052960157394409,-0.02773551642894745,-0.009145021438598633,0.024575233459472656,0.022902974858880043,0.060903050005435944,0.004698080010712147,-0.8331085092074922,0.13287517445364272,0.1775830832874464
3.0626120567321777,-0.025051511824131012,-0.002607405185699463,0.02354377508163452,0.04070567339658737,0.059164803475141525,-0.0043366942554712296,-0.8326447105079038,0.1331982260934005,0.17733369271154548
3.0727031230926514,-0.02128111571073532,-0.00233381986618042,0.026276469230651855,0.057610273361206055,0.04868894815444946,0.003520216792821884,-0.8320116088986946,0.13342294778068325,0.1770524884357054
3.082864999771118,-0.018507838249206543,0.01288694143295288,0.03178805112838745,0.07416075468063354,0.04556293040513992,0.005331166088581085,-0.8312752390845344,0.1336172470124527,0.176827931037251
3.0926589965820312,-0.01400841772556305,0.02550607919692993,0.029509007930755615,0.08651305735111237,0.047566160559654236,-0.000995652168057859,-0.8304151531761869,0.1337217975870479,0.1764943361776299
3.102710008621216,-0.015660695731639862,0.015680134296417236,0.024526000022888184,0.09798382222652435,0.046855099499225616,-0.008894321508705616,-0.8294871147580474,0.1337286484266189,0.17603572360076306
3.112783193588257,-0.018519245088100433,0.009348809719085693,0.02372044324874878,0.11062032729387283,0.05000481754541397,-0.017374519258737564,-0.8284917949522962,0.13363587781651529,0.17543036744815696
3.122783899307251,-0.016128696501255035,0.014640212059020996,0.025246739387512207,0.1281074434518814,0.04367421939969063,-0.03429890796542168,-0.8274365072199084,0.13337528249113864,0.17461903058960557
3.133111000061035,-0.014702856540679932,0.015683352947235107,0.023463666439056396,0.14191818237304688,0.040023066103458405,-0.05177243798971176,-0.8263017071144905,0.13288179235976746,0.1735288129464399
3.1428780555725098,-0.011074952781200409,0.016648709774017334,0.02466261386871338,0.1741562783718109,0.035149749368429184,-0.05875205248594284,-0.8249680791311694,0.13221780527079774,0.17224497800252503
3.1536619663238525,-0.004977419972419739,0.0245131254196167,0.020236492156982422,0.19148051738739014,0.03174254298210144,-0.06572580337524414,-0.8234087950956487,0.1314366434969889,0.1708502124672565
3.1627719402313232,-0.003657698631286621,0.03034651279449463,0.011292576789855957,0.19506272673606873,0.03221925348043442,-0.07270195335149765,-0.8219441787742879,0.1305615314381903,0.1693343668553178
3.172976016998291,-0.0018972232937812805,0.026562929153442383,0.007536411285400391,0.18728609383106232,0.03502191603183746,-0.07950036227703094,-0.820688873098428,0.129676306462762,0.16775438187846037
3.1836612224578857,0.0007398799061775208,0.015291333198547363,0.0045372843742370605,0.17447921633720398,0.03259577602148056,-0.08926564455032349,-0.8195189393281413,0.12866019229771608,0.16604049425262285
3.1928741931915283,0.003028005361557007,0.011408627033233643,0.0041182637214660645,0.13362792134284973,0.02874431386590004,-0.0932028591632843,-0.8185684278349169,0.1275390309444292,0.16424806342027254
3.203127145767212,0.0067460015416145325,0.005062520503997803,0.004228174686431885,0.07614918798208237,0.02183607406914234,-0.09398183226585388,-0.8181642342502988,0.12647860215759724,0.16256362213695932
3.2129390239715576,0.009936816990375519,-0.007100045680999756,0.005925476551055908,0.027085669338703156,0.014711407944560051,-0.08648142218589783,-0.8182778063166897,0.1254788230520184,0.1610344735453148
3.222907066345215,0.012021251022815704,-0.01422041654586792,0.012208282947540283,0.0019334442913532257,0.011566482484340668,-0.07643677294254303,-0.8187387211121633,0.1246493551319627,0.15977316278223797
3.233058214187622,0.010991387069225311,-0.010522544384002686,0.010452806949615479,-0.008353464305400848,0.012916570529341698,-0.06568052619695663,-0.8193343939489083,0.12406459179773373,0.15877135590812846
3.2430851459503174,0.00931868702173233,-0.014210224151611328,-2.6941299438476562e-05,-0.007690870203077793,0.014060132205486298,-0.05188589170575142,-0.8199083346672494,0.1236144063941605,0.15794829411709016
3.2531850337982178,0.00855611264705658,-0.017748773097991943,-0.00753706693649292,0.013056968338787556,0.011162390932440758,-0.03936903178691864,-0.8202640314532987,0.12330053795078547,0.1573158715137658
3.2629740238189697,0.008535005152225494,-0.012726426124572754,-0.007792532444000244,0.03791757673025131,0.009077402763068676,-0.026391716673970222,-0.820216120476116,0.12312247565374693,0.1568704971166948
3.2731640338897705,0.009491518139839172,-0.010053753852844238,-0.007187843322753906,0.05393485724925995,0.004459303803741932,-0.01866641826927662,-0.8198994037303526,0.12301993179730869,0.15654476757187832
3.284079074859619,0.007443904876708984,-0.011869609355926514,-0.004456639289855957,0.06659712642431259,-0.002504329662770033,-0.018766554072499275,-0.8193629921713961,0.12293073410531168,0.15629363096336865
3.293375015258789,0.00801299512386322,-0.015184938907623291,0.0014209747314453125,0.06410494446754456,-0.006163246463984251,-0.017843501642346382,-0.81869871024212,0.1228138210747763,0.15605888555846015
3.3032190799713135,0.012037307024002075,-0.0162045955657959,0.005608260631561279,0.061746712774038315,-0.012469612061977386,-0.017256274819374084,-0.8180696377010164,0.12271431994101901,0.15588255910008758
3.313181161880493,0.013716384768486023,-0.012231588363647461,0.005266904830932617,0.045907262712717056,-0.016161728650331497,-0.017063727602362633,-0.8175480766353074,0.12255488565186187,0.15571826897186747
3.323272943496704,0.016003496944904327,-0.009169280529022217,0.005905807018280029,0.02648669108748436,-0.011172031052410603,-0.016736691817641258,-0.8171089449018215,0.12236496997664717,0.1555386120613749
3.333678960800171,0.019144006073474884,-0.006270706653594971,0.006549835205078125,0.0022939196787774563,0.004421264864504337,-0.017551565542817116,-0.8167977043938444,0.12228341094128072,0.15538088372523426
3.343287229537964,0.01991187036037445,-0.003910422325134277,0.0027707815170288086,-0.02522452361881733,0.01793627440929413,-0.021332988515496254,-0.8168047216175002,0.12234445097526674,0.1552152658022225
3.353220224380493,0.01975829154253006,-0.004290878772735596,-0.0011591911315917969,-0.04554349556565285,0.024076415225863457,-0.02474556304514408,-0.817070709577818,0.12251552995144649,0.15504348126600465
3.362994909286499,0.021828487515449524,-0.007998824119567871,-0.0010779500007629395,-0.04406331107020378,0.016803322359919548,-0.02630697377026081,-0.8174499416628492,0.12264011277405827,0.15483927883597415
3.3731191158294678,0.024337299168109894,-0.0046083927154541016,0.00259244441986084,-0.025965465232729912,-0.0004108189605176449,-0.028953783214092255,-0.817735614844053,0.1226233134385288,0.15462181652820023
3.3831989765167236,0.022844359278678894,0.00202178955078125,0.008187651634216309,-0.006650090217590332,-0.006386685650795698,-0.025749200955033302,-0.817835746196149,0.12254298665818475,0.15441539882940056
3.3930771350860596,0.02297438681125641,-0.0005519986152648926,0.010429739952087402,0.006266008131206036,-0.009968194179236889,-0.01995442993938923,-0.8177836993998222,0.12245699088915762,0.15426168387729916
3.4030990600585938,0.018273577094078064,-0.0024064183235168457,0.010867178440093994,0.006342440843582153,-0.00787122081965208,-0.011914346367120743,-0.8176840407677006,0.12246800366958649,0.1542266599946403
3.413177013397217,0.01080101728439331,-0.004042088985443115,0.010008752346038818,-0.0024858552496880293,0.009266531094908714,-0.007949219085276127,-0.8176437817415658,0.12268123924675202,0.1543102574682535
3.4232399463653564,0.007790848612785339,-0.01286303997039795,0.010808289051055908,-0.002462951932102442,0.02326703630387783,0.000577690196223557,-0.8176458001004303,0.12313728101363813,0.1545033652977685
3.433227062225342,0.0026222839951515198,-0.01703476905822754,0.012687146663665771,0.008555527776479721,0.03881452605128288,0.011769677512347698,-0.8175431638206725,0.12381444243905275,0.15481054977316316
3.443084955215454,-0.0006463155150413513,-0.017211198806762695,0.013983607292175293,0.024630634114146233,0.05136280879378319,0.017688820138573647,-0.8172657854560126,0.12474875603565935,0.15524888279805352
3.453171968460083,-0.006562806665897369,-0.019230246543884277,0.01374971866607666,0.04986134171485901,0.05964253097772598,0.02031634747982025,-0.8168493035257873,0.1258331839284601,0.15572647971556133
3.463184118270874,-0.007121056318283081,-0.023752450942993164,0.014071524143218994,0.0829939916729927,0.05914851278066635,0.02770635299384594,-0.8162334158524812,0.12690869009693007,0.1561713616089621
3.4731900691986084,-0.006464511156082153,-0.019850730895996094,0.011232733726501465,0.11338159441947937,0.05806513875722885,0.033833540976047516,-0.8152827543920382,0.12796834750671326,0.15664083554243366
3.483274221420288,-0.0007130280137062073,-0.012922942638397217,0.0100785493850708,0.13496917486190796,0.04879814013838768,0.039238959550857544,-0.8140591185494549,0.1289235631699714,0.15708525887017918
3.4932429790496826,0.0022941306233406067,-0.012800097465515137,0.00815272331237793,0.14034295082092285,0.03784025087952614,0.037450648844242096,-0.8127032434093816,0.1296536380474002,0.15744303483876673
3.503418207168579,0.003001086413860321,-0.012298822402954102,0.00919431447982788,0.13013719022274017,0.024285562336444855,0.036410681903362274,-0.8113314194604501,0.1302399691648146,0.15778042274901793
3.5133049488067627,0.007403053343296051,-0.008450150489807129,0.012582540512084961,0.10331449657678604,0.018599800765514374,0.03714875131845474,-0.8101305126382414,0.1306664488237695,0.1580735918520639
3.5232980251312256,0.006491579115390778,-0.008026599884033203,0.011193811893463135,0.06256786733865738,0.018737219274044037,0.033540964126586914,-0.8092952898541466,0.13105833182424526,0.1583841308532946
3.536358118057251,0.0005819723010063171,-0.014753639698028564,0.011512517929077148,0.02719440869987011,0.016335271298885345,0.024259209632873535,-0.8088500529504671,0.13140464621384026,0.1586588544318909
3.543091058731079,-0.0006188973784446716,-0.01852625608444214,0.012215495109558105,-0.0019690687768161297,0.015986662358045578,0.02590957097709179,-0.8087006346578532,0.1317339368950133,0.15893141889639537
3.553317070007324,-0.0038102492690086365,-0.0216139554977417,0.009161770343780518,-0.03230723366141319,0.02305939793586731,0.02712051011621952,-0.8088411154369024,0.1321581033196695,0.1592876747667099
3.563227891921997,-0.006706707179546356,-0.021822094917297363,0.006509304046630859,-0.047672342509031296,0.024942252784967422,0.02934478223323822,-0.8092311525846954,0.13274389671057188,0.15977366305416357
3.5732390880584717,-0.007773295044898987,-0.021166503429412842,0.008066534996032715,-0.04801647365093231,0.02873721346259117,0.03280699998140335,-0.8096742351604386,0.13342873178661996,0.16032840742605262
3.5832788944244385,-0.010549016296863556,-0.022226691246032715,0.00908350944519043,-0.03694065287709236,0.02775637060403824,0.03583048656582832,-0.8100388909704572,0.13412570502377505,0.16090895403264263
