timestamp,accel_x,accel_y,accel_z,rotation_x,rotation_y,rotation_z, pitch,roll,yaw
0.04051685333251953,0.0014661550521850586,-0.013744255527853966,0.00678938627243042,0.013038016855716705,0.013883346691727638,-0.004988242872059345,-0.006191186133232518,0.14245029953397947,0.0004417167577103299
0.05393385887145996,-0.0007498413324356079,-0.01494753360748291,0.007901191711425781,0.012549860402941704,0.011506741866469383,-0.005655631422996521,-0.00608220588873275,0.1425770358706166,0.0003680681556616948
0.06634092330932617,0.0011466890573501587,-0.014963405206799507,0.0067449212074279785,0.01108437217772007,0.005303307436406612,-0.009836048819124699,-0.005976006428479794,0.14266495886036876,0.0002722743615642472
0.0688779354095459,0.00515437126159668,-0.01386287808418274,0.0068166255950927734,0.007912015542387962,0.0023314859718084335,-0.007251184433698654,-0.005882559534174598,0.14270114070970635,0.00017888029120382483
0.07611799240112305,0.006027504801750183,-0.012997083365917206,0.0064337849617004395,0.003804638283327222,0.0022655727807432413,-0.005845141597092152,-0.005825480751026751,0.1427131105670401,0.0001034826906194626
0.08271288871765137,0.0061683207750320435,-0.01489110104739666,0.00652158260345459,0.002648293739184737,0.004584386944770813,-0.0015715672634541988,-0.00579688674394756,0.14274038457989865,6.42538905199105e-05
0.0913848876953125,0.00570349395275116,-0.017167100682854652,0.00668412446975708,0.0015716108027845621,0.0045230453833937645,-0.0011196288978680968,-0.005784069651980331,0.1427783340228494,4.131840771406098e-05
0.1013479232788086,0.005837425589561462,-0.015964914113283157,0.007518649101257324,0.004106407985091209,-0.00017876550555229187,-0.0013028542743995786,-0.005756809612796253,0.1428125857096785,2.7242145921669687e-05
0.11137986183166504,0.006609216332435608,-0.013467385433614254,0.007751345634460449,0.005015028640627861,-0.003654590342193842,0.0004871095297858119,-0.0057006861352539556,0.14278815780216358,2.0052638160341113e-05
0.12260794639587402,0.007964462041854858,-0.01169159822165966,0.011602938175201416,0.003067458514124155,-0.0044205146841704845,-0.003035719972103834,-0.005664398380034194,0.14274471534705502,2.00336149028059e-06
0.13158702850341797,0.0063696205615997314,-0.012039681896567345,0.010812699794769287,-0.0022220120299607515,0.0010103806853294373,-0.0031242966651916504,-0.005661530852081275,0.14272188443786524,-2.0087660165491804e-05
0.1414039134979248,0.0017534643411636353,-0.0137513168156147,0.012426614761352539,-0.004005530849099159,0.003752104938030243,-0.001813222304917872,-0.005694698795610461,0.14274542162391912,-3.6967133752937843e-05
0.15140581130981445,-0.00030919909477233887,-0.013115335255861282,0.014416158199310303,-0.0032689173240214586,0.006874084006994963,-0.0005033201305195689,-0.005730107536166785,0.142809866318029,-4.22379677710132e-05
0.16171884536743164,-0.0008004456758499146,-0.012160198763012886,0.013550043106079102,-0.004344568122178316,0.00792523380368948,0.0005046863807365298,-0.005766793494765869,0.14288998447123244,-3.205298827081578e-05
0.17304706573486328,0.0006821900606155396,-0.012232813984155655,0.01248621940612793,-0.008024889975786209,0.006719975732266903,0.000912309973500669,-0.005824148233115743,0.1429645429181878,-1.1994265368556882e-05
0.1814708709716797,0.003504246473312378,-0.012564146891236305,0.014412224292755127,-0.018308153375983238,0.00941536109894514,-7.039657793939114e-05,-0.005957117694341187,0.14304255929079404,7.019639852998115e-06
0.19144392013549805,0.0019648224115371704,-0.014850003644824028,0.016381442546844482,-0.03076169453561306,0.007682442665100098,-0.0007011395646259189,-0.0061983029398059,0.14313354538744885,5.0277828652130366e-05
0.20144891738891602,0.0011309832334518433,-0.013209661468863487,0.01949763298034668,-0.04287748038768768,0.008041703142225742,-0.007816040888428688,-0.006434797430532316,0.14331329658302258,6.554532859102683e-05
0.21144485473632812,0.0014929771423339844,-0.013169262558221817,0.018559277057647705,-0.05018728971481323,0.0033856984227895737,-0.015071769244968891,-0.006791135585455927,0.14345666630700313,2.13471341442152e-05
0.22261476516723633,0.0034295320510864258,-0.010134360752999783,0.016260802745819092,-0.05445553734898567,0.0020344103686511517,-0.02412731572985649,-0.00718946923429818,0.14350464858591339,-9.517153851755812e-05
0.2315969467163086,0.004068776965141296,-0.005112607963383198,0.017654240131378174,-0.05876673012971878,0.006721484940499067,-0.03080572560429573,-0.007660894156455658,0.1435530550543436,-0.00029181464549977976
0.2415180206298828,0.0025967806577682495,-0.003295550122857094,0.013317584991455078,-0.06040138006210327,0.011882424354553223,-0.034195661544799805,-0.00817844681460252,0.143653374987943,-0.0005251936462594921
0.25160789489746094,0.0026645511388778687,-0.0036670053377747536,0.008091270923614502,-0.05158505216240883,0.012076303362846375,-0.040440883487463,-0.008671989877064403,0.1437859324483599,-0.0008178302509632667
0.26161909103393555,0.0032076388597488403,-0.003956954926252365,0.0058220624923706055,-0.032125066965818405,0.013713615015149117,-0.041274987161159515,-0.009022987928095857,0.14394687386237337,-0.0011667993944680902
0.2722618579864502,0.003755241632461548,0.0004325704649090767,0.0025162696838378906,-0.002098840894177556,0.01495060883462429,-0.03659075126051903,-0.00908903252334362,0.14411828993830036,-0.0015304311471109801
0.28168678283691406,0.004174038767814636,0.0022435327991843224,0.0017792582511901855,0.013693705201148987,0.010459719225764275,-0.032654065638780594,-0.008941271360563703,0.14426541372714455,-0.0018839304952651815
0.2915520668029785,0.0025515109300613403,0.00016824807971715927,0.0010486841201782227,0.023328222334384918,0.008575267158448696,-0.021400345489382744,-0.008620911824974804,0.14437807082318224,-0.00217458611670381
0.30163002014160156,0.0032088160514831543,-0.006493008695542812,0.004157125949859619,0.017935320734977722,0.01320517249405384,-0.017790164798498154,-0.008339412648527483,0.14453073880091014,-0.002408054465309392
0.3117039203643799,-0.0009357184171676636,-0.016287030652165413,0.0040305256843566895,0.022223226726055145,0.02772494964301586,-0.007487619761377573,-0.008108403266843848,0.14478670779951566,-0.0025593294039926748
0.3226199150085449,-0.00027811527252197266,-0.02275731787085533,0.003129899501800537,0.0371803417801857,0.0315505787730217,0.0027535660192370415,-0.007773259465054317,0.14512408916857553,-0.0026243055641512634
0.33167076110839844,0.0005043447017669678,-0.02291986532509327,0.00014460086822509766,0.05206872150301933,0.024565329775214195,0.0122854458168149,-0.007294924170080117,0.14542768839154005,-0.002609003167272562
0.3416788578033447,0.003529071807861328,-0.01999860629439354,-0.00031131505966186523,0.06200790777802467,0.015666110441088676,0.01821976900100708,-0.006677726195476151,0.14565486823266394,-0.002537009551913461
0.35164594650268555,0.007055789232254028,-0.020974861457943916,0.0015035271644592285,0.051062263548374176,0.006961968261748552,0.022220155224204063,-0.006112830842684359,0.14579118928299867,-0.0024264341323118077
0.36171579360961914,0.0052838921546936035,-0.023682255297899246,0.002191603183746338,0.02340587042272091,0.010886935517191887,0.02008110284805298,-0.005753204712575793,0.1459007308098104,-0.0022754752035828853
0.3723287582397461,0.005862370133399963,-0.029067987576127052,0.001914680004119873,0.0022278137039393187,0.010935138911008835,0.018643956631422043,-0.0056457676600353305,0.1460253940530861,-0.002094542652232004
0.3817119598388672,0.006576031446456909,-0.030063048005104065,0.0006955862045288086,-0.002310745185241103,0.0034559168852865696,0.01886393316090107,-0.005587974359492529,0.1461214233656834,-0.0018998678230375482
0.3918728828430176,0.009924739599227905,-0.02437432110309601,-0.0005338788032531738,0.004188117105513811,-0.007642407435923815,0.019376911222934723,-0.0054076662519838715,0.14608331728922436,-0.0017055148262857106
0.4021949768066406,0.012548208236694336,-0.016498448327183723,-0.0011377930641174316,0.010469182394444942,-0.01842714473605156,0.018625900149345398,-0.005100146922135633,0.14594532734093804,-0.0015213961930911919
0.4133749008178711,0.013967558741569519,-0.010126765817403793,-0.0022666454315185547,0.010088949464261532,-0.02065327949821949,0.017892038449645042,-0.004770942684449321,0.14574431655427691,-0.0013549588164053577
0.4244999885559082,0.012751534581184387,-0.011564608663320541,-0.0006684064865112305,0.004248370882123709,-0.019856462255120277,0.01841748133301735,-0.004499799558150662,0.1455697506814217,-0.0011870903918129577
0.43193578720092773,0.00919102132320404,-0.01186552457511425,0.002780616283416748,-0.004954398609697819,-0.01557130366563797,0.0125102698802948,-0.004297173076227609,0.1454669345880782,-0.001032277668527042
0.44191789627075195,0.006284669041633606,-0.014941340312361717,0.006941854953765869,-0.004559984430670738,-0.010299043729901314,0.013010943308472633,-0.004122865781345479,0.14539698661850414,-0.0008913344181681048
0.45177173614501953,0.005739346146583557,-0.012091681361198425,0.008534848690032959,0.000986048486083746,-0.010129135102033615,0.012912140227854252,-0.0038671950942661096,0.145361941686271,-0.000763999797144202
0.4619729518890381,0.007738575339317322,-0.006357934325933456,0.007230579853057861,0.005078528542071581,-0.012111857533454895,0.011400796473026276,-0.0035503190926138395,0.14531515932315092,-0.0006507149109894554
0.4731268882751465,0.00889405608177185,-0.00882510282099247,0.007922053337097168,0.0043066274374723434,-0.01270765159279108,0.010456173680722713,-0.0032709041508758633,0.14528841149254268,-0.0005511931407622308
0.4821338653564453,0.00768907368183136,-0.008603042922914028,0.012134134769439697,0.004420078359544277,-0.010842639021575451,0.011838620528578758,-0.003079358036582862,0.14528787906939694,-0.0004456924335669729
0.491851806640625,0.004324927926063538,-0.009116418659687042,0.016490697860717773,-0.003783656284213066,-0.004524023272097111,0.013680249452590942,-0.002982385240251542,0.1453413926924986,-0.0003183165414251208
0.5026719570159912,0.0005411654710769653,-0.012268864549696445,0.01809483766555786,-0.012188060209155083,-0.0018994780257344246,0.015003841370344162,-0.0029610014854024908,0.14543348842694048,-0.00016501521697308175
0.5129718780517578,-0.0003142356872558594,-0.012959293089807034,0.015637636184692383,-0.010157249867916107,0.004459751304239035,0.014542954042553902,-0.0029647836952588877,0.14554235920291708,-5.504703488832749e-06
0.5232820510864258,0.0022243261337280273,-0.010657055303454399,0.013972818851470947,-0.004409349523484707,0.004556423984467983,0.013881690800189972,-0.002890327575367676,0.14566004180497455,0.00015120823727105012
0.5322160720825195,0.001849934458732605,-0.007528448943048716,0.012829422950744629,0.0036956819240003824,0.0035215194802731276,0.016421759501099586,-0.002767701870781123,0.14576078229465578,0.0003001340290654964
0.5423908233642578,0.002229049801826477,-0.0047632502391934395,0.012353777885437012,0.013050301000475883,0.00655033253133297,0.017057722434401512,-0.002611758946996809,0.1458864956228684,0.0004544955672975897
0.5520920753479004,0.0011470317840576172,-0.0043212492018938065,0.012042224407196045,0.015417401678860188,0.008928313851356506,0.019129609689116478,-0.0023681202781754454,0.14603925916637606,0.0006176506604165247
0.5622389316558838,-0.0028883814811706543,-0.003950764425098896,0.010765790939331055,0.014565723948180676,0.010370947420597076,0.015175880864262581,-0.0021349616409220805,0.14621600828053716,0.0007652660449454698
0.5728998184204102,-0.002202361822128296,-0.003398028202354908,0.010957300662994385,0.013122756034135818,0.010126203298568726,0.01321648620069027,-0.0019026621580233636,0.1463708073492778,0.0008842741826355645
0.5822238922119141,-0.000688508152961731,-0.003329866100102663,0.009431838989257812,0.0100329564884305,0.006521881092339754,0.010200723074376583,-0.0016819113313127343,0.14647543895512313,0.0009890539093084306
0.5936369895935059,0.00048242509365081787,-0.0008443912956863642,0.006950557231903076,0.0027648902032524347,0.0037326638121157885,0.005644108168780804,-0.001515773843641399,0.146541146562511,0.0010516371734682938
0.6022129058837891,-0.00017403066158294678,-0.0023298468440771103,0.005799472332000732,-0.0035521278623491526,3.353320062160492e-05,0.0023918556980788708,-0.0014295735741150864,0.1465877181485355,0.001090476723436125
0.6122479438781738,-0.0014311671257019043,-0.0029536837246268988,0.006775200366973877,-0.009722089394927025,-0.0029976321384310722,-0.0009262834209948778,-0.0014430584892431118,0.14659368862892302,0.0011010265963541314
0.6228759288787842,-0.0012995749711990356,-0.005188453942537308,0.007613480091094971,-0.00480482866987586,-0.00077389320358634,-0.0015646431129425764,-0.0014958202514911098,0.1465995154318454,0.0010938813502201423
0.6322517395019531,-0.0007897317409515381,-0.005087180528789759,0.004819810390472412,0.0031079219188541174,-0.0004964806139469147,0.001080834656022489,-0.0014708418263034804,0.14660857366857277,0.001092613776383181
0.642258882522583,-0.0018169432878494263,-0.0014603057643398643,0.0008915066719055176,0.008238501846790314,-0.007885953411459923,0.0020243925973773003,-0.0013840070389341329,0.14655175397081985,0.0011113910365644403
0.6522629261016846,0.0012251734733581543,-0.002719793003052473,0.0010325312614440918,0.01006246730685234,-0.0161215141415596,0.0004052971489727497,-0.0012702024983716434,0.1464226849567845,0.0011044601776836176
0.6623020172119141,0.005087941884994507,-0.004372608847916126,0.001378178596496582,0.007130061276257038,-0.01744723506271839,-0.00044265331234782934,-0.0011682566472065697,0.14625068901638533,0.0010835988925183234
0.6737098693847656,0.0050442516803741455,-0.007436390034854412,0.0019198060035705566,-0.005437512882053852,-0.01664167270064354,-0.002378505188971758,-0.0011497627713023034,0.146094318711462,0.0010614426182923465
0.6822209358215332,0.0031062066555023193,-0.012165690772235394,0.006218969821929932,-0.015313579700887203,-0.022041499614715576,-0.004460298456251621,-0.0012556512129736157,0.1459094730125637,0.001040612452872376
0.6922607421875,0.0046377032995224,-0.01195048913359642,0.006741523742675781,-0.013984046876430511,-0.025296369567513466,-0.0038009528070688248,-0.0013914001488293407,0.14567247848067702,0.0010155949012611853
0.7022848129272461,0.0062716007232666016,-0.01047523133456707,0.007204592227935791,-0.012190939858555794,-0.024521123617887497,-0.003634238615632057,-0.001487798607208938,0.14542452344060064,0.0009994215345436714
0.7123329639434814,0.003551781177520752,-0.01044080313295126,0.007756292819976807,-0.007445336319506168,-0.021344637498259544,-0.001252413960173726,-0.0015449245081150236,0.14519700418163609,0.0009861769796617782
0.7238378524780273,0.0031689703464508057,-0.011301743797957897,0.006732165813446045,-0.0015869146445766091,-0.018595455214381218,0.0002669193781912327,-0.0015818885952621619,0.14499788798244595,0.0009883641257119144
0.7324049472808838,0.004262402653694153,-0.01091981865465641,0.007623493671417236,0.00552161131054163,-0.015557633712887764,0.001942527131177485,-0.0015356563778322423,0.14484892360795212,0.0009892228024287624
0.7424609661102295,0.003818005323410034,-0.011244527995586395,0.008778929710388184,0.012757419608533382,-0.010277649387717247,0.005814496893435717,-0.0014026013178858132,0.14477373277570313,0.0010145702536844996
0.7523119449615479,0.004383549094200134,-0.011241735890507698,0.009259045124053955,0.014097705483436584,-0.008761378936469555,0.004538309760391712,-0.0012014469588801629,0.1447264475922748,0.001042200289479909
0.762462854385376,0.006044447422027588,-0.011275243945419788,0.009817183017730713,0.014658834785223007,-0.011286853812634945,0.010929896496236324,-0.0009450380036032245,0.1446670653138615,0.001100186372120206
0.7730329036712646,0.007306724786758423,-0.010939759202301502,0.010603845119476318,0.007448641583323479,-0.010766340419650078,0.010369780473411083,-0.0007316228617830567,0.144609599375938,0.001186916020293095
0.7823729515075684,0.006574124097824097,-0.013271305710077286,0.011340737342834473,-0.0031550005078315735,-0.007776941172778606,0.013684350997209549,-0.0006217629610505814,0.14457894202887822,0.0013024980233767103
0.7925400733947754,0.006291672587394714,-0.013515561819076538,0.013722240924835205,-0.00579639058560133,-0.002114439383149147,0.015231595374643803,-0.0005761041934519396,0.14457138129312266,0.0014502695168062574
0.8026089668273926,0.004597783088684082,-0.012470180168747902,0.012560367584228516,-0.0045303236693143845,-0.0015495829284191132,0.017068641260266304,-0.0005225403188239346,0.14458696054695366,0.00162202680241387
0.8124227523803711,0.004271283745765686,-0.007726835086941719,0.01110994815826416,0.0011298093013465405,-0.005005877930670977,0.01578334905207157,-0.0004483864063113478,0.14459308338178864,0.0017865540628934408
0.8236198425292969,0.006220430135726929,-0.004387399181723595,0.012894690036773682,0.008944588713347912,-0.0028945240192115307,0.015634743496775627,-0.0002980385574934175,0.1445971159805363,0.0019289991024167214
0.8324570655822754,0.004719242453575134,-0.0009408732876181602,0.012037158012390137,0.01010171603411436,-0.002186255995184183,0.016564026474952698,-0.00010163215245850736,0.1446184159020396,0.002063717520269727
0.8424749374389648,0.0030964016914367676,0.002035084180533886,0.010414481163024902,0.002667501801624894,-0.00012789899483323097,0.011686979793012142,6.670769242020868e-05,0.14465471159466262,0.0021886033506291883
0.852557897567749,0.0026634931564331055,-0.0035757904406636953,0.011150240898132324,-0.006021660286933184,0.004365475382655859,0.008949464187026024,0.00013210062305699468,0.14473753878844098,0.0022866860630550386
0.863062858581543,0.0005826950073242188,-0.005709249991923571,0.010610580444335938,-0.00562431663274765,0.01272433903068304,0.01091114804148674,0.0001806472161701847,0.14488198320749932,0.002388168337234757
0.8739528656005859,0.0002206861972808838,-0.0032566210720688105,0.008951723575592041,-0.003045894205570221,0.011881847865879536,0.011424658820033073,0.00023764823628608537,0.14506277514321075,0.002507676825784338
0.8826427459716797,0.00019706785678863525,-0.0011591835645958781,0.008121728897094727,0.0008700178004801273,0.008338511921465397,0.011360476724803448,0.00033618432398630784,0.14521002462883156,0.002621611611216367
0.8932158946990967,0.002247065305709839,-0.0014738249592483044,0.009780824184417725,0.00813612062484026,0.011181259527802467,0.012099450454115868,0.00044879032523721045,0.14534344988133294,0.002723109254599512
0.9027099609375,-0.00043973326683044434,-0.0022108382545411587,0.008945047855377197,0.004354697652161121,0.012986082583665848,0.01103099063038826,0.0005510079186368844,0.14552977566301875,0.0028256624199927516
0.9126930236816406,-0.0019098073244094849,-0.0037584181409329176,0.006539285182952881,0.00028362288139760494,0.012799573130905628,0.010172227397561073,0.0005903420249549543,0.14570471851066993,0.002940386098946979
0.9238400459289551,-0.0006025135517120361,-0.004648070782423019,0.004717886447906494,-0.00044315378181636333,0.01091245748102665,0.008356750011444092,0.000585698972652356,0.1458485108004781,0.003034051390241067
0.932532787322998,0.0004312247037887573,-0.008220490999519825,0.004259049892425537,-0.001511896844021976,0.007183188572525978,0.008359041064977646,0.0006143534527418134,0.14596039059216745,0.0031161262188988247
0.9425630569458008,-0.0010156035423278809,-0.007383082993328571,0.004082679748535156,-0.007559402845799923,0.0021527435164898634,0.008978758938610554,0.0006125277761362109,0.14601927800027686,0.0032167366350737184
0.9525818824768066,-0.00040362775325775146,-0.008200523443520069,0.002325892448425293,-0.010893430560827255,0.0016737740952521563,0.010642807930707932,0.0005580282746453975,0.14603308238947507,0.0033306094008000845
0.9626638889312744,0.0013892650604248047,-0.009023882448673248,0.001943349838256836,-0.011681992560625076,-0.0005624820478260517,0.01315976120531559,0.0004670923772401485,0.14604079248954138,0.0034622021201426907
0.9731850624084473,-0.0007169097661972046,-0.009092142805457115,0.0016556978225708008,-0.01180393248796463,-0.006058359052985907,0.01338767446577549,0.0003835726948594344,0.14602581445575807,0.003615875715681296
0.9825968742370605,-0.0006001889705657959,-0.009404386393725872,0.004318952560424805,-0.011668910272419453,-0.007054914254695177,0.01688333973288536,0.00030021009061297895,0.14596952421972986,0.003777132991494213
0.9929237365722656,-0.0012895315885543823,-0.009110404178500175,0.00512319803237915,-0.004898106213659048,-0.005388529505580664,0.021474841982126236,0.0002737577938161606,0.14589514902104395,0.003974124109905264
1.0026659965515137,-0.0014388114213943481,-0.007074823137372732,0.002614915370941162,-0.00025914586149156094,-0.007543026935309172,0.021879643201828003,0.00031043867870538807,0.14583010597714138,0.004190716990999414
1.0127549171447754,-0.0019868463277816772,-0.006605339702218771,0.0038164854049682617,0.005421726498752832,-0.00921686738729477,0.020922396332025528,0.00042896726726941736,0.14575170260374654,0.004398985786897945
1.0231258869171143,-0.0022682547569274902,-0.00664732838049531,0.0036717653274536133,0.015099121257662773,-0.0008689234964549541,0.020233169198036194,0.0006158617895358065,0.14569684605560318,0.004585525689393365
1.0326929092407227,-0.004845336079597473,-0.0055632079020142555,0.004491329193115234,0.015951599925756454,0.005620933603495359,0.02123505063354969,0.0008607475518860983,0.14572605159638322,0.004773629397957605
1.042726993560791,-0.007570013403892517,-0.002456704154610634,0.003916263580322266,0.013663943856954575,0.005994308739900589,0.019755398854613304,0.0010833398125906272,0.1457964880991291,0.004955057524501969
1.0526559352874756,-0.003961607813835144,-0.001161554828286171,0.0037533044815063477,0.015965064987540245,0.007527002599090338,0.01582302898168564,0.0013103761682625372,0.1458662257265618,0.005106194994402359
1.0628108978271484,-0.0015938878059387207,-0.0019728161860257387,0.005972146987915039,0.00979345478117466,0.004042522981762886,0.011078341864049435,0.0015214516859461613,0.1459253341909211,0.005225194550032797
1.0733819007873535,-0.0034155845642089844,0.0006118362070992589,0.007176578044891357,-0.00018396135419607162,-0.000638826284557581,0.00638553174212575,0.0016341821044533863,0.14593133054271942,0.005300231942257544
1.0827648639678955,-0.0015698522329330444,0.0012795784277841449,0.0072702765464782715,-0.008073043078184128,-0.0006769094616174698,0.0022927860263735056,0.0016305362957569642,0.1459164835421526,0.00534749870060992
1.0927510261535645,-0.00122852623462677,-0.0026592547073960304,0.007238447666168213,-0.00894894078373909,0.003341489704325795,-0.0018668584525585175,0.0015826944129007244,0.1459262055935962,0.005358697738816167
1.1028509140014648,-0.0032411813735961914,-0.003310686908662319,0.0068550705909729,-0.007363560609519482,0.000831992831081152,-0.003924683202058077,0.0015263546405902288,0.14594007886610302,0.0053468316852099676
1.113542079925537,-0.0017612278461456299,-0.0004676695680245757,0.005168020725250244,0.006062333472073078,-0.0028306525200605392,-0.00937351118773222,0.0015312376825873605,0.14589397227011036,0.005280875393365108
1.1234679222106934,-0.0009701699018478394,-0.00033145828638225794,0.00790548324584961,0.0166875459253788,0.00378570519387722,-0.01196396816521883,0.0016521907605130516,0.14585017511797893,0.005156146223743801
1.132781982421875,-0.001657932996749878,-0.002173307118937373,0.009485244750976562,0.019529756158590317,0.008465900085866451,-0.007017092313617468,0.0018245038756158757,0.1458976109176738,0.005040895957489844
1.1429810523986816,-0.0029430389404296875,-0.0002676732838153839,0.007090508937835693,0.028076106682419777,0.010799627751111984,-0.006577670574188232,0.0020516697668595506,0.1459935922894354,0.0049439983919615915
1.1528329849243164,0.0004370957612991333,-0.0020298745948821306,0.0061490535736083984,0.028044680133461952,0.006826369091868401,-0.006865612231194973,0.002318889101836861,0.1460627873536695,0.004843278437533654
1.1630229949951172,0.0024453550577163696,-0.003921519033610821,0.00856703519821167,0.02268054150044918,0.00486841332167387,-0.004989681299775839,0.00254821761540623,0.1461151021394673,0.0047452053867159255
1.1735877990722656,0.0014028698205947876,-0.006682698614895344,0.012005209922790527,0.022447997704148293,0.010721109807491302,-0.0016201965045183897,0.0027625012707325983,0.14618180914994874,0.004685864118718819
1.1829009056091309,-0.000961989164352417,-0.011642449535429478,0.01191478967666626,0.019927581772208214,0.008268870413303375,0.00316923251375556,0.00300599902759671,0.1462742094768527,0.004669675923741938
1.1929388046264648,-0.0004059821367263794,-0.010938595049083233,0.010317087173461914,0.014993060380220413,0.0072675663977861404,0.0007405892247334123,0.0031757950841815956,0.1463446388883659,0.004661039633607936
1.2030558586120605,0.0023741573095321655,-0.008245544508099556,0.010486721992492676,0.011321626603603363,0.012233030050992966,0.0015613754512742162,0.00330537133984086,0.14643417259544794,0.004653577774087442
1.2134747505187988,0.0014610439538955688,-0.010875492356717587,0.009060442447662354,0.0037905401550233364,0.018240144476294518,0.002611353527754545,0.0033914897024481584,0.14658600881868697,0.004661118524985325
1.224139928817749,-0.0028152018785476685,-0.01137448102235794,0.008289635181427002,-0.002002900466322899,0.017383938655257225,0.003145849797874689,0.003396038952228544,0.14674408340682446,0.0046862855099764735
1.23317289352417,-0.0035246163606643677,-0.012346414849162102,0.007302522659301758,-0.005427592433989048,0.01438610628247261,0.000923814601264894,0.003370149170369212,0.14692132672600744,0.004719888374416364
1.243086814880371,-0.0006200820207595825,-0.008833570405840874,0.006810128688812256,-0.01122076716274023,0.009313317947089672,-0.0009989876998588443,0.0033124393631015457,0.14705472283480242,0.0047222308578601414
1.2529587745666504,0.0014436691999435425,-0.004268503747880459,0.0077893733978271484,-0.024610640481114388,0.006061153952032328,-0.003108211327344179,0.0031777961932916337,0.1471433452521445,0.004736234266234889
1.263084888458252,0.0018171221017837524,-0.006871873512864113,0.0076143741607666016,-0.03983140364289284,0.004856340121477842,-0.003903697244822979,0.0029242784863554075,0.1471976100584958,0.0047514076358931906
1.2735729217529297,0.0014688074588775635,-0.007458894047886133,0.005793213844299316,-0.04618842154741287,0.0017495411448180676,-0.00685794185847044,0.0025508801849626578,0.14724106700091183,0.004763528745125574
1.2830257415771484,0.001757115125656128,-0.002543677808716893,0.005837440490722656,-0.04340781271457672,-0.003189557697623968,-0.009149326011538506,0.0021407762438349783,0.14725798641733093,0.004752711478338048
1.2930128574371338,0.0029938220977783203,-1.4481018297374249e-05,0.005857944488525391,-0.03145884349942207,-0.005621911026537418,-0.00864923745393753,0.001831839667218672,0.14722628326369555,0.0047150835983503
1.3029959201812744,0.004865825176239014,0.001928937272168696,0.003994286060333252,-0.016141671687364578,-0.010562075302004814,-0.010230089537799358,0.0016542870633589153,0.14713856282671772,0.004655862392219138
1.313309907913208,0.004952594637870789,0.0079555818811059,0.0009644627571105957,-0.0013242104323580861,-0.015403347089886665,-0.010226733982563019,0.0016384510745252531,0.14698914889179776,0.004568148438264338
1.3238420486450195,0.0043245404958724976,0.007430885918438435,0.0006615519523620605,0.011527938768267632,-0.009553980082273483,-0.009400621056556702,0.0017546226163189403,0.14686823089942724,0.004469290296549331
1.3332757949829102,0.001759856939315796,0.005713752005249262,0.0006418824195861816,0.01349960919469595,-0.008690405637025833,-0.008267819881439209,0.001899062247250528,0.1467923619779106,0.004359492227679405
1.343423843383789,0.0002699047327041626,0.004567192401736975,0.00036144256591796875,0.00797275174409151,-0.008058969862759113,-0.008113889023661613,0.002049500135558687,0.1467252622170648,0.0042625058380327
1.353065013885498,0.0004890114068984985,-0.002821635454893112,0.004292607307434082,0.005008453503251076,-0.00875156931579113,-0.008974089287221432,0.0021527365898814533,0.14665802990876614,0.00416888558831543
1.3631577491760254,0.0007493495941162109,-0.006044888868927956,0.006333410739898682,-0.004797039087861776,-0.01127731055021286,-0.012259631417691708,0.0021490882860405592,0.14657998312408843,0.004067224183275974
1.373534917831421,0.0005012601613998413,-0.007281200960278511,0.007948696613311768,-0.007142418529838324,-0.010516179725527763,-0.010501839220523834,0.0020724445364959368,0.14649138031613862,0.003966480170299919
1.3831219673156738,-6.535649299621582e-05,-0.009699501097202301,0.009768784046173096,-0.0013183514820411801,-0.002648669295012951,-0.006878874264657497,0.0020039985756628116,0.14646259368665937,0.003886523929529744
1.3932819366455078,2.187490463256836e-05,-0.0105391014367342,0.009216725826263428,0.004573110491037369,-0.0008128192275762558,-0.0026962202973663807,0.0019578521997035444,0.1464823578349879,0.003836171436564302
1.403306007385254,-8.560717105865479e-05,-0.008798631839454174,0.005094349384307861,0.015691807493567467,-0.0012580999173223972,0.0020154444500803947,0.0020198554836646405,0.1464984823741936,0.003815869778440951
1.4131817817687988,0.003994986414909363,-0.007832866162061691,0.00614553689956665,0.028850868344306946,0.000570470467209816,0.003950763493776321,0.0022074260538276075,0.14650739426433285,0.0038131497496774777
1.424081802368164,0.002950817346572876,-0.009044457226991653,0.007621705532073975,0.03189513087272644,0.00247542979195714,0.005125750321894884,0.0024911971638578155,0.14652957852090698,0.0038203091908687046
1.4331679344177246,0.00025078654289245605,-0.009107286110520363,0.008030712604522705,0.027115553617477417,-0.0015155836008489132,0.005279947072267532,0.002809838347036916,0.1465443282551175,0.003831361718694959
1.443267822265625,0.0013563185930252075,-0.008481305092573166,0.007649421691894531,0.022101620212197304,-0.0008007907308638096,0.0012284802505746484,0.0030848688435974065,0.14653748556298984,0.003824502421977559
1.453251838684082,0.002723678946495056,-0.010608846321702003,0.007833123207092285,0.021089784801006317,-0.0014025764539837837,2.5956658646464348e-05,0.0033376980189562607,0.1465281761047502,0.003805288156522091
1.4635379314422607,0.0013584643602371216,-0.010278444737195969,0.007909715175628662,0.02279181219637394,-0.0016454565338790417,0.0020102779380977154,0.0035918092598625916,0.1465201319868554,0.003784539225973069
1.4735307693481445,0.0013621896505355835,-0.005193332675844431,0.006947815418243408,0.026288991793990135,-0.0003357590176165104,0.003642848925665021,0.003885663852875221,0.14651654085651267,0.0037718780573007178
1.4840507507324219,0.00269104540348053,-0.0033874078653752804,0.007783770561218262,0.027180884033441544,0.0014232590328902006,0.004979489371180534,0.004196227269733895,0.14653078006661252,0.0037755704990387034
1.493271827697754,0.0008480697870254517,-0.004266432486474514,0.004571855068206787,0.025395367294549942,0.0009429138153791428,0.00458571407943964,0.004492135207892666,0.14657388556637788,0.003783253200330518
1.503551959991455,0.0007970482110977173,-0.003986014984548092,0.0034208297729492188,0.021984124556183815,0.0015876651741564274,0.0011201428715139627,0.004772554017777178,0.14661022555315978,0.003775721821817441
1.5132908821105957,0.0008552968502044678,-0.003483997657895088,0.005830168724060059,0.014450058341026306,-0.003652770072221756,-9.942799806594849e-06,0.004999914623012988,0.14661320742441336,0.003749449482514123
1.523766040802002,0.0015353113412857056,-0.0038393321447074413,0.006508946418762207,0.005621147342026234,-0.009469380602240562,-0.0004264611634425819,0.0051328635134154955,0.1465583054561289,0.003732419546168658
1.533336877822876,0.0036929547786712646,-0.004884015303105116,0.007301270961761475,-0.002941032173112035,-0.014827970415353775,-0.0011891905451193452,0.005186815434698937,0.14645958555718244,0.003715536698656926
1.5437049865722656,0.005109459161758423,-0.006048625335097313,0.007656753063201904,-0.00534133892506361,-0.014404527842998505,0.0001810058020055294,0.0051971315964505415,0.1463233642215811,0.0037179407352763414
1.553359031677246,0.003164827823638916,-0.0049942354671657085,0.008548259735107422,-0.0082162544131279,-0.01653718762099743,0.0008411504095420241,0.0051528872574404605,0.1461759199552529,0.0037267328483303283
1.563654899597168,0.00165596604347229,-0.002049179282039404,0.008416533470153809,-0.01018007006496191,-0.01624317467212677,-0.00013010448310524225,0.005076701400686912,0.14603528020350148,0.00374519679633299
1.5743439197540283,0.0017618834972381592,-0.0025413059629499912,0.010390162467956543,-0.01262713223695755,-0.013594439253211021,-0.002534459810703993,0.004981302547735631,0.14589731705678105,0.003747434423419355
1.5836310386657715,0.00034424662590026855,-0.0026983763091266155,0.009961903095245361,-0.011711537837982178,-0.008470517583191395,-0.004416781943291426,0.004870008400855117,0.14580324479501675,0.0037334135921443467
1.5937368869781494,0.0014372020959854126,-0.003390273079276085,0.009776592254638672,-0.008510717190802097,-0.011159688234329224,-0.0066027045249938965,0.004773201576624078,0.14571639481392637,0.003692246218076845
1.6036789417266846,0.0023882687091827393,-0.0030140364542603493,0.012781798839569092,-0.007965035736560822,-0.011167410761117935,-0.0042335563339293,0.004706935451354715,0.14561874128730645,0.0036384727923543607
1.6148419380187988,0.004186764359474182,-0.003523058257997036,0.012805819511413574,0.0002034453209489584,-0.005551869980990887,0.000260048545897007,0.004686194099325437,0.14555910277864806,0.003621650867583507
1.6240949630737305,0.0040864646434783936,-0.0010982239618897438,0.009647786617279053,0.008355647325515747,-0.003143041394650936,0.004459320567548275,0.0047764332992269185,0.14555256210912865,0.003643443537213014
1.6335959434509277,0.004025265574455261,-2.5385059416294098e-05,0.007818162441253662,0.015526924282312393,-0.003659650217741728,0.008643520064651966,0.004933749157943986,0.1455374224458766,0.0036854223742027463
1.64373779296875,0.0057131946086883545,-0.0007720133289694786,0.009054601192474365,0.014556203037500381,-0.0014689336530864239,0.008953245356678963,0.005117908614416935,0.14552797602705786,0.003741563139478837
1.653627872467041,0.005068853497505188,-0.003164693247526884,0.008959531784057617,0.00862312875688076,0.000942958053201437,0.008551374077796936,0.0052581897433008895,0.14554704034603683,0.0038192285710632297
1.6636180877685547,0.003860175609588623,-0.0034984825178980827,0.012204289436340332,0.0004485559184104204,0.0029344698414206505,0.00612550089135766,0.005336387315623411,0.1455812151344479,0.003894161228321244
1.6741559505462646,0.002824559807777405,-0.0069966996088624,0.014181554317474365,-0.005281784571707249,0.0019953062292188406,0.002189988037571311,0.005332431370121146,0.145625462196813,0.003944337142966518
1.6836378574371338,0.0015286803245544434,-0.0074125309474766254,0.015304505825042725,-0.009835789911448956,0.0016704006120562553,0.000699150376021862,0.005267551062411143,0.1456705484382277,0.003963044768414837
1.6935148239135742,0.0013689696788787842,-0.008877448737621307,0.012655198574066162,-0.00910220481455326,0.006953890435397625,-0.0003327711601741612,0.005175925591128572,0.14573938748423684,0.003982977555498595
1.70357084274292,0.001882702112197876,-0.007921082898974419,0.01083838939666748,-0.001798752462491393,0.011177663691341877,0.005071847699582577,0.005140467689070504,0.14585243985394988,0.004008472689373893
1.7135238647460938,0.0003146231174468994,-0.004737270530313253,0.007871508598327637,0.0028544554952532053,0.012550611980259418,0.008260291069746017,0.005150455231058466,0.14600305823411816,0.004069184474219486
1.7237648963928223,0.001745477318763733,-0.004472896456718445,0.004905581474304199,0.0030707044061273336,0.009443235583603382,0.006966792978346348,0.005201204100099559,0.14614540982352442,0.004141803617039918
1.7335529327392578,0.004714831709861755,-0.00651533855125308,0.006717503070831299,0.0006156859453767538,0.011057333089411259,0.010815593414008617,0.005249218581490432,0.14627500620866002,0.0042162982786293325
1.7436027526855469,0.003080815076828003,-0.00871593039482832,0.007852017879486084,-0.00175825587939471,0.016307756304740906,0.013558116741478443,0.00529166925357981,0.1464460480974788,0.00434194612046403
1.7535169124603271,0.001204758882522583,-0.008105127140879631,0.005813121795654297,-0.004805910401046276,0.01295936293900013,0.01256672851741314,0.005307380564631635,0.1466149450945236,0.00448151893252576
1.7635650634765625,0.002133399248123169,-0.007198261562734842,0.002823770046234131,-0.006561466492712498,0.00290326657705009,0.012287628836929798,0.005313977658941453,0.1467096617886357,0.00460998333751096
1.7738399505615234,0.003803759813308716,-0.005957324523478746,0.0009126663208007812,0.001894885441288352,0.0004929727874696255,0.012294447049498558,0.005364728686907639,0.14673332666573838,0.004728929975578836
1.7836060523986816,0.003484949469566345,-0.004985273350030184,0.001446366310119629,0.009540554136037827,-0.0027789874002337456,0.011673931032419205,0.005482290372163791,0.14673177647258115,0.004837797136459989
1.7936439514160156,-0.0001373589038848877,-0.0046472977846860886,0.0008456110954284668,0.009883918799459934,-0.010302728042006493,0.01041335053741932,0.005621903655772195,0.14666080242316626,0.004935769014424738
1.8035919666290283,0.0007805228233337402,-0.001700542401522398,0.0008435249328613281,0.008554735220968723,-0.008865952491760254,0.010494576767086983,0.005745782562687528,0.146565975345923,0.005028114507150554
1.8136677742004395,0.0010583698749542236,-0.0035735941492021084,0.001185774803161621,0.002919886028394103,-0.006798895075917244,0.01273765042424202,0.005856376245800521,0.14651659811513382,0.005132205736315488
1.8238887786865234,-0.00283658504486084,-0.007422727532684803,0.0028570890426635742,-0.002842661691829562,-0.008773363195359707,0.012578659690916538,0.005913492041699675,0.1464589235481417,0.005257539528278288
1.833630084991455,-0.003203362226486206,-0.006087145302444696,0.0037987828254699707,0.0007863780483603477,-0.008858717046678066,0.01091769989579916,0.005952081992093885,0.1463824235162264,0.005384622462382672
1.843709945678711,-0.002438381314277649,-0.006672005634754896,0.005654036998748779,0.0014114216901361942,-0.007144174538552761,0.012415461242198944,0.006008089474759728,0.14631870716305678,0.005498882078629162
1.8536767959594727,-0.004102721810340881,-0.00446939654648304,0.005993485450744629,0.006747381761670113,-0.004660110920667648,0.013039120472967625,0.0061049877549017835,0.14628909979989066,0.0056181383610423
1.863783836364746,-0.002431809902191162,-0.005202491767704487,0.004882097244262695,0.011595666408538818,-0.006113131530582905,0.01569242775440216,0.006241646613937589,0.1462660086436011,0.0057477986855082605
1.8743247985839844,-0.0010950863361358643,-0.002669303212314844,0.0042150020599365234,0.027571452781558037,-0.002252302598208189,0.01847074367105961,0.006486022218865902,0.14622608130980644,0.005902066031525785
1.8838958740234375,-0.0014014989137649536,-0.0007171817123889923,0.0030291080474853516,0.030206916853785515,-0.009181581437587738,0.018150098621845245,0.006820719186816536,0.14618138909567735,0.006042540618342712
1.8940439224243164,-0.0013502836227416992,-0.00019476888701319695,0.003915607929229736,0.019161008298397064,-0.016897691413760185,0.015201447531580925,0.007114256942928561,0.1460528103149832,0.006167757174229635
1.9038589000701904,0.0004565119743347168,-0.0009377496317028999,0.009524643421173096,0.004535992164164782,-0.013417204841971397,0.013801690191030502,0.007286807971299093,0.14587701354285762,0.006295717132244992
1.9139690399169922,0.0005990564823150635,-0.003672391641885042,0.009568929672241211,0.0008809699211269617,-0.003893386572599411,0.010527492500841618,0.007344526667621827,0.14577927440226202,0.0064075175168542275
1.9242057800292969,-0.004433289170265198,-0.003556186333298683,0.007164716720581055,0.007930890657007694,-0.004283007234334946,0.007527708075940609,0.007414956645801012,0.14572998625256398,0.006489142819291406
1.9337668418884277,-0.004794225096702576,0.0004985998384654522,0.007909893989562988,0.024578260257840157,-0.013014491647481918,0.00578504242002964,0.007609276050268859,0.14563232226129896,0.006527112926540638
1.9439020156860352,-0.0010036081075668335,0.009731954894959927,0.006958663463592529,0.030303524807095528,-0.022458059713244438,0.0027106893248856068,0.00791624731301958,0.14544110979729558,0.006526084218392578
1.9537410736083984,0.0018430352210998535,0.011871439404785633,0.0055699944496154785,0.018458332866430283,-0.02049313485622406,-0.002596085425466299,0.008178910198997035,0.14521690256858336,0.006487223609942199
1.9638910293579102,-0.001722589135169983,0.0013380283489823341,0.005226075649261475,0.000830869423225522,-0.009699343703687191,-0.006847555749118328,0.008265619119199237,0.1450578172581066,0.006420459619463372
1.9744868278503418,-0.007285088300704956,-0.005388217978179455,0.0076476335525512695,-0.01607239618897438,-0.0059553394094109535,-0.006923722103238106,0.008176941532634737,0.14498899058652276,0.006364717936864726
1.984138011932373,-0.008786693215370178,-0.006995967589318752,0.009564638137817383,-0.01986260712146759,-0.009311987087130547,-0.009707790799438953,0.007972993912169645,0.1449333774983282,0.006306640640945984
1.9940857887268066,-0.003893524408340454,-0.0027104122564196587,0.011836826801300049,-0.008033162914216518,-0.008316364139318466,-0.01295572891831398,0.007818237918845889,0.1448456327896417,0.006214926868225345
2.0040030479431152,-0.003375142812728882,0.001995667815208435,0.013055384159088135,0.01259967777878046,-0.00945326779037714,-0.010540507733821869,0.007839869836941082,0.14475354922069877,0.006090256727631843
2.013916015625,-0.004476815462112427,0.00662225391715765,0.00905841588973999,0.020998405292630196,-0.012258952483534813,-0.00870420504361391,0.007995635027336166,0.1446334402929142,0.005967799297451371
2.0244388580322266,-0.0020814836025238037,0.010253622196614742,0.0042098164558410645,0.015462491661310196,-0.015346353873610497,-0.010657899081707,0.008117487471308261,0.14449510333279447,0.005855957816814397
2.0339107513427734,-0.0007625818252563477,0.005411970429122448,0.007323861122131348,-0.0021161013282835484,-0.011586327105760574,-0.008981546387076378,0.008112870339335679,0.14438043751198582,0.005755535605836049
2.0440309047698975,-0.0017355233430862427,-0.0031105494126677513,0.011092841625213623,-0.029591400176286697,-0.007636326365172863,-0.012582939118146896,0.007936899893955235,0.14428404245347323,0.00567311894019424
2.0539538860321045,-0.0036895275115966797,-0.009956205263733864,0.01474297046661377,-0.054230768233537674,-0.009158588945865631,-0.01611652784049511,0.007530443453010339,0.1441765591378718,0.005591350557716878
2.0641040802001953,0.001469150185585022,-0.009073962457478046,0.013934731483459473,-0.06610473990440369,-0.023495450615882874,-0.016650758683681488,0.00694782717987796,0.14398970184782978,0.005518857381482653
2.07419490814209,0.007562011480331421,-0.004380027297884226,0.01821976900100708,-0.07748579233884811,-0.028264548629522324,-0.016937047243118286,0.006224878087627063,0.14372223298819353,0.00545061190812208
2.0841140747070312,0.00635199248790741,-0.006239889655262232,0.023192226886749268,-0.08373942971229553,-0.02517581544816494,-0.00935449544340372,0.005402598101649698,0.14344864001935786,0.005434929376368811
2.093986988067627,0.00689050555229187,-0.006712854374200106,0.022103309631347656,-0.08808039128780365,-0.023426519706845284,-0.0074968342669308186,0.004532895559046808,0.1431968568782374,0.005477855760896093
2.104071855545044,0.007686436176300049,-0.010552305728197098,0.021222949028015137,-0.10467933863401413,-0.020246438682079315,-0.00914293434470892,0.0035468285193420075,0.14297793982586238,0.00553834083491198
2.1140427589416504,0.007493883371353149,-0.021391067653894424,0.02077847719192505,-0.13790932297706604,-0.015787819400429726,-0.009612449444830418,0.002336355527386394,0.1428019885511525,0.00561620788359511
2.124289035797119,0.006366953253746033,-0.02482832968235016,0.023835301399230957,-0.18006210029125214,-0.011022891849279404,-0.00788325909525156,0.0007759244305457093,0.14267607672025326,0.005751906659537975
2.1340150833129883,0.004587024450302124,-0.028707578778266907,0.03251582384109497,-0.22004763782024384,-0.008018845692276955,-0.002879498992115259,-0.0011654600482343068,0.14257823638654013,0.005984614511367223
2.1440589427948,0.0032056868076324463,-0.03335215523838997,0.039322853088378906,-0.30370816588401794,-0.029926808550953865,-0.017506113275885582,-0.0036585544897269513,0.14241766087748758,0.006268844279596577
2.153991937637329,0.0038670003414154053,-0.035721998661756516,0.04322385787963867,-0.46912485361099243,-0.04040372744202614,-0.05556630343198776,-0.0074627840700151925,0.14209171471950954,0.006432560769209161
2.1640889644622803,0.00455610454082489,-0.06084425374865532,0.056010663509368896,-0.7144299745559692,-0.014713277108967304,-0.07535252720117569,-0.013313512767547145,0.14177423812605752,0.00658589734826114
2.174344062805176,0.0007528960704803467,-0.08693389594554901,0.06678670644760132,-1.0665111541748047,-0.06070096418261528,-0.059288498014211655,-0.022207932602994074,0.14150766794376374,0.007183143903935127
2.1841819286346436,-0.0025191009044647217,-0.07881999015808105,0.09268951416015625,-1.462275505065918,-0.15529777109622955,-0.14558742940425873,-0.03472906452269569,0.14045484979384115,0.008003178471645722
2.194598913192749,0.004242464900016785,-0.15752749145030975,0.1359785795211792,-1.8966578245162964,-0.18757444620132446,-0.24948491156101227,-0.05168500700383503,0.13875133497920442,0.00835271920601679
2.204329013824463,-0.0012664049863815308,-0.22048024833202362,0.13635295629501343,-2.2684717178344727,-0.2565327286720276,-0.3062722980976105,-0.07277836061160256,0.13655685883378407,0.008461433336032751
2.214031934738159,-0.00033408403396606445,-0.18107616901397705,0.10452449321746826,-2.555931806564331,-0.3557589054107666,-0.3462255597114563,-0.09718366341828014,0.1335302350327132,0.008475214854446435
2.2248449325561523,0.020008713006973267,-0.13594287633895874,0.0787038803100586,-2.7909202575683594,-0.46758344769477844,-0.3759264647960663,-0.12423831143194654,0.12930957140292132,0.008380924008616984
2.2346348762512207,0.03572367876768112,-0.09978677332401276,0.060087382793426514,-2.9793121814727783,-0.5280447006225586,-0.35758742690086365,-0.15333492176329017,0.12436177392330452,0.008421126105327487
2.2442359924316406,0.032290875911712646,-0.08007006347179413,0.02476966381072998,-3.158751964569092,-0.5628514289855957,-0.36204129457473755,-0.1842914034878136,0.1189083150226541,0.008549892403479973
2.254058837890625,0.01371164619922638,-0.0890798270702362,0.00017148256301879883,-3.3874149322509766,-0.6447377800941467,-0.36303916573524475,-0.2172339264418321,0.11290949828218219,0.008755166473003676
2.264319896697998,0.00807216763496399,-0.11039409041404724,-0.0004923343658447266,-3.7106215953826904,-0.782225489616394,-0.4323342442512512,-0.2529132574014343,0.10574228220083708,0.008705138036237403
2.274435043334961,0.0033009275794029236,-0.1395358443260193,0.029210984706878662,-3.9906959533691406,-0.7693802714347839,-0.46952101588249207,-0.29177527783200535,0.09776664219725725,0.008056993101218993
2.284395933151245,-0.012436904013156891,-0.1681269407272339,0.034056246280670166,-4.146045684814453,-0.7404442429542542,-0.4810807406902313,-0.33295125137109344,0.08987448979972117,0.00709842439306715
2.2947819232940674,-0.03994198888540268,-0.11404216289520264,0.0015153884887695312,-4.06892728805542,-0.7366356253623962,-0.4707545340061188,-0.37447250693658574,0.08202780981150701,0.005796434442799648
2.3071138858795166,-0.05089321732521057,-0.038716018199920654,-0.023558199405670166,-3.684905529022217,-0.7089309692382812,-0.4354194700717926,-0.4137470506661135,0.07418258365742116,0.004192709743409624
2.314912796020508,-0.03406915068626404,0.05441513657569885,-0.050464630126953125,-3.0285308361053467,-0.7119700312614441,-0.4014986753463745,-0.44772961164050484,0.06622973912208681,0.002195067499317474
2.3245997428894043,-0.053819697350263596,0.18640339374542236,-0.08108842372894287,-1.961399793624878,-0.5546390414237976,-0.31529533863067627,-0.47321176332113574,0.05868053662976746,-9.22204881395796e-05
2.334246873855591,-0.09964051842689514,0.26844528317451477,-0.11797893047332764,-0.6364504098892212,-0.2944919764995575,-0.23154936730861664,-0.48637578224539113,0.053481580110857324,-0.0022764921975627146
2.3443689346313477,-0.15504711866378784,0.3289205729961395,-0.1886313557624817,0.9054676294326782,-0.005330739077180624,-0.1974412053823471,-0.48549039786480613,0.05060825337907168,-0.004830283270903529
2.354266881942749,-0.1990000605583191,0.39158788323402405,-0.2078402042388916,2.960885763168335,0.5388128757476807,-0.04369281232357025,-0.46653801295503133,0.05204027522140007,-0.007293488749726446
2.3643839359283447,-0.1969340741634369,0.4465121626853943,-0.2818251848220825,5.236835479736328,0.9227778315544128,-0.0018044873140752316,-0.4254610430270899,0.05848641713236459,-0.00995866224517505
2.374530792236328,-0.21323534846305847,0.680796205997467,-0.303863525390625,7.3946709632873535,1.2130450010299683,0.00980572309345007,-0.36237648242970383,0.06734181431684425,-0.014327861898274653
2.384291887283325,-0.19579412043094635,0.837760865688324,-0.18527746200561523,9.349709510803223,1.6000970602035522,-0.02565772831439972,-0.2786389648888447,0.07943100594397241,-0.0207034987890034
2.3943889141082764,-0.16666489839553833,0.8746344447135925,-0.1252133846282959,10.990456581115723,1.9041105508804321,-0.17799101769924164,-0.17711714797408415,0.09464552445880686,-0.03085571877581534
2.404510974884033,-0.2237987518310547,0.9673939943313599,-0.03637450933456421,12.070937156677246,2.2052977085113525,-0.27372634410858154,-0.06212595564783389,0.11357399546147696,-0.045232166858103634
2.4144959449768066,-0.2137567400932312,1.0571476221084595,0.04838919639587402,12.8002347946167,2.518082857131958,-0.22334113717079163,0.06110711561902692,0.1371710623956313,-0.06342470818673111
2.4252519607543945,-0.14994478225708008,1.1939228773117065,0.07535219192504883,12.517507553100586,2.488703489303589,0.06377346068620682,0.1872795767770267,0.1652133988476199,-0.08356712451643807
2.4344677925109863,-0.06819893419742584,1.3415651321411133,0.09635716676712036,11.296773910522461,2.13130259513855,0.07379083335399628,0.30530079903524737,0.19350027023187244,-0.10454295622057785
2.4443650245666504,0.025567680597305298,1.2942132949829102,0.2758033275604248,9.364027976989746,2.028491497039795,-0.707425057888031,0.4059987942323391,0.22311753389845596,-0.1301089124404708
2.4544339179992676,-0.03830216825008392,0.8167428970336914,0.3446498513221741,7.5622453689575195,2.1711959838867188,-1.806726098060608,0.48516611727436953,0.2596329417386878,-0.16618288707620799
2.465141773223877,-0.2805570065975189,0.3648146390914917,0.462158739566803,6.0039896965026855,2.4315884113311768,-2.166020393371582,0.544508342120918,0.3045258035144549,-0.21032811552078806
2.4746599197387695,-0.37625354528427124,0.08454275131225586,0.6023502945899963,5.095870494842529,2.680147647857666,-2.164966344833374,0.5895211400590025,0.35440315362799235,-0.2555615638865346
2.484402894973755,-0.2539181113243103,0.00902026891708374,0.6864635944366455,4.8682475090026855,2.7724924087524414,-2.4391894340515137,0.6269246649193734,0.4098402607079619,-0.30402666949616086
2.4945340156555176,-0.09284096956253052,0.037316739559173584,0.7705422639846802,5.1039252281188965,2.3458712100982666,-2.512310266494751,0.6613598955325147,0.4688494824775877,-0.35881573808618855
2.5044748783111572,0.11011466383934021,0.24611806869506836,0.9457964897155762,5.401678562164307,1.7896499633789062,-2.418483018875122,0.6959599074572594,0.5271630048433825,-0.41895449937226364
2.5145349502563477,0.33418846130371094,0.3419135808944702,0.9988301396369934,5.413751125335693,1.5591553449630737,-2.487758159637451,0.7291133447776627,0.5864033364529513,-0.48445869690828125
2.5245518684387207,0.3334934711456299,0.2056276798248291,0.8470337986946106,5.252467632293701,1.6409753561019897,-2.578007221221924,0.7579780856416733,0.6499180144676585,-0.5546140934325459
2.5345168113708496,0.12609031796455383,0.014444887638092041,0.6747520565986633,4.8092827796936035,1.6277040243148804,-2.5624523162841797,0.7809135943992211,0.7167270335831069,-0.627002338756061
2.5449869632720947,0.01125246286392212,-0.17124396562576294,0.5774008631706238,4.112990379333496,1.5422873497009277,-2.3748607635498047,0.7968450067073075,0.7816935068687857,-0.6960544884648088
2.5546350479125977,0.05717378854751587,-0.3385159373283386,0.48384177684783936,3.324531316757202,1.5577398538589478,-2.100262403488159,0.8061822344998428,0.8406007625132699,-0.7569433949534752
2.5645029544830322,0.054152607917785645,-0.4920382499694824,0.3668935298919678,2.620560884475708,1.6807019710540771,-1.801652431488037,0.8104405425343738,0.8939064491981642,-0.8081205987690454
2.574690818786621,-0.028115510940551758,-0.5943071842193604,0.19141879677772522,2.016219139099121,1.6865270137786865,-1.3227276802062988,0.811962810625871,0.9402171823933553,-0.8486756840399085
2.5844688415527344,-0.06652611494064331,-0.6301491260528564,0.07517078518867493,1.5949957370758057,1.643165111541748,-0.8435786962509155,0.8134733578879603,0.9789774423944699,-0.8790379483794762
2.594728946685791,-0.05791515111923218,-0.6051836013793945,0.020036756992340088,1.2607272863388062,1.4670040607452393,-0.4030202031135559,0.816012083108297,1.0109683359165238,-0.9014601102684664
2.604686737060547,-0.051434218883514404,-0.6215702891349792,-0.03371316194534302,1.020951747894287,1.3410091400146484,-0.002607803326100111,0.8202102874687134,1.0364021974397395,-0.9171625824056425
2.615356922149658,-0.03125202655792236,-0.5789793729782104,-0.023036032915115356,0.8780824542045593,1.2052847146987915,0.2399507313966751,0.8260504433536032,1.0573670567192226,-0.9283026535517825
2.6249847412109375,-0.043929338455200195,-0.48624318838119507,-0.03785786032676697,0.7340328693389893,1.0927962064743042,0.39650464057922363,0.8327738993998656,1.0749522704184564,-0.9365726203570768
2.634577751159668,-0.004494071006774902,-0.38775378465652466,-0.05242082476615906,0.5481104850769043,1.0217012166976929,0.4655775725841522,0.8396626157144065,1.0895227948430726,-0.9419619169365117
2.644577980041504,0.033920347690582275,-0.2555624842643738,-0.05323055386543274,0.3654612898826599,0.9790328145027161,0.41749072074890137,0.8457688795575684,1.1018083350405987,-0.9449377071900928
2.654654026031494,0.06628137826919556,-0.13962095975875854,-0.057816267013549805,0.20342832803726196,0.9964878559112549,0.269967257976532,0.8501362769966533,1.1128598458543797,-0.9464326126703738
2.6646058559417725,0.09516644477844238,-0.02810460329055786,-0.045058101415634155,0.14959760010242462,0.8503525257110596,0.13681480288505554,0.8526912115185724,1.1228206918557742,-0.9473268583526783
2.6748108863830566,0.12733232975006104,0.07383865118026733,-0.02771344780921936,0.2688300907611847,0.7383242249488831,-0.018139412626624107,0.8541294387676807,1.1326821411640131,-0.9497992494540466
2.6846508979797363,0.18171828985214233,0.2062024474143982,-0.01815694570541382,0.49552688002586365,0.6109364628791809,-0.15378086268901825,0.8548634941029822,1.1437527930625724,-0.9555388612638579
2.694762945175171,0.19400644302368164,0.29236555099487305,-0.050077080726623535,0.6836007833480835,0.5164524912834167,-0.2547474801540375,0.855416654952375,1.1566630791760983,-0.9652110415820774
2.7050509452819824,0.2094975709915161,0.3037245273590088,-0.08214882016181946,0.6710959076881409,0.4105074405670166,-0.3221677839756012,0.8555426726561965,1.1699006448012386,-0.976581340964926
2.714780807495117,0.21330833435058594,0.1876159906387329,-0.07448843121528625,0.5256823897361755,0.3345620334148407,-0.4025382399559021,0.8544430101145819,1.1816880434493036,-0.9872529327646167
2.7249717712402344,0.20912086963653564,0.005199313163757324,-0.044351279735565186,0.3936101496219635,0.2371947169303894,-0.4217012822628021,0.8523343803306794,1.1911513512630671,-0.9960696279419714
2.734876871109009,0.1960546374320984,-0.08304721117019653,-0.045229315757751465,0.2944648861885071,0.16567949950695038,-0.36375662684440613,0.84987308731389,1.1984952253135794,-1.0031059963947961
2.745166778564453,0.18259721994400024,-0.10299372673034668,-0.06408849358558655,0.24487842619419098,0.06968025118112564,-0.2716490626335144,0.8478592083078617,1.2038374912604335,-1.008649436838016
2.754779815673828,0.1659325361251831,-0.10986447334289551,-0.066725954413414,0.2299799621105194,-0.06652725487947464,-0.19562546908855438,0.8465621913208738,1.207232879309576,-1.0131840445376756
2.764849901199341,0.15197741985321045,-0.12850242853164673,-0.05466185510158539,0.19922257959842682,-0.13566423952579498,-0.0913187637925148,0.84590702605602,1.209147800752198,-1.0171140785413
2.7748019695281982,0.12528783082962036,-0.15275996923446655,-0.06571999192237854,0.1370803713798523,-0.17583021521568298,0.010546508245170116,0.8461891476932083,1.2094137446977393,-1.019635450520906
2.7849369049072266,0.08587783575057983,-0.16006457805633545,-0.07450906932353973,0.07536613941192627,-0.19577382504940033,0.10275712609291077,0.8470709184980976,1.2085192211149967,-1.0208318198142303
2.794985771179199,0.04883122444152832,-0.16835790872573853,-0.07463330030441284,0.021147042512893677,-0.19142374396324158,0.12970799207687378,0.8483505351331315,1.2066148314054004,-1.0209385931797816
2.8048667907714844,0.026181280612945557,-0.14484894275665283,-0.06751054525375366,-0.10239247232675552,-0.16476282477378845,0.1481916606426239,0.8495440686393595,1.2038509161239095,-1.0196349531149145
2.8148958683013916,-0.010195732116699219,-0.15205144882202148,-0.051677435636520386,-0.19995687901973724,-0.14618799090385437,0.17278650403022766,0.8504684846685796,1.2000324528722472,-1.016564440213105
2.824881076812744,-0.02530384063720703,-0.13885003328323364,-0.02159339189529419,-0.21939370036125183,-0.15906092524528503,0.1711563766002655,0.8513053620954344,1.1954939240708282,-1.0125985932351644
2.8349409103393555,-0.01332557201385498,-0.07845067977905273,0.00042378902435302734,-0.2240920513868332,-0.1599743813276291,0.1868317425251007,0.8521238548571969,1.1908137578895346,-1.008483920561241
2.8449149131774902,-0.01682889461517334,-0.04125523567199707,0.016469836235046387,-0.23337183892726898,-0.13790476322174072,0.20815753936767578,0.8531126208790314,1.1860198396286312,-1.0041357755423792
2.854902744293213,-0.022944390773773193,-0.01613914966583252,0.028397217392921448,-0.20306555926799774,-0.13780272006988525,0.24177046120166779,0.854366467837049,1.1813546058410862,-0.9996971666148252
2.86521577835083,-0.02326202392578125,0.014255404472351074,0.03372874855995178,-0.14796236157417297,-0.12823452055454254,0.24553483724594116,0.8559697294202249,1.1770349668943882,-0.9958170881765834
2.8749449253082275,-0.009194493293762207,0.0583498477935791,0.044240593910217285,-0.12826509773731232,-0.10740406811237335,0.24469193816184998,0.857735519462518,1.1733326506606685,-0.9924552472865021
2.8848469257354736,-0.02302795648574829,0.06195133924484253,0.04353386163711548,-0.16038547456264496,-0.0634951964020729,0.21301257610321045,0.8593004917511562,1.1699155597800373,-0.9890916072899208
2.895211935043335,-0.02682727575302124,0.04355823993682861,0.0522271990776062,-0.19129185378551483,-0.02189870923757553,0.1533341258764267,0.8603196904481164,1.1667250444440807,-0.9854587366138051
2.9053258895874023,-0.030142247676849365,0.035383641719818115,0.05142048001289368,-0.20504893362522125,0.03218929469585419,0.13697673380374908,0.8608176228254875,1.1640538210194609,-0.9818251706478753
2.916773796081543,-0.025683701038360596,0.05160868167877197,0.03935974836349487,-0.19850359857082367,0.04399712756276131,0.13996410369873047,0.8612934415532073,1.1616055696728163,-0.9781088634179801
2.9266600608825684,-0.010518252849578857,0.08586996793746948,0.04539579153060913,-0.17054812610149384,0.06312688440084457,0.11860368400812149,0.8617232606023221,1.1595335334920334,-0.9746675903628939
2.93516206741333,0.002541840076446533,0.09562379121780396,0.05588844418525696,-0.15119129419326782,0.06946635991334915,0.1170211210846901,0.8621738321655744,1.157931505463922,-0.9717075700481324
2.9450149536132812,0.006768524646759033,0.0860716700553894,0.05236750841140747,-0.13441765308380127,0.04434902220964432,0.09171497076749802,0.8625958910591844,1.1564282149332734,-0.9689593270112904
2.955272912979126,0.02221369743347168,0.07082456350326538,0.05015411972999573,-0.09301819652318954,0.03014456294476986,0.06222120672464371,0.8628013724608466,1.1552727807995171,-0.966940602548004
2.9654979705810547,0.03169071674346924,0.05530887842178345,0.03169223666191101,-0.11068028211593628,0.020259708166122437,0.02943982370197773,0.8628287007000432,1.1541791199155729,-0.9652290982710461
2.9757418632507324,0.031225740909576416,0.02761542797088623,0.021039217710494995,-0.15379013121128082,0.024081788957118988,0.013837216421961784,0.8625022452586621,1.1529408619482273,-0.9632378239712917
2.9852168560028076,0.022447407245635986,-0.020443260669708252,0.004734903573989868,-0.17481473088264465,0.029771633446216583,-0.021955136209726334,0.8618088557841765,1.1515433529950756,-0.961028053963299
2.9952139854431152,0.009424686431884766,-0.032878994941711426,-0.0022023022174835205,-0.2455139458179474,0.03414609655737877,-0.0372987762093544,0.8607082730871,1.1498491228014245,-0.9583611091835529
3.0050487518310547,-0.0020246505737304688,-0.05493432283401489,-0.004760146141052246,-0.35391417145729065,0.05551397055387497,-0.06657490879297256,0.8589447977509959,1.1474783688450754,-0.954592233400868
3.0151820182800293,-0.009803175926208496,-0.09086740016937256,-0.006148695945739746,-0.46343177556991577,0.08004452288150787,-0.07594646513462067,0.856521129969065,1.1442147246449506,-0.9493472694590955
3.0251569747924805,-0.013906240463256836,-0.1070820689201355,-0.008552223443984985,-0.4489271342754364,0.03519156575202942,-0.007857958786189556,0.8541799005442392,1.1402160290576149,-0.9431409820832446
3.0351767539978027,-0.003361940383911133,-0.06593102216720581,0.004352748394012451,-0.27922239899635315,-0.032014548778533936,0.018563900142908096,0.8526452145729305,1.1364586960802558,-0.9380925141995107
3.0452568531036377,0.01960092782974243,0.02257317304611206,0.0180741548538208,-0.16635312139987946,-0.09760021418333054,0.07937052845954895,0.8521631896254287,1.1333589111334552,-0.9348576583874548
3.0550737380981445,0.020065665245056152,0.038180768489837646,0.006761491298675537,-0.18892647325992584,-0.1141144335269928,0.12016802281141281,0.8523453740084231,1.1300698616475178,-0.9318578770580228
3.065307855606079,0.01574796438217163,-0.027290642261505127,-0.004506945610046387,-0.2832338213920593,-0.1167786568403244,0.11872458457946777,0.8524442437813397,1.1259235755633288,-0.927910023035892
3.075208902359009,0.009580016136169434,-0.08626747131347656,-0.019010573625564575,-0.41230592131614685,-0.1044207513332367,0.1248815581202507,0.8520476793177069,1.1206520816857273,-0.9223623020629239
3.085186004638672,0.002497255802154541,-0.10597258806228638,-0.030859261751174927,-0.569679856300354,-0.08549179881811142,0.1170731633901596,0.8510195156686596,1.114075176106859,-0.9148711086173436
3.0953359603881836,0.0006589293479919434,-0.11140382289886475,-0.03093564510345459,-0.7373307943344116,-0.06522110104560852,0.09965544939041138,0.8490787162537587,1.1060600942349132,-0.9052383702392681
3.1051578521728516,-0.0019114017486572266,-0.12025851011276245,-0.020632952451705933,-0.8362120985984802,-0.06649462878704071,0.10409893840551376,0.8463736481282996,1.0968272376321655,-0.8937905208019468
3.115262985229492,-0.005011618137359619,-0.1060556173324585,-0.0007652044296264648,-0.8066951632499695,-0.07465095818042755,0.11524399369955063,0.8434956870656996,1.087294410457155,-0.8819796072519461
3.1252408027648926,-0.005671560764312744,-0.039076805114746094,0.01573359966278076,-0.7548285126686096,-0.11867062002420425,0.15353013575077057,0.8410324433832034,1.0779062615364383,-0.8706727713686843
3.135240077972412,0.0015018582344055176,0.00807809829711914,0.025952816009521484,-0.8127252459526062,-0.16350014507770538,0.16228218376636505,0.8387544746779375,1.0680553903093124,-0.8593499314809295
3.145266056060791,0.007370650768280029,-0.020223140716552734,0.04484143853187561,-1.094301700592041,-0.1760960966348648,0.1456238478422165,0.8355241562884312,1.0563583504800542,-0.8459419655886367
3.1568617820739746,-0.0007454752922058105,-0.1388188600540161,0.06353679299354553,-1.5119284391403198,-0.21746745705604553,0.1714613139629364,0.8303685822343245,1.0412182985189435,-0.8280441416527254
3.1652419567108154,-0.01649653911590576,-0.2672961354255676,0.09677082300186157,-1.8987520933151245,-0.3472329080104828,0.18458110094070435,0.8231390425274366,1.021445478759708,-0.8049771711468784
3.175330877304077,-0.0061640143394470215,-0.3004661202430725,0.1586204469203949,-2.2163095474243164,-0.5419539213180542,0.18365032970905304,0.8136757416340474,0.9973534192473366,-0.7780027306937612
3.1852269172668457,-0.002588331699371338,-0.30790936946868896,0.2126556634902954,-2.466139316558838,-0.718734860420227,0.27084487676620483,0.8025045074938617,0.9692272625494504,-0.7479461746406876
3.195544958114624,-0.007084190845489502,-0.27656131982803345,0.2501615881919861,-2.617398738861084,-0.8610275387763977,0.36720097064971924,0.7903592493106476,0.9381407462808866,-0.7155334660778723
3.2076058387756348,-0.010230302810668945,-0.1926558017730713,0.21540844440460205,-2.784428358078003,-1.0062904357910156,0.46401646733283997,0.7773846979749165,0.9049614114502215,-0.6817148208368707
3.2153868675231934,0.016066431999206543,-0.15300703048706055,0.1619071066379547,-2.993180990219116,-1.1058567762374878,0.5648305416107178,0.763128185952989,0.8694233220062945,-0.6459234656238811
3.2254018783569336,0.05813884735107422,-0.1821678876876831,0.1539410948753357,-3.301680326461792,-1.2772457599639893,0.6906334757804871,0.7470962180534562,0.8314178333806073,-0.6077958747418494
3.2355029582977295,0.09463351964950562,-0.19294852018356323,0.14793682098388672,-3.6884636878967285,-1.4269680976867676,0.7826746106147766,0.7283826910934657,0.790124605383052,-0.566647751464115
3.245429039001465,0.14420217275619507,-0.18788981437683105,0.16080796718597412,-4.093903064727783,-1.5128343105316162,0.8323627710342407,0.7059603618398598,0.7467644753425945,-0.5230270730761875
3.2570948600769043,0.15860486030578613,-0.1931161880493164,0.16137480735778809,-4.48115873336792,-1.5507338047027588,0.8863465785980225,0.6795754184432464,0.702405683754022,-0.4776181478935713
3.2654569149017334,0.160129576921463,-0.14766937494277954,0.1688215732574463,-4.863044261932373,-1.5762850046157837,0.855458676815033,0.6487134403940127,0.6583735355574682,-0.43161398040838406
3.2754440307617188,0.1621038317680359,-0.11042553186416626,0.19360488653182983,-5.196084976196289,-1.6159141063690186,0.7601081728935242,0.6129576942510189,0.6157171398246342,-0.3863733922357756
3.285429000854492,0.16815072298049927,-0.10204392671585083,0.23229479789733887,-5.344630241394043,-1.6824352741241455,0.7175183892250061,0.5733407391090937,0.5751405731710757,-0.34334991791634806
3.2956528663635254,0.16874957084655762,-0.06058049201965332,0.24290335178375244,-5.370001316070557,-1.7029896974563599,0.7198752760887146,0.5314714510053639,0.53686892517687,-0.30279445304357866
3.3075499534606934,0.1649039089679718,0.0605502724647522,0.2300957441329956,-5.27952241897583,-1.723902940750122,0.6774452924728394,0.4886910684051577,0.5015355333382385,-0.26553668334981595
3.315717935562134,0.15582582354545593,0.09782838821411133,0.21427208185195923,-5.255823612213135,-1.7374601364135742,0.6593953967094421,0.4451994191778757,0.46883477287384995,-0.23137931855234461
3.326786994934082,0.1460220217704773,0.07049009203910828,0.217992901802063,-5.314827919006348,-1.7135473489761353,0.5674830079078674,0.4003929891362843,0.438548727686699,-0.19982834024027524
3.3355469703674316,0.12018972635269165,0.025052785873413086,0.24639391899108887,-5.516806602478027,-1.6691707372665405,0.31998276710510254,0.3529857657537585,0.41118141490103,-0.1714009552935996
3.345458984375,0.07708066701889038,-0.11114296317100525,0.30317866802215576,-5.928170204162598,-1.607356071472168,0.07986336946487427,0.3009253011713345,0.3866177894543013,-0.1460654079715966
3.3569908142089844,0.03155672550201416,-0.19035787880420685,0.3759787678718567,-6.421781539916992,-1.6598491668701172,-0.1702977865934372,0.24338871532440567,0.36413042721801375,-0.12304404346482552
3.365482807159424,-0.011020362377166748,-0.08646324276924133,0.4231676459312439,-6.807840347290039,-1.7281280755996704,-0.19646787643432617,0.18032050619629927,0.3426363339092274,-0.10146075380639681
3.3755698204040527,-0.03166213631629944,0.09600789844989777,0.40027594566345215,-6.979448318481445,-1.7691683769226074,-0.13722580671310425,0.11452286661588532,0.3219522053624202,-0.08024582821895761
3.385544776916504,-0.010341912508010864,0.19237200915813446,0.33027130365371704,-7.179543495178223,-1.8206063508987427,-0.19989930093288422,0.046530048627411426,0.30234339776269187,-0.05994802968015393
3.395659923553467,0.006973385810852051,0.13280066847801208,0.31115955114364624,-7.003243923187256,-1.7891976833343506,-0.2811783254146576,-0.02238306931051352,0.28399283941820574,-0.04167896879169851
3.406956911087036,0.0027960240840911865,0.03466468304395676,0.28281205892562866,-6.614919662475586,-1.7263662815093994,-0.35436466336250305,-0.0889725468509893,0.26725723408359825,-0.02615576240995995
3.415760040283203,-0.02439524233341217,0.04478593170642853,0.20603954792022705,-6.077779293060303,-1.6652412414550781,-0.40209928154945374,-0.15134783753772013,0.2517883782238258,-0.013430877245146772
3.4262259006500244,-0.050953492522239685,0.09767086803913116,0.15755361318588257,-5.519365310668945,-1.5514824390411377,-0.42827069759368896,-0.20866490999204604,0.23744950579645221,-0.003243394197426622
3.4357590675354004,-0.05472889542579651,0.06415662169456482,0.11005139350891113,-5.130448341369629,-1.3803457021713257,-0.43532076478004456,-0.2615382333925784,0.22466673332628237,0.004943692985386168
3.4459028244018555,-0.06596323847770691,0.04119047522544861,0.08665984869003296,-4.870948314666748,-1.2350308895111084,-0.5303460955619812,-0.31128554024887334,0.21339213112719718,0.01141864663923384
3.4569718837738037,-0.09417228400707245,0.03221586346626282,0.1185864806175232,-4.521920204162598,-1.2040376663208008,-0.5160607099533081,-0.3584687834774075,0.20294843146630762,0.016205284414297295
3.4659199714660645,-0.1217314749956131,0.015651613473892212,0.14739543199539185,-4.319514274597168,-1.1796330213546753,-0.4228726923465729,-0.4026245157676864,0.19267672890127716,0.020589391873529546
3.475770950317383,-0.06862080097198486,0.0177173912525177,0.14908623695373535,-4.11929178237915,-1.2580686807632446,-0.38964664936065674,-0.4450233998250504,0.18221732662822257,0.02490082820294396
3.4856648445129395,-0.011435911059379578,0.03712788224220276,0.1514487862586975,-3.893355369567871,-1.267021656036377,-0.36925509572029114,-0.4851441078053489,0.1711785954456044,0.02858996171809779
3.4957590103149414,-0.0008839666843414307,-0.0032543838024139404,0.1084321141242981,-3.709134340286255,-1.1915611028671265,-0.32091429829597473,-0.5231984847472713,0.16040318301128453,0.03184000067162279
3.5070979595184326,-0.011032164096832275,-0.002568364143371582,0.025679171085357666,-3.557645320892334,-1.0603975057601929,-0.26857173442840576,-0.5595948920595823,0.15075077511214502,0.03500965290412748
3.5157570838928223,-0.01935717463493347,5.120038986206055e-05,-0.0322490930557251,-3.422031879425049,-0.9059643149375916,-0.22657187283039093,-0.594505199834985,0.14261482397887415,0.038177141386678534
3.525747776031494,-0.02607538551092148,-0.03328937292098999,-0.06012076139450073,-3.2720348834991455,-0.731174647808075,-0.20156878232955933,-0.6280273262599935,0.1361878540694262,0.041287387997156685
3.5357308387756348,-0.04988203942775726,-0.06519335508346558,-0.0517238974571228,-3.0928099155426025,-0.5676946043968201,-0.19538098573684692,-0.6599089164930318,0.13140341955333312,0.044154618341820794
3.5461678504943848,-0.08095219731330872,-0.0917431116104126,-0.01788806915283203,-2.8137645721435547,-0.408779501914978,-0.19381345808506012,-0.6895129241982118,0.12805286913997174,0.046587076736746544
3.557765007019043,-0.10468720644712448,-0.10417729616165161,0.01689279079437256,-2.4833924770355225,-0.258063942193985,-0.16846434772014618,-0.716108345459823,0.12602107948514427,0.04859412745824182
3.565889835357666,-0.11272083967924118,-0.08197230100631714,0.026985883712768555,-2.084965229034424,-0.1139080822467804,-0.12055729329586029,-0.7390294060324284,0.1254395511092286,0.05050156201469121
3.575821876525879,-0.10388991981744766,-0.02338176965713501,0.024983108043670654,-1.6343852281570435,0.015147726982831955,-0.04624747857451439,-0.7576278800678083,0.12635024199514316,0.052534223174224244
3.5857748985290527,-0.08915797621011734,0.029194414615631104,0.01695781946182251,-1.1315330266952515,0.14114560186862946,0.061974331736564636,-0.7713567749681487,0.12888227239617997,0.0550544363213948
3.5959489345550537,-0.0773157998919487,0.07468909025192261,0.006095707416534424,-0.6572497487068176,0.26661092042922974,0.18054363131523132,-0.7800440403147507,0.13323718154648417,0.058374007608569325
3.61103892326355,-0.07385309785604477,0.12380272150039673,-0.011383056640625,-0.2419111132621765,0.3859698176383972,0.29266005754470825,-0.784136919088112,0.13944097598588692,0.06253581650525852
3.6169419288635254,-0.0744352713227272,0.16298872232437134,-0.021700501441955566,0.0635041818022728,0.483227401971817,0.3914942145347595,-0.7844366268222048,0.14734967896845505,0.06752655184710084
3.6257638931274414,-0.07021095603704453,0.17045331001281738,-0.02244359254837036,0.25682786107063293,0.5471837520599365,0.4307364225387573,-0.7821927871704989,0.15635692920233873,0.07297481771501614
3.635894775390625,-0.06680838018655777,0.14816206693649292,-0.002736210823059082,0.3968029320240021,0.6218116879463196,0.4280368387699127,-0.7782185671248268,0.16589675045494448,0.07819740374518493
3.6459760665893555,-0.07213777303695679,0.10658109188079834,0.017804503440856934,0.43984121084213257,0.6713057160377502,0.4024779498577118,-0.7733249291948012,0.17572446205257422,0.08296558010907118
3.6590728759765625,-0.07236196100711823,0.11317116022109985,0.015005350112915039,0.43133097887039185,0.7132531404495239,0.3553043305873871,-0.7683072697594393,0.18553134110582198,0.08707665276746301
3.6659297943115234,-0.06017640233039856,0.1333431601524353,0.007140696048736572,0.3897254765033722,0.7407822608947754,0.30155426263809204,-0.76364963154869,0.1951773350597386,0.09047896807345943
3.676002025604248,-0.041114404797554016,0.1384158730506897,-0.0062424540519714355,0.37714970111846924,0.7596194744110107,0.2471701204776764,-0.7593606756832244,0.20453946802990702,0.09315599577864234
3.6861038208007812,-0.027729853987693787,0.14784032106399536,-0.019808650016784668,0.39847761392593384,0.7712380290031433,0.19419638812541962,-0.7551270192824132,0.21349593250511467,0.09502602840054616
3.695970058441162,-0.020500779151916504,0.15983480215072632,-0.037073373794555664,0.47003355622291565,0.7774783372879028,0.1407976746559143,-0.7505671614841252,0.22191439807305158,0.09599566045143526
3.707620859146118,-0.014570191502571106,0.16564160585403442,-0.04297870397567749,0.5778500437736511,0.7803430557250977,0.09724113345146179,-0.745185716778709,0.22970126646915653,0.09596896830226226
3.716001033782959,-0.010766670107841492,0.15829086303710938,-0.04890131950378418,0.6854655146598816,0.7674357295036316,0.057129405438899994,-0.7388459624327537,0.23680435024692995,0.09500133820132274
3.7260260581970215,-0.0075426846742630005,0.1502794623374939,-0.046357154846191406,0.7725905179977417,0.7440044283866882,0.011528095230460167,-0.73166631859968,0.2431099641949518,0.09311783321181295
3.7360048294067383,-0.001751244068145752,0.12969869375228882,-0.026215314865112305,0.8711549043655396,0.7232472896575928,-0.02744167484343052,-0.7237127737491466,0.2485892403729424,0.0903117407069224
3.746032953262329,0.0022398531436920166,0.09917205572128296,-0.0013762712478637695,0.9353837370872498,0.6963490843772888,-0.04001045972108841,-0.7150023398857518,0.2534478505985272,0.08687429931964977
3.7577648162841797,0.004378706216812134,0.09687137603759766,0.006698131561279297,0.9532264471054077,0.658091127872467,-0.05018096789717674,-0.7059399074613686,0.2577938439953172,0.08314611078906944
3.7661900520324707,0.003811463713645935,0.10842972993850708,0.012760639190673828,0.9131932854652405,0.625816822052002,-0.05048296973109245,-0.6970011930875384,0.26176363535487784,0.0793359381759745
3.7760539054870605,7.41034746170044e-05,0.08370190858840942,0.013703644275665283,0.8281887173652649,0.607454240322113,-0.0406436026096344,-0.6886832229727782,0.2656700375292366,0.0758062615679914
3.7860140800476074,-0.004562854766845703,0.044885873794555664,0.006410717964172363,0.7080146670341492,0.5890664458274841,-0.034956157207489014,-0.6813504911275864,0.2697046191294471,0.07271417969472765
3.796175003051758,-0.011748626828193665,0.016775429248809814,-0.004504144191741943,0.5864576101303101,0.5703734755516052,-0.030780212953686714,-0.6752020297650735,0.2738557826328357,0.07006672626093377
3.8080129623413086,-0.016214698553085327,-0.003997683525085449,-0.012457609176635742,0.47494015097618103,0.55014967918396,-0.014469416812062263,-0.6701763059582614,0.2781293012514071,0.06793818459034187
3.816267967224121,-0.010872289538383484,-0.011554360389709473,-0.021188020706176758,0.4041460454463959,0.5106654167175293,-0.006890965159982443,-0.6660017362791975,0.28241740349441513,0.06627625245334022
3.8261189460754395,-0.003893539309501648,-0.009742259979248047,-0.026125669479370117,0.3752126693725586,0.4539060592651367,-0.009584752842783928,-0.6623052294712641,0.2863490181815606,0.06481363142738962
3.8361430168151855,-0.0038641542196273804,-0.012319505214691162,-0.02557474374771118,0.36633986234664917,0.38868775963783264,-0.01592046581208706,-0.6587865593908214,0.28965191681348873,0.06332237750933967
3.8461358547210693,-0.0006782561540603638,-0.024789035320281982,-0.02406865358352661,0.35423046350479126,0.32202428579330444,-0.02141510136425495,-0.65537931649573,0.29226880146118867,0.06178354153890327
3.8576598167419434,0.005438908934593201,-0.030460238456726074,-0.028565049171447754,0.3248623311519623,0.2585517466068268,-0.023352069780230522,-0.6521819995484365,0.29424201977501585,0.06026235165513249
3.8661999702453613,0.011000320315361023,-0.03184497356414795,-0.029497504234313965,0.29062607884407043,0.20647786557674408,-0.01548535842448473,-0.6493004824738985,0.29573066063116504,0.05889727398999322
3.8762030601501465,0.015353336930274963,-0.03417491912841797,-0.022832393646240234,0.2604876458644867,0.1685551255941391,-0.00674491748213768,-0.6466918649158977,0.29690303969478976,0.05774710476052419
3.886112928390503,0.01041102409362793,-0.03542906045913696,-0.017067432403564453,0.21219442784786224,0.14013893902301788,0.004585235379636288,-0.6444031911456859,0.297911143345522,0.05686125728610929
3.896145820617676,0.006763026118278503,-0.03862881660461426,-0.018693268299102783,0.14013342559337616,0.11539745330810547,0.011445644311606884,-0.6426998367151542,0.2988567461651781,0.05632176704765955
3.907118797302246,0.008451640605926514,-0.04944443702697754,-0.016365885734558105,0.07933025807142258,0.10725084692239761,0.023050101473927498,-0.6416101526521067,0.29984823398789284,0.05613445887241454
3.9164419174194336,0.006312191486358643,-0.06525218486785889,-0.01000756025314331,0.04295402020215988,0.10592641681432724,0.034938983619213104,-0.6409622571037777,0.30097840631593636,0.056253555589537346
3.926835060119629,0.003051772713661194,-0.05773210525512695,-0.009983837604522705,0.02945924922823906,0.1017223447561264,0.04437962546944618,-0.6405086174368124,0.30222224601866043,0.056586559726036385
3.9363839626312256,0.004560932517051697,-0.04163980484008789,-0.009512484073638916,0.016173839569091797,0.08225730061531067,0.053187284618616104,-0.6401541917065825,0.30345735062624657,0.05709502335966832
3.9464149475097656,0.01071976125240326,-0.0401310920715332,-0.0050907135009765625,0.02744034305214882,0.07114366441965103,0.05817698314785957,-0.639795147073618,0.30457721463413356,0.05768402022776419
3.957200050354004,0.013959482312202454,-0.04828238487243652,0.009347677230834961,0.05125429481267929,0.05681611970067024,0.05403118580579758,-0.6392475065006701,0.3055391784942997,0.0582198801984174
3.9663500785827637,0.013425037264823914,-0.041549742221832275,0.014256596565246582,0.06811796128749847,0.044614315032958984,0.05598994344472885,-0.6385018137127046,0.3063015996347785,0.05865608926228198
3.9763338565826416,0.014956966042518616,-0.01918095350265503,0.010761439800262451,0.07640400528907776,0.041844140738248825,0.061306726187467575,-0.6376287617469069,0.30696544955155736,0.05906567546207387
3.986311912536621,0.019702613353729248,-0.015285491943359375,0.003644704818725586,0.08208505809307098,0.04818379506468773,0.0646338164806366,-0.636370375009188,0.3076654504365375,0.059505470206384484
3.9963538646698,0.021942779421806335,-0.017742693424224854,-0.003429412841796875,0.09113357216119766,0.05760575085878372,0.06737980246543884,-0.6349678816218836,0.30845432304821807,0.05995667172511727
4.007227897644043,0.02056419849395752,-0.01171022653579712,-0.006939411163330078,0.11308041214942932,0.055805452167987823,0.07278122752904892,-0.6334648700568319,0.3092417796520277,0.060380281489113376
4.016490936279297,0.02266426384449005,-0.0025461316108703613,-0.007859587669372559,0.13928084075450897,0.04414946213364601,0.07449214905500412,-0.6318078844836907,0.30995313224799187,0.06076132634037959
4.027082920074463,0.027409881353378296,0.00337141752243042,-0.0028131604194641113,0.1861570030450821,0.027705242857336998,0.07448096573352814,-0.6298273994286069,0.31052103394866865,0.061054093492225056
4.036272048950195,0.03060084581375122,0.003140091896057129,0.006428241729736328,0.22906675934791565,0.0015510022640228271,0.07935646921396255,-0.6273968360973381,0.3108626603842836,0.06123008565414097
4.0468809604644775,0.032652273774147034,0.002005338668823242,0.008655548095703125,0.22935305535793304,-0.02942076325416565,0.0775710865855217,-0.6248239671782303,0.31086925016072436,0.061357555550535264
4.057389736175537,0.03398387134075165,0.0006407499313354492,0.005183696746826172,0.2078593522310257,-0.03486763685941696,0.08113902062177658,-0.6224823893176067,0.31073746039352895,0.06153509184649002
4.0664589405059814,0.03761051595211029,-0.013580739498138428,0.002392113208770752,0.1784612536430359,-0.04075668752193451,0.08812183141708374,-0.6203808166789017,0.3106942300836839,0.06191084181128402
4.076438903808594,0.035962432622909546,-0.017660796642303467,-0.006637156009674072,0.13314305245876312,-0.05580217018723488,0.08859172463417053,-0.6185701474443996,0.3106538472081309,0.062479782352951964
4.08707594871521,0.030472218990325928,-0.019570529460906982,-0.008608996868133545,0.08201222866773605,-0.06434345990419388,0.09131267666816711,-0.6172439411421262,0.31060303755469126,0.0632223451290792
4.096520900726318,0.03044244647026062,-0.0306970477104187,-0.002939581871032715,0.03731783851981163,-0.07940838485956192,0.08333437144756317,-0.6164618391887255,0.3105222934654675,0.06413113146431518
4.108710765838623,0.027349427342414856,-0.03657609224319458,0.0028707385063171387,0.0066986787132918835,-0.09948382526636124,0.07131978869438171,-0.6160745397754414,0.3103499137406526,0.06509377402632267
4.116552829742432,0.023226484656333923,-0.03971564769744873,0.006646931171417236,-0.01721372827887535,-0.11767982691526413,0.062000587582588196,-0.6160138590740803,0.3100260036860142,0.06607300005950871
4.126384735107422,0.0237923264503479,-0.036655545234680176,0.010779142379760742,-0.03231518343091011,-0.13132666051387787,0.053409233689308167,-0.6161532170522062,0.30954554855101246,0.06702417798492366
4.136520862579346,0.02511480450630188,-0.03148519992828369,0.008351624011993408,-0.05354605242609978,-0.14103969931602478,0.05427582561969757,-0.6164179430376584,0.30896414599458133,0.06800260721229263
4.146543979644775,0.02436688542366028,-0.02117067575454712,0.00035184621810913086,-0.07648146152496338,-0.13769157230854034,0.05840692296624184,-0.6167737842741959,0.30843631932622945,0.06911068133922356
4.157382965087891,0.019115939736366272,-0.01898646354675293,-0.003361821174621582,-0.09530927240848541,-0.13078653812408447,0.06202898174524307,-0.617257524608505,0.30799831740986466,0.07031827926302431
4.166525840759277,0.012385129928588867,-0.029064536094665527,-0.003472566604614258,-0.09313374012708664,-0.11159419268369675,0.06426603347063065,-0.6177904777594567,0.30768877782071025,0.07156621934972084
4.1765968799591064,0.0022623389959335327,-0.03073716163635254,-0.0020598173141479492,-0.06998314708471298,-0.09238313138484955,0.0730087086558342,-0.6181202730428635,0.3075944756051178,0.07284118538023739
4.186663866043091,-0.005390271544456482,-0.022825777530670166,-0.0021396279335021973,-0.054718177765607834,-0.07924575358629227,0.0836203396320343,-0.6182235570534166,0.30768700182311026,0.07414335637609462
4.196629047393799,-0.009852781891822815,-0.014173328876495361,-0.0010260343551635742,-0.026731615886092186,-0.06385960429906845,0.09370030462741852,-0.6180916443298986,0.3079215155418642,0.07548125766137825
4.207761764526367,-0.014606788754463196,-0.017618298530578613,0.005149722099304199,-0.009395236149430275,-0.057807303965091705,0.09921171516180038,-0.6177503538010223,0.3082678413190126,0.07682830529473046
4.217124938964844,-0.02175241708755493,-0.021939992904663086,0.011494159698486328,0.01325241755694151,-0.050395552068948746,0.10052135586738586,-0.6172680006976264,0.3086163214749626,0.07811989777733352
4.226629734039307,-0.02434810996055603,-0.021451115608215332,0.021255075931549072,0.018301505595445633,-0.05474662408232689,0.09897991269826889,-0.6166873372017658,0.3088798368985831,0.07931016751779645
4.236618995666504,-0.025058552622795105,-0.018763840198516846,0.02326381206512451,0.01885482855141163,-0.05701026692986488,0.08927039802074432,-0.6161429131658345,0.3090032710416299,0.0803952493927818
4.246686935424805,-0.022090882062911987,-0.01681894063949585,0.026834428310394287,0.010063199326395988,-0.057914942502975464,0.09043313562870026,-0.6156295476916446,0.30903464810063674,0.08140720631602562
4.257370948791504,-0.019665494561195374,-0.01861661672592163,0.0230637788772583,-0.013904400169849396,-0.057794079184532166,0.0893019363284111,-0.6152897206675341,0.30905702641280597,0.08246198370000743
4.2666850090026855,-0.0184033066034317,-0.008355975151062012,0.01863187551498413,-0.039055295288562775,-0.04691879451274872,0.08958529680967331,-0.6152253712260266,0.30916569257164356,0.08359253957730035
4.276665925979614,-0.017403975129127502,-0.004441797733306885,0.014060139656066895,-0.057317569851875305,-0.02895253524184227,0.09816195070743561,-0.615383868607929,0.3094664830865039,0.08484141067058994
4.286677837371826,-0.017958655953407288,-0.0019165873527526855,0.0078018903732299805,-0.06191232427954674,-0.00962916947901249,0.10038675367832184,-0.6156363215624837,0.31002107365260706,0.08619301062404823
4.297039031982422,-0.019295737147331238,0.002460479736328125,0.002966761589050293,-0.05955204740166664,0.0072871847078204155,0.10335943102836609,-0.6158819837411724,0.31075652535490494,0.08756069871185802
4.308060884475708,-0.022060692310333252,0.009643971920013428,0.0029389262199401855,-0.06271269172430038,0.015146706253290176,0.10484068095684052,-0.6161478326210219,0.3116262183618402,0.08896706502526741
4.316840887069702,-0.02386447787284851,0.01602083444595337,0.00881350040435791,-0.05730602145195007,0.01798860915005207,0.0983610451221466,-0.6163925258854686,0.31255082459446665,0.09034131379866485
4.32689905166626,-0.025203227996826172,0.011540472507476807,0.02061617374420166,-0.06041473150253296,0.014712388627231121,0.0876854956150055,-0.6166847895155213,0.31339898306017094,0.09161476652063098
4.336705923080444,-0.028090059757232666,0.010495483875274658,0.030138015747070312,-0.06867099553346634,0.009335643611848354,0.06963784247636795,-0.6170492721988097,0.3141159887346913,0.09272948854253375
4.3468427658081055,-0.027444392442703247,0.012900054454803467,0.037895798683166504,-0.08341026306152344,-0.00028955284506082535,0.05464717745780945,-0.6175809986742808,0.3146850748685392,0.09370330420380445
4.358417987823486,-0.02566799521446228,0.018615305423736572,0.034748852252960205,-0.1021098643541336,-0.001048509031534195,0.04247615858912468,-0.6183194365721648,0.3151431864196822,0.09458854748976997
4.366793870925903,-0.024374008178710938,0.02101808786392212,0.026945114135742188,-0.1267337203025818,0.005416580475866795,0.028439434245228767,-0.6193222236666011,0.31557707808112867,0.09540205778809367
4.376784801483154,-0.022237807512283325,0.019612550735473633,0.01929914951324463,-0.13672597706317902,0.012341286987066269,0.020366115495562553,-0.6205241420092275,0.3160349364357283,0.09613866132830921
4.3867199420928955,-0.020317554473876953,0.024632573127746582,0.011332154273986816,-0.12808534502983093,0.02168179117143154,0.01060030423104763,-0.6217814915416977,0.3164903717918589,0.09676073152395259
4.396871089935303,-0.02125602960586548,0.026449978351593018,0.009855687618255615,-0.09716475009918213,0.030261164531111717,0.003699201624840498,-0.6229250463278532,0.31692733752705937,0.09720478888763104
4.407516002655029,-0.021891355514526367,0.026087522506713867,0.007811903953552246,-0.05662691593170166,0.03154774010181427,0.00028982257936149836,-0.6237473024859451,0.31729217384358666,0.09743709531190085
4.416898965835571,-0.021924644708633423,0.027247726917266846,0.0069029927253723145,-0.01640702411532402,0.032355476170778275,-0.004483840428292751,-0.624273071033818,0.3174992976530948,0.09744909281201952
4.4271628856658936,-0.01824665069580078,0.02557319402694702,0.008339107036590576,0.01634027063846588,0.02986195683479309,-0.008000810630619526,-0.6244939575434746,0.3176102070718579,0.09728014103084724
4.437087059020996,-0.014446914196014404,0.021587908267974854,0.008638858795166016,0.040571972727775574,0.03256568685173988,-0.005499197170138359,-0.624478500016445,0.31766555585264905,0.09701481054956193
4.447059869766235,-0.011807113885879517,0.01979905366897583,0.00991964340209961,0.054954107850790024,0.029729420319199562,-0.007248893845826387,-0.6242572907194522,0.3176724972237906,0.09666435514734846
4.457550048828125,-0.010312020778656006,0.019953906536102295,0.0071010589599609375,0.06743236631155014,0.03357072174549103,-0.00966976024210453,-0.6238783907608269,0.3176425040871191,0.09624341950919936
4.466928005218506,-0.009763956069946289,0.016626834869384766,0.005760312080383301,0.07444579899311066,0.03573374077677727,-0.01639930158853531,-0.623428063935094,0.317596963630927,0.09573594399900012
4.476959943771362,-0.008075714111328125,0.007792055606842041,0.0008591413497924805,0.0797610729932785,0.03385256975889206,-0.02120646834373474,-0.6229582395486162,0.3174930781542286,0.09512902638064337
4.486947059631348,-0.006426632404327393,0.0031851530075073242,-0.004589676856994629,0.08672284334897995,0.033278126269578934,-0.023409966379404068,-0.6224306940487552,0.3173276651552474,0.09444866307914136
4.497092962265015,-0.004195570945739746,0.0036470890045166016,-0.008304595947265625,0.07649187743663788,0.024060215801000595,-0.027111176401376724,-0.6219373808457749,0.31710844477336825,0.09375200414270712
4.507970809936523,-0.0027123093605041504,0.004207730293273926,-0.010123968124389648,0.06656627357006073,0.020933400839567184,-0.02587387152016163,-0.6215292254622989,0.3168701259148435,0.09309190737188572
4.516969919204712,-0.0034667551517486572,-0.0027117133140563965,-0.007977545261383057,0.039738819003105164,0.01180292945355177,-0.0235428586602211,-0.6212753709711444,0.31666128165475177,0.0925437999341572
4.527034759521484,-0.003482222557067871,-0.005708634853363037,-0.01122438907623291,0.006361423060297966,0.006005227565765381,-0.02197372540831566,-0.6213017463531907,0.31647026250699895,0.0921455475376137
4.537008762359619,-0.001321256160736084,-0.007130026817321777,-0.011575937271118164,-0.02224079519510269,-0.004244125448167324,-0.020379183813929558,-0.6216048749149439,0.3162921026151772,0.09188775525988963
4.547208786010742,0.00125044584274292,-0.01451653242111206,-0.010863721370697021,-0.027244340628385544,-0.014055476523935795,-0.017482196912169456,-0.6220382495020386,0.316086807415521,0.09174091261838424
4.558268070220947,0.002619713544845581,-0.015370368957519531,-0.005967080593109131,-0.017556143924593925,-0.026969633996486664,-0.013967037200927734,-0.6223753459326858,0.31577588032695647,0.09161145241488217
4.5672478675842285,0.0013020038604736328,-0.00864708423614502,-0.001967132091522217,-0.0029692118987441063,-0.03796875476837158,-0.007412465289235115,-0.622514040933297,0.3153413149926847,0.091490043748686
4.578242778778076,0.0003985464572906494,-0.005795121192932129,0.0006092190742492676,0.009552654810249805,-0.048062536865472794,-0.0043377927504479885,-0.6224782828420369,0.31482348214884515,0.09138390021635281
4.5869550704956055,0.00174635648727417,-0.008932709693908691,0.0006401538848876953,0.014951415359973907,-0.05060958489775658,-0.001943877199664712,-0.6223585696866557,0.3142360077433893,0.09128379378810703
4.597087860107422,0.0013394355773925781,-0.014007925987243652,0.0015718936920166016,0.01644148677587509,-0.04464365541934967,-0.0007856684969738126,-0.6221634391541888,0.31369041512929097,0.09119349542680091
4.60906195640564,-0.0017059743404388428,-0.017303466796875,0.0004988908767700195,0.016863863915205002,-0.03617400303483009,0.004154495429247618,-0.6219376993390988,0.3132350210780185,0.09112139193782154
4.617077827453613,-0.004895985126495361,-0.016063034534454346,0.0012801885604858398,0.01755210943520069,-0.024253830313682556,0.008980675600469112,-0.6216880887177549,0.31292176135690514,0.09111407634843866
4.627257823944092,-0.006303310394287109,-0.014470696449279785,0.0013722777366638184,0.023660602048039436,-0.013521557673811913,0.01209923718124628,-0.6213436244187911,0.3127676123077667,0.09116677517530165
4.637142896652222,-0.006822317838668823,-0.015187442302703857,0.0021584033966064453,0.0276808924973011,-0.004710888024419546,0.01888640969991684,-0.6209490547029246,0.312755445075317,0.0912586321085261
4.6471757888793945,-0.006071001291275024,-0.012882471084594727,0.0024433135986328125,0.0333331860601902,0.005549205932766199,0.022182071581482887,-0.620554005996918,0.31285651492757505,0.09140036574969122
4.657577037811279,-0.004541456699371338,-0.008467376232147217,0.00508803129196167,0.036584287881851196,0.007007508538663387,0.027193395420908928,-0.6201349316736681,0.3130308596214846,0.09157818390985205
4.667212009429932,-0.0020315945148468018,-0.0044405460357666016,0.007444143295288086,0.041342560201883316,0.0066043054684996605,0.028938565403223038,-0.6196494199043505,0.31322434846491226,0.09177811206478087
4.677252769470215,0.00037172436714172363,-0.0033420324325561523,0.008809149265289307,0.04479309916496277,0.00281458324752748,0.029540440067648888,-0.619087350605269,0.31339976019240384,0.09196256537665089
4.687344074249268,0.0031820833683013916,-0.0012574195861816406,0.008138656616210938,0.04492812231183052,-0.0077469805255532265,0.023325687274336815,-0.6185137853418131,0.3134411003206478,0.09209314807624222
4.697567939758301,0.008467793464660645,0.0035669803619384766,0.009612977504730225,0.04730985686182976,-0.01422201283276081,0.015207626856863499,-0.6179675371867895,0.313326903849606,0.09212440550086384
4.707542896270752,0.0077897608280181885,0.0022982358932495117,0.01076650619506836,0.04401819035410881,-0.01946124993264675,0.012293594889342785,-0.6174462607246869,0.3130975026859849,0.09207898793920208
4.717236042022705,0.005667328834533691,0.005387663841247559,0.007121682167053223,0.03785618022084236,-0.022573020309209824,0.00874509196728468,-0.6169884411100822,0.3128172389783929,0.09201640549979279
4.727179050445557,0.00358697772026062,0.007850348949432373,0.00593644380569458,0.03162891045212746,-0.0209218617528677,0.007926437072455883,-0.6166068895214848,0.3125398154415953,0.09196538451322968
4.737231969833374,0.0019188523292541504,0.0022827982902526855,0.005515575408935547,0.020707005634903908,-0.015444137156009674,0.010347889736294746,-0.6163240675624158,0.3123438319939529,0.0919703874373453
4.747364044189453,-0.0004208087921142578,-0.000685274600982666,0.005895853042602539,0.015114899724721909,-0.011430753394961357,0.01025201566517353,-0.6161467394831005,0.3122508769549561,0.09203160793318443
4.757637023925781,-0.002188950777053833,-0.0022176504135131836,0.009707093238830566,0.018565591424703598,-0.003909009974449873,0.014682183973491192,-0.6159864229120142,0.31225112057518634,0.09213199936753874
4.767193794250488,-0.0017089247703552246,-0.0038101673126220703,0.010429561138153076,0.032864369451999664,-0.005137260537594557,0.014149818569421768,-0.6157315684316911,0.3123017510401057,0.0922394199536761
4.777245044708252,-0.0017114877700805664,-0.0017827153205871582,0.009168505668640137,0.04488055035471916,-0.008804965764284134,0.011607032269239426,-0.615378872459522,0.3123227022326929,0.09230214668070061
4.7872090339660645,0.0002028048038482666,0.0006082057952880859,0.011293411254882812,0.05866800248622894,-0.011946963146328926,0.007886862382292747,-0.614898861128617,0.31226316342421523,0.09227556909596758
4.79742693901062,0.0001806318759918213,-0.0006969571113586426,0.007371842861175537,0.06345263868570328,-0.019836312159895897,-0.0009215428726747632,-0.6143485674889012,0.31206818443220286,0.092122358994935
4.807771921157837,0.0015243589878082275,-0.0002601742744445801,0.0036928653717041016,0.07104584574699402,-0.03271216154098511,-0.005579944234341383,-0.6137768735264242,0.3116820073317919,0.09185613179537223
4.817237854003906,0.00487595796585083,0.0008157491683959961,0.0026811957359313965,0.06950387358665466,-0.03985103219747543,-0.0073192548006772995,-0.6131700561728467,0.31113964844553466,0.09152164560840415
4.827244758605957,0.003922820091247559,-0.0019916296005249023,0.00011843442916870117,0.058918338268995285,-0.04819924384355545,-0.004445703700184822,-0.6126101991518522,0.31053247512336873,0.09121197280534968
4.837341785430908,0.0034709572792053223,-0.004067361354827881,0.0002161264419555664,0.04277300834655762,-0.0525006502866745,-0.0010094272438436747,-0.6121819478126733,0.30991931004846607,0.09098890663748646
