timestamp,accel_x,accel_y,accel_z,rotation_x,rotation_y,rotation_z, pitch,roll,yaw
0.03509378433227539,-0.026384100317955017,-0.01645372062921524,0.011409878730773926,0.006901878397911787,0.0003228406421840191,0.013238644227385521,-0.10941480077296285,0.19129856616174504,0.010507867952447871
0.049608707427978516,-0.03164626657962799,-0.02261059731245041,0.013770818710327148,-0.00534253753721714,0.005403352901339531,0.010998393408954144,-0.10937637718079261,0.19134249025836522,0.01063489211797537
0.06185102462768555,-0.031509459018707275,-0.023656025528907776,0.013968229293823242,-0.006957445293664932,0.005550271365791559,0.010687336325645447,-0.10941495199224699,0.1914063997284153,0.010759937703255427
0.06407499313354492,-0.027708083391189575,-0.020336367189884186,0.011556923389434814,-0.0034322189167141914,0.005635492503643036,0.010215157642960548,-0.10945245626154468,0.19146775252840398,0.010870740469033855
0.0716409683227539,-0.027091562747955322,-0.016901418566703796,0.006998181343078613,0.00207469891756773,0.007941700518131256,0.00977547001093626,-0.10943536512434235,0.1915392341620927,0.010967196405211741
0.07710504531860352,-0.02917078137397766,-0.01706063002347946,0.006027340888977051,0.0037327827885746956,0.0068588596768677235,0.009840184822678566,-0.10938063373407154,0.19162040245924578,0.01105238186086363
0.08693504333496094,-0.03136955201625824,-0.018144942820072174,0.0057566165924072266,0.005582714453339577,0.01219787634909153,0.006293493323028088,-0.10932017681137202,0.1917144568071579,0.011120363970834745
0.0969078540802002,-0.03081071376800537,-0.018307670950889587,0.0049762725830078125,0.0053891027346253395,0.013504689559340477,0.007394177373498678,-0.10925362160664406,0.1918440028876541,0.011179139372802011
0.10697293281555176,-0.03288605809211731,-0.01920262724161148,0.001983165740966797,0.0060227857902646065,0.013671713881194592,0.005720381159335375,-0.10917153090515312,0.1919831683309735,0.01123404257271463
0.11695671081542969,-0.03141601383686066,-0.020464129745960236,0.00021183490753173828,0.008831887505948544,0.012086600065231323,0.0018721130909398198,-0.10908976414287473,0.19211681808808664,0.011268928103215769
0.12685680389404297,-0.032636553049087524,-0.022129394114017487,-0.0004533529281616211,0.010440437123179436,0.009295874275267124,0.0012734344927594066,-0.10898438362154599,0.1922238757566149,0.011267281211347095
0.1369767189025879,-0.033425673842430115,-0.02092874050140381,-0.0011731982231140137,0.009457464329898357,0.007333124056458473,-0.0014509792672470212,-0.10888176147627593,0.19229544927235645,0.011243059533022678
0.14712786674499512,-0.03266496956348419,-0.023857511579990387,-0.0032076239585876465,0.0112532339990139,0.010220257565379143,-0.0022885433863848448,-0.1087887421983417,0.1923739488358594,0.011205129946258259
0.15712690353393555,-0.03326523303985596,-0.024688541889190674,-0.004800558090209961,0.010322725400328636,0.009263915941119194,0.0012848860351368785,-0.10867304139238415,0.19247060942997168,0.011183470853480834
0.16724491119384766,-0.03197723627090454,-0.022352129220962524,-0.006218254566192627,0.010476123541593552,0.003231057431548834,0.0033472380600869656,-0.10856377209093995,0.19252442845054088,0.011187026904576604
0.17733192443847656,-0.03172823786735535,-0.021529465913772583,-0.007016897201538086,0.013224571943283081,0.0018699157517403364,0.00512846652418375,-0.10842695081207523,0.19254782149531477,0.011197115447808178
0.18726396560668945,-0.03134395182132721,-0.021843641996383667,-0.006779193878173828,0.011569367721676826,0.0036248057149350643,0.0050496906042099,-0.10829786597770484,0.19257347374219708,0.011223139102903316
0.19730186462402344,-0.03339272737503052,-0.021823592483997345,-0.007749319076538086,0.010787995532155037,0.006265596486628056,0.007339742965996265,-0.10787863780020138,0.19213098131590398,0.011209935809208902
0.20737171173095703,-0.029707133769989014,-0.02127857506275177,-0.009517908096313477,0.011228865943849087,-0.001437108963727951,0.004822203423827887,-0.10743788372492573,0.19164425706702554,0.011189337564774204
0.21725988388061523,-0.025464817881584167,-0.019812561571598053,-0.006285488605499268,0.006810680963099003,-0.010714496485888958,0.007215053774416447,-0.10703768081122993,0.1910727693112453,0.01118036827301886
0.22723388671875,-0.022399142384529114,-0.017673499882221222,-0.008414685726165771,0.0007068992126733065,-0.018347959965467453,0.008320052176713943,-0.10665117422469139,0.19044093261645062,0.011205687380824773
0.23716187477111816,-0.019772827625274658,-0.017959758639335632,-0.006618499755859375,-0.004537397529929876,-0.023664694279432297,0.008429774083197117,-0.10630989589231339,0.18976010724204018,0.011247270671558923
0.24732184410095215,-0.020082637667655945,-0.020861655473709106,-0.003582179546356201,-0.01125410571694374,-0.02555735781788826,0.004746782127767801,-0.10608245313122994,0.18907270272509868,0.011277651753186067
0.2572789192199707,-0.02315497398376465,-0.01936272531747818,-0.001774907112121582,-0.014657892286777496,-0.026373084634542465,0.002685762010514736,-0.1059254225256618,0.18838759861810914,0.01130539695000783
0.26746273040771484,-0.02317391335964203,-0.0181325301527977,0.0022363662719726562,-0.014942001551389694,-0.021961692720651627,-0.001595855224877596,-0.1057931159124204,0.1877326381758018,0.011298691900958687
0.27734375,-0.025338903069496155,-0.016978241503238678,0.004008829593658447,-0.013095632195472717,-0.012070711702108383,-0.003915735054761171,-0.10566042522629093,0.18713468494978908,0.011254563296076544
0.2873697280883789,-0.027303427457809448,-0.014384694397449493,0.006277263164520264,0.0026663034223020077,0.0017198019195348024,-0.006814692169427872,-0.10544605200529612,0.18670479747801552,0.01117017816031741
0.2971158027648926,-0.029688075184822083,-0.012080125510692596,0.005265772342681885,0.015356266871094704,0.004666056949645281,-0.004397607408463955,-0.1051080022935943,0.18642136118037528,0.011067355311308487
0.30741286277770996,-0.028300896286964417,-0.00922858715057373,0.003993332386016846,0.02783573977649212,0.006724858190864325,-0.003632267937064171,-0.10468026123418463,0.18619569296867372,0.01094735695407413
0.3174457550048828,-0.02475827932357788,-0.009744085371494293,0.002012193202972412,0.026323063299059868,0.009804803878068924,0.0011675470741465688,-0.10418598667840485,0.18604280941792578,0.010857893640178275
0.32747983932495117,-0.02322271466255188,-0.011494942009449005,0.0032167434692382812,0.01725691370666027,0.009174211882054806,7.767521310597658e-05,-0.1037064675667941,0.1858986004714345,0.01080654970129221
0.33751773834228516,-0.02358590066432953,-0.017384231090545654,0.005864441394805908,0.006220242008566856,0.007826119661331177,-0.003503477666527033,-0.1033836942204369,0.18570186844779338,0.010738908781885874
0.3473987579345703,-0.020598381757736206,-0.021309711039066315,0.007664620876312256,0.00556630315259099,0.009654290974140167,-0.005343029275536537,-0.10312690390027228,0.18551285785527175,0.010656079299849028
0.3574519157409668,-0.021212980151176453,-0.018198437988758087,0.005985438823699951,0.006344744469970465,0.009346695616841316,-0.004342479631304741,-0.1028983299711713,0.18530986831693882,0.010573326223463698
0.36744070053100586,-0.02242530882358551,-0.013505600392818451,0.003184199333190918,0.009014014154672623,0.0036515705287456512,-0.00338448747061193,-0.10270581841450088,0.1850478754430479,0.010498168135500774
0.3773949146270752,-0.02133728563785553,-0.01300327479839325,0.0016621947288513184,0.01504420954734087,0.0029229295905679464,-0.0006174630834721029,-0.10249229191327017,0.18472691702451985,0.010417731364435882
0.38747382164001465,-0.02306164801120758,-0.011054210364818573,0.003128349781036377,0.013728275895118713,0.0033469933550804853,-0.0003136496525257826,-0.10226628398763765,0.18442620618711295,0.010354699032794496
0.3974728584289551,-0.02505446970462799,-0.010553054511547089,0.004584014415740967,0.005937730427831411,0.002643652493134141,-0.0007362933829426765,-0.102069278334069,0.18416658789041165,0.010304736202481679
0.4074587821960449,-0.02448207139968872,-0.011597588658332825,0.0051953792572021484,0.0004787163343280554,-0.0013669789768755436,-0.0009371489868499339,-0.10192286795925554,0.18390616433139598,0.010262007367788378
0.41756582260131836,-0.021260693669319153,-0.011401697993278503,0.003960072994232178,0.0016811336390674114,0.004435782320797443,-0.0011113197542726994,-0.10174128507045385,0.1836668800759738,0.01023350684045029
0.42774200439453125,-0.020727887749671936,-0.011191964149475098,0.0019048452377319336,0.006513239350169897,0.009270928800106049,0.0034352820366621017,-0.1014691182276045,0.18353820590277303,0.010209743483842347
0.43765687942504883,-0.020032182335853577,-0.007503136992454529,-0.0031444430351257324,0.013056626543402672,-0.000922319944947958,0.00042484491132199764,-0.10118152650974659,0.1833519256821135,0.010189778665399076
0.447415828704834,-0.015516132116317749,-0.003750525414943695,0.0002186894416809082,0.027004582807421684,-0.0015443013980984688,-0.0009919567964971066,-0.10084516678523338,0.1830810036115411,0.010123431627580785
0.45755672454833984,-0.013430178165435791,-0.005963943898677826,0.0020571351051330566,0.026590460911393166,-0.0011339080519974232,0.00033216679003089666,-0.10043198678048794,0.18284393555694398,0.010042091726417662
0.46770691871643066,-0.01671256124973297,-0.005607873201370239,0.001312553882598877,0.015669003129005432,-0.0035693692043423653,0.0021527037024497986,-0.10012012063531378,0.18257480150208355,0.010000426255370332
0.47795891761779785,-0.014248564839363098,-0.006043180823326111,0.0008337497711181641,0.01192406751215458,-0.014717627316713333,-0.0017863777466118336,-0.0998981998538345,0.18222013102636606,0.009955586820814705
0.4930267333984375,-0.008075550198554993,-0.011679686605930328,-0.001469254493713379,0.004488904494792223,-0.018824709579348564,-0.002942189574241638,-0.09972022134196679,0.18180278384610923,0.009892711006111873
0.5013680458068848,-0.010141521692276001,-0.014132864773273468,0.0025947093963623047,-0.005148543044924736,-0.019321922212839127,-0.0013448256067931652,-0.0996246954521892,0.181401826211688,0.009863973514681382
0.507997989654541,-0.01499706506729126,-0.017213352024555206,0.0027544498443603516,-0.008223777636885643,-0.013774157501757145,-0.0004135182243771851,-0.0996075714277397,0.18103066718060346,0.009853285473533497
0.5177688598632812,-0.016374602913856506,-0.02110263705253601,0.004912614822387695,-0.005534784868359566,-0.006036077626049519,0.006026803981512785,-0.099605858111624,0.1807387874930626,0.009871973030544764
0.5276017189025879,-0.01758641004562378,-0.019273266196250916,0.005021333694458008,0.004766854923218489,-0.001910841092467308,0.00892592128366232,-0.09957687731325492,0.18057328672891723,0.009921774375519301
0.5376749038696289,-0.016298368573188782,-0.016480349004268646,0.0024083852767944336,0.019337540492415428,-0.0038570789620280266,0.010230869986116886,-0.0993922987387448,0.18043877190740795,0.009993118024221486
0.5477259159088135,-0.012972429394721985,-0.016031339764595032,0.0019736886024475098,0.02651342935860157,-0.01073487102985382,0.012398736551404,-0.09909441462884319,0.1802156450243567,0.010048081005334648
0.5576620101928711,-0.013246238231658936,-0.012919612228870392,0.005760788917541504,0.04183672368526459,-0.004738496150821447,0.013200081884860992,-0.09866614005603382,0.180004431348018,0.01010746275282297
0.5677347183227539,-0.015176370739936829,-0.017651624977588654,0.004035353660583496,0.027069730684161186,-0.003037002868950367,0.01858174428343773,-0.09819261573608778,0.17992568631309383,0.010192363116415687
0.5776848793029785,-0.01629100739955902,-0.016618788242340088,0.0034180879592895508,0.015005877241492271,-0.0006633279845118523,0.013089241459965706,-0.09781408958733298,0.17982618464010075,0.010305790670809627
0.5877008438110352,-0.013972371816635132,-0.024607308208942413,0.003462672233581543,0.00971685629338026,0.006467597093433142,0.011660560965538025,-0.09753100077453317,0.17972834556967396,0.010386352199835507
0.5976688861846924,-0.014701873064041138,-0.02957717329263687,0.0025193095207214355,0.021363390609622,0.006522191688418388,0.018166663125157356,-0.09715851773199205,0.1796564030684716,0.010492050227168093
0.6078019142150879,-0.017612069845199585,-0.014112159609794617,0.0017529129981994629,0.027890633791685104,0.005198245402425528,0.02001953125,-0.09672136241875036,0.17956648956259766,0.010619453092939539
0.6178350448608398,-0.012937143445014954,-0.012579269707202911,0.004296422004699707,0.028991583734750748,0.0073423562571406364,0.019698619842529297,-0.09626974525403212,0.17949036779536362,0.010756057930262807
0.6277499198913574,-0.012528419494628906,-0.016024641692638397,0.0017622709274291992,0.03301102668046951,0.011873015202581882,0.018843693658709526,-0.09580673328092122,0.1794856000652152,0.010874603615679221
0.6377878189086914,-0.014186486601829529,-0.013703912496566772,0.000919044017791748,0.04395448789000511,0.013768387027084827,0.01773182302713394,-0.09529948754405147,0.17951826873905338,0.010979173877873092
0.6477029323577881,-0.013622045516967773,-0.010639652609825134,0.002219557762145996,0.05123794823884964,0.007156246341764927,0.01590558886528015,-0.09465848071186081,0.1794917466657997,0.01104415520855091
0.6577658653259277,-0.014319568872451782,-0.008441805839538574,0.0019255280494689941,0.050799593329429626,0.009688379243016243,0.015061630867421627,-0.09399884814788635,0.1794292246800166,0.011090225033675908
0.6677427291870117,-0.013090386986732483,-0.011411555111408234,0.0012193918228149414,0.053279828280210495,0.013190614059567451,0.013771862722933292,-0.09325745360583637,0.1794079278858793,0.011116325020246311
0.6777629852294922,-0.01323719322681427,-0.01340840756893158,-0.0014966726303100586,0.05188033729791641,0.006182772107422352,0.015992939472198486,-0.09245851246023086,0.1793885565018111,0.011160570530294954
0.6878647804260254,-0.013706818222999573,-0.0113426074385643,-0.0005837082862854004,0.051310718059539795,0.006306786090135574,0.018324004486203194,-0.09182434893986419,0.17929657951984332,0.011216380048366854
0.697901725769043,-0.013281658291816711,-0.012211926281452179,0.004236400127410889,0.05145853012800217,0.009063424542546272,0.023941677063703537,-0.09121100331227355,0.17927295714984232,0.01133011081852385
0.7077798843383789,-0.014079093933105469,-0.01245003193616867,0.002422928810119629,0.05159629508852959,0.005670689977705479,0.02972659468650818,-0.09054609117464706,0.17925046098558742,0.011493305444583369
0.7178268432617188,-0.014566630125045776,-0.01175544410943985,0.000310361385345459,0.05173477903008461,0.0013718155678361654,0.032466452568769455,-0.08990995420476758,0.17917698711450306,0.011695747937209629
0.7277779579162598,-0.013104096055030823,-0.010672226548194885,0.0026752352714538574,0.054868657141923904,-0.004583190195262432,0.036100443452596664,-0.08928198332565451,0.17906014082211552,0.011920000895740468
0.737825870513916,-0.014072626829147339,-0.00746561586856842,0.0033701658248901367,0.05996301770210266,-0.004321933723986149,0.041273102164268494,-0.08860565427198568,0.17891648942912797,0.012188211524312953
0.7478170394897461,-0.01712799072265625,-0.005229569971561432,0.0028769969940185547,0.05403871461749077,-0.007924924604594707,0.039991963654756546,-0.08790803424129011,0.1787689052982283,0.01248458423113838
0.7578508853912354,-0.02026188373565674,-0.005655281245708466,0.004277229309082031,0.04255010187625885,-0.010928437113761902,0.03653224930167198,-0.08727847077702387,0.1785780944046494,0.012761095092931593
0.7679109573364258,-0.022388577461242676,-0.007254108786582947,0.0076751708984375,0.022026902064681053,-0.008116183802485466,0.033250756561756134,-0.08683092791650857,0.17839011583789668,0.013029613987256517
0.7778759002685547,-0.025260955095291138,-0.007957354187965393,0.010557472705841064,0.005346192046999931,-0.0006721159443259239,0.0264839306473732,-0.08657188664050323,0.17826534505699065,0.013285050422856314
0.7879178524017334,-0.028751671314239502,-0.01023903489112854,0.012168705463409424,0.0008842989336699247,0.003828448709100485,0.024630635976791382,-0.08642688793813026,0.17819723488511305,0.013518961983041458
0.7979240417480469,-0.02759099006652832,-0.004456743597984314,0.01033031940460205,0.003616702277213335,0.002418837510049343,0.020666787400841713,-0.08628983467574727,0.1781318100494465,0.013732467391009386
0.8079099655151367,-0.023454204201698303,0.004618324339389801,0.0077204108238220215,0.004454649053514004,-0.004535431042313576,0.017894702032208443,-0.08614060122803079,0.17803442465922711,0.013904526040814425
0.8180418014526367,-0.019827276468276978,0.006211861968040466,0.008304834365844727,0.007902377285063267,-0.0015862463042140007,0.01216144859790802,-0.0860114347820836,0.17789712493043108,0.01402340832642925
0.8280978202819824,-0.02062113583087921,0.0037048980593681335,0.010901868343353271,0.004056223668158054,0.002158291405066848,0.008168146014213562,-0.08590876487580576,0.17775591553370046,0.014095547474749804
0.8380279541015625,-0.0234992653131485,0.0044732168316841125,0.010302364826202393,-0.0030184637289494276,0.003835550043731928,8.252204861491919e-05,-0.08587273974297055,0.1776249689131908,0.01412949457202631
0.8480048179626465,-0.02167995274066925,0.0054604411125183105,0.0077651143074035645,-0.001628509839065373,0.003297192044556141,-0.009380541741847992,-0.08586203673112389,0.1774811817382402,0.014070823251637245
0.8579897880554199,-0.019837841391563416,0.003721758723258972,0.005111575126647949,0.00605178065598011,0.004755539353936911,-0.011381641030311584,-0.08579995468418466,0.17732890819830527,0.013943735296537321
0.86798095703125,-0.019442856311798096,0.0062284916639328,0.0035933256149291992,0.004174085333943367,0.005660392809659243,-0.013487028889358044,-0.08570375130700378,0.17715805440144308,0.013795921691029344
0.8779768943786621,-0.019197985529899597,0.0056073665618896484,0.003578007221221924,0.003554634051397443,0.004824160132557154,-0.016336612403392792,-0.08566862278184412,0.17700118515413138,0.013624891436279195
0.8879790306091309,-0.016909807920455933,-1.2725591659545898e-05,0.0036286115646362305,-0.004826799966394901,0.0017380001954734325,-0.018310492858290672,-0.0857500766688205,0.17684752522531408,0.013440461250622903
0.8996977806091309,-0.014237970113754272,-0.004020676016807556,0.005758881568908691,-0.017805183306336403,-0.0005579106509685516,-0.021630922332406044,-0.08595935722652408,0.17669357735628596,0.01325154194834359
0.9080977439880371,-0.013561904430389404,-0.008789747953414917,0.006526470184326172,-0.025489501655101776,-0.0021744496189057827,-0.025789236649870872,-0.08625871654038701,0.17652228359176683,0.013046163975224442
0.918104887008667,-0.014742463827133179,-0.014274120330810547,0.00811624526977539,-0.019750121980905533,0.002069830195978284,-0.024767382070422173,-0.08658683609682237,0.17634642119948107,0.012818245344596779
0.9280388355255127,-0.017217054963111877,-0.01471991091966629,0.008972883224487305,-0.014619342982769012,0.0025064111687242985,-0.019780397415161133,-0.08683519564922614,0.17621296056054064,0.012611272579890757
0.9380550384521484,-0.0176345556974411,-0.010090254247188568,0.005364358425140381,-0.002806625794619322,0.005182621534913778,-0.017761722207069397,-0.08698209599295852,0.1760964087021929,0.012427039729230671
0.9504449367523193,-0.017672553658485413,-0.008947513997554779,0.004415154457092285,0.010245227254927158,0.010511873289942741,-0.014623240567743778,-0.08701440591550455,0.17601118958433062,0.012244118163766105
0.9581048488616943,-0.015899673104286194,-0.012669913470745087,0.0008214116096496582,0.015111888758838177,0.018607882782816887,-0.009995199739933014,-0.0869370749348869,0.1760070686031109,0.01208409720450099
0.9681599140167236,-0.01867656409740448,-0.011501461267471313,-0.0004124641418457031,0.016057059168815613,0.01852075383067131,-0.003960528876632452,-0.08679041224178338,0.17606680947963815,0.011985779360369053
0.9780917167663574,-0.016497045755386353,-0.01131369173526764,0.0008121728897094727,0.013772334903478622,0.015344668179750443,-0.006513169035315514,-0.0866172486949441,0.17612890013425575,0.011912251429784361
0.988278865814209,-0.012195199728012085,-0.01405414193868637,0.0010965466499328613,0.008983571082353592,0.011750553734600544,-0.007641443982720375,-0.0864426129356913,0.17615847056593614,0.011808358177584572
0.9995999336242676,-0.010624200105667114,-0.017212383449077606,0.0006077289581298828,-1.1255498975515366e-05,0.0057211569510400295,-0.007976735942065716,-0.08630443863898626,0.17614145011243265,0.011712550653900198
1.0081257820129395,-0.008948832750320435,-0.014882795512676239,5.263090133666992e-05,-0.005222096107900143,-0.002158781047910452,-0.010688473470509052,-0.08623288047879123,0.1760346064108665,0.011612776043281573
1.0182867050170898,-0.0066690593957901,-0.011376559734344482,0.0015009641647338867,-0.0001612913329154253,-0.0010109590366482735,-0.012375053018331528,-0.08622086734711802,0.17587251402259582,0.011497288431820091
1.0282588005065918,-0.00622345507144928,-0.01071012020111084,-0.00136566162109375,0.0033433623611927032,-0.003676961176097393,-0.014591122046113014,-0.08616457508368833,0.17571295460761735,0.011353786775735928
1.0382678508758545,-0.00813920795917511,-0.008642315864562988,-0.003245830535888672,0.0030671926215291023,-0.009919676929712296,-0.012768721207976341,-0.0860647875571416,0.17551779741001408,0.011204153379790366
1.0515358448028564,-0.004971951246261597,-0.0064045339822769165,-0.0015886425971984863,0.00900803878903389,-0.010183151811361313,-0.013108381070196629,-0.08594753825862862,0.17525827685483794,0.011056949015611987
1.0595860481262207,-0.004058897495269775,-0.00903279334306717,-0.0010486245155334473,0.006032222881913185,-0.010815385729074478,-0.012501979246735573,-0.08581346325113541,0.17502546244293538,0.010902388448696069
1.0689187049865723,-0.00830996036529541,-0.011837422847747803,3.2007694244384766e-05,0.0005117894615978003,-0.010047152638435364,-0.013033013790845871,-0.08570326325660045,0.1748309059268724,0.010759235786060344
1.078218936920166,-0.008234605193138123,-0.01439717411994934,0.003078460693359375,-0.004136225674301386,-0.011698845773935318,-0.00945052970200777,-0.08560763656325054,0.17464377974724699,0.010642384836530157
1.0882148742675781,-0.0061466991901397705,-0.016574516892433167,0.0041384100914001465,-0.0013687353348359466,-0.011555833742022514,-0.010143323801457882,-0.08554168809261921,0.17445875225278065,0.010548557043089657
1.0995678901672363,-0.008037909865379333,-0.01737092435359955,0.007236123085021973,0.0020928415469825268,-0.008232474327087402,-0.005131521262228489,-0.08546808316317872,0.17431681271803648,0.010471793734896083
1.1082477569580078,-0.009564504027366638,-0.01851186901330948,0.007537662982940674,0.011006209068000317,-0.002178844064474106,0.000867036054842174,-0.0853420884472701,0.17422233857980815,0.010430964071150324
1.118319034576416,-0.008979812264442444,-0.014332547783851624,0.0033550262451171875,0.009365435689687729,-0.005247071851044893,0.0041682906448841095,-0.0852058430427014,0.1741220247695841,0.010446695427995055
1.1282448768615723,-0.007700100541114807,-0.011542923748493195,0.0011559128761291504,0.012572480365633965,-0.003944874741137028,0.0031813764944672585,-0.08502482581035142,0.17404364978156672,0.01045839700541636
1.1382317543029785,-0.008009448647499084,-0.014557063579559326,0.003884434700012207,0.02036755345761776,-0.002809835597872734,0.007483446504920721,-0.08478798663843652,0.1739976982581073,0.010484986651637187
1.1506319046020508,-0.010563835501670837,-0.010516464710235596,0.005232393741607666,0.020859921351075172,-0.0011244541965425014,0.010203919373452663,-0.08448470061317488,0.1739372568552302,0.010535729015963712
1.1584787368774414,-0.012926936149597168,-0.008555024862289429,0.0054076313972473145,0.020938217639923096,-0.0039665792137384415,0.006675230339169502,-0.08417009568750441,0.1738683657857703,0.010581159851767772
1.1683528423309326,-0.010044798254966736,-0.009640738368034363,0.0026543140411376953,0.017876582220196724,-0.0049826642498373985,0.01117730513215065,-0.08386618135619092,0.1737879231045275,0.010638372726468864
1.1783208847045898,-0.007752031087875366,-0.009079940617084503,0.0011900663375854492,0.018421996384859085,-0.010984363034367561,0.01072030607610941,-0.08354842284611777,0.17367041125063143,0.010707433630202337
1.188389778137207,-0.006575524806976318,-0.007129788398742676,0.0030014514923095703,0.017951466143131256,-0.015492251142859459,0.007934000343084335,-0.08322984797329341,0.17349313528505844,0.01075797588161027
1.1997098922729492,-0.004247590899467468,-0.007327742874622345,0.003015279769897461,0.010815792717039585,-0.01971922069787979,0.003836727235466242,-0.08298445312071225,0.17326315660826075,0.010789045019055237
1.2083768844604492,-0.003359779715538025,-0.007667191326618195,0.001879572868347168,0.00036050518974661827,-0.022703517228364944,0.003667989280074835,-0.08285041701621187,0.17300966936509665,0.010815917047562778
1.2184388637542725,-0.004639387130737305,-0.010963112115859985,0.005987942218780518,-0.008182914927601814,-0.022981815040111542,-0.0003757546073757112,-0.08280450854499298,0.17274260168270927,0.01083455996331602
1.2283730506896973,-0.007092267274856567,-0.012796476483345032,0.0074198246002197266,-0.019540848210453987,-0.02630717307329178,-0.0028107892721891403,-0.08289868803956878,0.1724448022417864,0.010836585176072515
1.2385287284851074,-0.008225396275520325,-0.011053584516048431,0.009264230728149414,-0.027402233332395554,-0.027838490903377533,-0.004786056000739336,-0.08309433893716585,0.17209423421516928,0.010832076826863489
1.252147912979126,-0.008885994553565979,-0.012058258056640625,0.010311007499694824,-0.03292476385831833,-0.028422432020306587,-0.004101090598851442,-0.08333691162411822,0.17174485075404708,0.010832921309494963
1.2596118450164795,-0.009169161319732666,-0.013696648180484772,0.011299967765808105,-0.04159175604581833,-0.027571553364396095,-0.0035175923258066177,-0.08364887440628141,0.17143169781855325,0.010855033926718358
1.2687609195709229,-0.010113164782524109,-0.013181142508983612,0.011724352836608887,-0.04515384882688522,-0.02031581476330757,-0.0010333956452086568,-0.08403499672233203,0.1711710508520747,0.010902016078967847
1.2784948348999023,-0.011356547474861145,-0.016990482807159424,0.013832151889801025,-0.04424704238772392,-0.021410373970866203,0.001836426672525704,-0.08442776260347212,0.17096677454132117,0.01098246105552575
1.2884728908538818,-0.01071302592754364,-0.012337572872638702,0.012579262256622314,-0.040845904499292374,-0.029758453369140625,0.003434217069298029,-0.08476567927036766,0.17072037997992373,0.011092835015251002
1.3008818626403809,-0.008126169443130493,-0.01176682859659195,0.015986979007720947,-0.045787930488586426,-0.027392234653234482,0.0040808324702084064,-0.08509640179215013,0.17043725908218305,0.011204882337212015
1.3083457946777344,-0.009479746222496033,-0.016396798193454742,0.019571781158447266,-0.07001753896474838,-0.03629731014370918,0.007799031212925911,-0.08554709929110313,0.17012856260992418,0.01135986692765578
1.3185410499572754,-0.01161491870880127,-0.019125930964946747,0.019284069538116455,-0.10271609574556351,-0.06117682531476021,0.016308896243572235,-0.08631066437483181,0.16964151594705507,0.011628193505809127
1.3285589218139648,-0.005727902054786682,-0.02074817568063736,0.026811957359313965,-0.1160479485988617,-0.10160414129495621,0.024056458845734596,-0.08729574817534012,0.1688355550629463,0.01201235388750976
1.3387389183044434,0.0024578124284744263,-0.017607443034648895,0.03463613986968994,-0.15292659401893616,-0.14893996715545654,0.025593901053071022,-0.08847782073260547,0.16760313441825714,0.012485081582400612
1.3499069213867188,0.003867015242576599,-0.0198066383600235,0.04203921556472778,-0.24366135895252228,-0.17877154052257538,0.024872398003935814,-0.09028750850251421,0.16597819599802854,0.013050356656311334
1.3585689067840576,0.0028121918439865112,-0.0322546511888504,0.04836302995681763,-0.4115707576274872,-0.20124170184135437,0.01809518411755562,-0.09341030827680138,0.16411735872406216,0.0138078000884412
1.3689308166503906,0.0029211044311523438,-0.03945370018482208,0.057181477546691895,-0.7179813385009766,-0.22371141612529755,0.009711021557450294,-0.09897186631544755,0.16209063312827496,0.014859206921435358
1.378748893737793,0.0003820359706878662,-0.051529817283153534,0.08281117677688599,-1.0386192798614502,-0.3074353337287903,-0.005563539452850819,-0.10750763266263923,0.15973823226439882,0.016309527620417128
1.38861083984375,-0.000995546579360962,-0.11088576912879944,0.12588036060333252,-1.3980636596679688,-0.40608149766921997,-0.15287864208221436,-0.11968568770563488,0.15623154294095903,0.017492942265690273
1.3997797966003418,-0.0006008744239807129,-0.15155479311943054,0.13117384910583496,-1.745478630065918,-0.5187427997589111,-0.2814400792121887,-0.13552021553558952,0.1516759664827963,0.017730529601685283
1.408728837966919,-0.002398371696472168,-0.15249910950660706,0.09874510765075684,-2.1890695095062256,-0.6985542178153992,-0.3867466449737549,-0.155489985268393,0.14559257820489221,0.017366504517611715
1.4186797142028809,0.009997159242630005,-0.16095668077468872,0.12422609329223633,-2.6438961029052734,-0.8114938735961914,-0.5052258372306824,-0.18011746135057702,0.1377240532542668,0.016283772338326508
1.4285869598388672,0.02005760371685028,-0.20310398936271667,0.12811607122421265,-2.950885534286499,-0.9058802723884583,-0.5439433455467224,-0.2086895407927405,0.12877516280657902,0.01475615159761994
1.438546895980835,0.0009877979755401611,-0.15716053545475006,0.0970030426979065,-3.1314566135406494,-1.0030931234359741,-0.5255470275878906,-0.23963228142825022,0.11898721279055675,0.013159314837428566
1.4502158164978027,-0.010239429771900177,-0.056375741958618164,0.06599950790405273,-3.2381839752197266,-1.1588413715362549,-0.5532684922218323,-0.27201330960177944,0.10773942552862005,0.011411764526423698
1.4586589336395264,-0.010257825255393982,-0.006871402263641357,0.07477229833602905,-3.266756057739258,-1.3310387134552002,-0.6133387684822083,-0.30495695658637967,0.09449426332066801,0.00876060080949113
1.468693733215332,-0.03453589975833893,-0.044174909591674805,0.08828061819076538,-3.507675886154175,-1.4506434202194214,-0.7353124022483826,-0.33936294028292213,0.07920054459436984,0.0048537721733681646
1.4786388874053955,-0.05291924253106117,-0.06431862711906433,0.09573262929916382,-3.656653642654419,-1.4111943244934082,-0.7601719498634338,-0.37570765280659124,0.06296505300369228,-0.0005213217732358454
1.488722801208496,-0.0600660964846611,-0.05882599949836731,0.0672103762626648,-3.8792028427124023,-1.4072145223617554,-0.7248932719230652,-0.41356252673964156,0.04664986132909564,-0.0062877998679581795
1.5002460479736328,-0.08653037250041962,0.013958275318145752,0.00538402795791626,-4.1515021324157715,-1.2705680131912231,-0.7296773791313171,-0.4541444875377495,0.030396240675812432,-0.012686207334610098
1.508741855621338,-0.11291588097810745,0.002079993486404419,-0.014819443225860596,-4.239438533782959,-0.9868593215942383,-0.6449450254440308,-0.49645729516969017,0.016036514228608068,-0.01931862277674134
1.518786907196045,-0.13173091411590576,-0.06808823347091675,-0.1024632453918457,-3.9775872230529785,-0.7105843424797058,-0.6085824966430664,-0.5378987569989199,0.0042307868526656285,-0.026054200514482317
1.5286870002746582,-0.1411684900522232,0.004750490188598633,-0.1516507863998413,-3.349533796310425,-0.44887733459472656,-0.5189254283905029,-0.5747802675817507,-0.005133803017714628,-0.03278597687613296
1.5387639999389648,-0.11945165693759918,0.1229906678199768,-0.17967790365219116,-2.338749885559082,-0.154404416680336,-0.3907855153083801,-0.6035590676217383,-0.011428199206013479,-0.03854299729033978
1.551156997680664,-0.08099088072776794,0.22385329008102417,-0.19087928533554077,-0.8774002194404602,0.23017792403697968,-0.2954709231853485,-0.6197344030459045,-0.013575037454194198,-0.04294351976448352
1.5587778091430664,-0.08035335689783096,0.27362924814224243,-0.1977677345275879,0.7294768691062927,0.5941609740257263,-0.29806965589523315,-0.6205946585066998,-0.011609700729400953,-0.04657665099650275
1.568786859512329,-0.10937207192182541,0.3685051202774048,-0.17605489492416382,2.441286325454712,1.002854585647583,-0.2808806002140045,-0.6048007338611232,-0.005642582221267587,-0.0499843323633852
1.578819751739502,-0.10351408272981644,0.4110972285270691,-0.15743911266326904,4.250716209411621,1.4389655590057373,-0.29506751894950867,-0.571360005343876,0.004678260025887957,-0.05335522189047649
1.5887947082519531,-0.09767059981822968,0.4526040554046631,-0.15020692348480225,6.169350624084473,1.9058849811553955,-0.33909422159194946,-0.5194480111839708,0.019053915832563998,-0.05781928407896846
1.5997610092163086,-0.1229129508137703,0.5643928647041321,-0.1411791443824768,8.360151290893555,2.379122734069824,-0.3035828173160553,-0.4467497550110416,0.03786129038108307,-0.06381045530227199
1.6088247299194336,-0.13428142666816711,0.6983047723770142,-0.15810167789459229,10.563934326171875,2.7914323806762695,-0.21490323543548584,-0.352319687479079,0.06056764036524019,-0.07180076183339484
1.619001865386963,-0.12530629336833954,0.8727925419807434,-0.14444118738174438,12.503439903259277,3.0825769901275635,0.013719025999307632,-0.23683718327119693,0.08730865384032686,-0.08183022738624848
1.6288080215454102,-0.106024369597435,1.0747933387756348,-0.12160146236419678,13.787169456481934,3.2421581745147705,0.27738675475120544,-0.10525623192666712,0.11686897020207064,-0.0940833082578063
1.6388788223266602,-0.09564436972141266,1.2098603248596191,0.006678938865661621,14.013447761535645,3.233248710632324,0.5075480937957764,0.03388725887525787,0.14889130471369735,-0.10864894330252098
1.6503419876098633,-0.0851360410451889,1.1847811937332153,0.20678359270095825,12.936256408691406,2.91387677192688,0.6976892352104187,0.16885895525584366,0.18158086136218582,-0.12510145188530253
1.6593289375305176,-0.0936812162399292,1.134152889251709,0.44811785221099854,10.906536102294922,2.460099697113037,0.6599091291427612,0.2876071528235415,0.21232728355990205,-0.1420100712118653
1.6689319610595703,-0.10422377288341522,0.9413222074508667,0.684472382068634,8.742788314819336,2.2813987731933594,-0.0852554440498352,0.38382886326015525,0.24235263102585286,-0.16175609982568945
1.6790578365325928,-0.24020394682884216,0.5131815075874329,0.724850058555603,6.928384304046631,2.59848690032959,-1.1304148435592651,0.45791135553982093,0.2785951990413695,-0.1906136988796388
1.6889019012451172,-0.47559383511543274,-0.006098687648773193,0.6800389885902405,5.524131774902344,2.765542507171631,-1.4697548151016235,0.5131697132284078,0.32211339006416345,-0.22580862847892366
1.7000770568847656,-0.47955068945884705,-0.22367393970489502,0.7496094107627869,4.826991558074951,2.7564752101898193,-1.5925828218460083,0.5562132459840003,0.36861961892392264,-0.2626626407539389
1.7088868618011475,-0.2128438651561737,-0.057586491107940674,0.8674865365028381,4.74521541595459,2.3826096057891846,-1.830916166305542,0.5937570647045086,0.41681122367731704,-0.3032870083940803
1.7189278602600098,0.07092133164405823,0.0653228759765625,0.9285252690315247,4.770447254180908,1.6994532346725464,-1.9664419889450073,0.6287128818585609,0.4636000289888975,-0.34917690873413815
1.729071855545044,0.30951040983200073,0.047682881355285645,1.008533000946045,4.757702827453613,1.2389956712722778,-2.0812172889709473,0.6615213779690248,0.5083705261960939,-0.3995802461416906
1.7394258975982666,0.3999306857585907,-0.023367226123809814,0.9093678593635559,4.51760196685791,1.0741902589797974,-2.0900611877441406,0.691098592743842,0.5532833307084312,-0.45299662620673314
1.7507948875427246,0.30655384063720703,-0.0553889274597168,0.5856641530990601,4.055653095245361,1.1285176277160645,-2.064443349838257,0.7158994013053991,0.5988668758868914,-0.5065911164939917
1.7589259147644043,0.20651760697364807,-0.17287558317184448,0.26429611444473267,3.4972572326660156,1.3856439590454102,-2.040766954421997,0.7346673391572528,0.6456598579875541,-0.5583946653897152
1.7690038681030273,0.14194756746292114,-0.2962889075279236,-4.112720489501953e-05,2.929044246673584,1.6976163387298584,-1.878852128982544,0.7476155410466988,0.6936044445981517,-0.6064744705861841
1.779036045074463,0.07496482133865356,-0.3268578052520752,-0.18576210737228394,2.3642356395721436,1.883484959602356,-1.6333609819412231,0.7560685241106085,0.7402574973668445,-0.6484129933433052
1.7891418933868408,0.008091926574707031,-0.34503620862960815,-0.16546660661697388,1.9369044303894043,2.000412940979004,-1.4568077325820923,0.760727614063384,0.7842170145967287,-0.6841487627871368
1.8010458946228027,-0.030840039253234863,-0.45834535360336304,-0.06333664059638977,1.7183902263641357,2.0832555294036865,-1.0522959232330322,0.7642552274356257,0.8257930212704974,-0.7145851245182487
1.8089790344238281,-0.10020267963409424,-0.484261155128479,0.046500712633132935,1.4226166009902954,2.005955934524536,-0.621946394443512,0.768461101513226,0.8629320004159587,-0.7385449390959463
1.8191437721252441,-0.14113223552703857,-0.4915207624435425,0.2141442894935608,1.2603089809417725,1.8964780569076538,-0.31568577885627747,0.7733376831637732,0.8954498057211798,-0.7569968421125984
1.8291397094726562,-0.11295610666275024,-0.5908721089363098,0.2682405114173889,1.124303936958313,1.6043442487716675,-0.03977552056312561,0.7792810443845998,0.9233677040983144,-0.7717709869498509
1.8393268585205078,-0.0681525468826294,-0.5353841185569763,0.23288363218307495,0.9594700336456299,1.3091349601745605,0.07222212851047516,0.7857028481583186,0.9460210193418739,-0.783287326029213
1.8511438369750977,0.023051083087921143,-0.4752624034881592,0.1262717843055725,0.8114715218544006,1.13506281375885,0.1804521232843399,0.7918551567658025,0.9648689079950213,-0.7927075732921206
1.8592338562011719,0.07359778881072998,-0.38124150037765503,-0.08107122778892517,0.5194132924079895,1.0407296419143677,0.2983207106590271,0.7977535537437904,0.979925056626341,-0.7986251090841097
1.8691868782043457,0.0866389274597168,-0.22248876094818115,-0.1914636194705963,0.2889104187488556,0.9744736552238464,0.21633626520633698,0.8020900556805594,0.9920366336392081,-0.8013375074831259
1.879145860671997,0.09085983037948608,-0.18461871147155762,-0.2254689335823059,0.23108495771884918,0.8048105835914612,0.12985970079898834,0.8049444289658779,1.002099338306629,-0.8029379592679653
1.8892550468444824,0.1219719648361206,-0.05652308464050293,-0.22515511512756348,0.3038656711578369,0.6306964159011841,-0.006813094485551119,0.8069028892100646,1.0113022768206288,-0.8056587148162637
1.900047779083252,0.13882410526275635,0.09214764833450317,-0.19795936346054077,0.44913846254348755,0.48278260231018066,-0.08262130618095398,0.8084323382471472,1.0204848724996372,-0.8106794719467315
1.909121036529541,0.1264168620109558,0.17441564798355103,-0.20548945665359497,0.6088677644729614,0.3201918601989746,-0.18185360729694366,0.8100801859916995,1.0298993679066641,-0.8181988129394719
1.9192638397216797,0.11380475759506226,0.23058068752288818,-0.20442485809326172,0.6913266777992249,0.23112937808036804,-0.263359397649765,0.8115382487954399,1.039968106574963,-0.8281043638564226
1.9291658401489258,0.09402203559875488,0.18285590410232544,-0.20838546752929688,0.6595894694328308,0.10819023102521896,-0.31818780303001404,0.8124321264322809,1.049385205055981,-0.8387923371008483
1.9392857551574707,0.07124143838882446,0.10118186473846436,-0.16680565476417542,0.5494009256362915,0.01299953181296587,-0.34007394313812256,0.8125743698499962,1.05731714067467,-0.8488834723498594
1.950021743774414,0.06544220447540283,0.01562941074371338,-0.13394120335578918,0.4291413128376007,-0.056103505194187164,-0.3290119171142578,0.8120249686208687,1.0633674451233242,-0.8574716083823277
1.95920991897583,0.04088234901428223,-0.036296308040618896,-0.10966318845748901,0.4177680015563965,-0.14089135825634003,-0.3175557851791382,0.811182522396917,1.0678335625761488,-0.8650520057053817
1.9692778587341309,0.025185883045196533,-0.03949451446533203,-0.08916348218917847,0.4169425666332245,-0.2174447625875473,-0.24612848460674286,0.810726259903576,1.0713684892870752,-0.872387853667002
1.9793109893798828,0.004515588283538818,-0.018629491329193115,-0.07330912351608276,0.37189146876335144,-0.2375447154045105,-0.19131210446357727,0.8106911322366837,1.0738333428030382,-0.8789868963579688
1.9894418716430664,-0.02361750602722168,-0.0492321252822876,-0.04120352864265442,0.2919784486293793,-0.25675854086875916,-0.10067231953144073,0.811010681757546,1.0751859492412823,-0.8842566632287873
2.0000548362731934,-0.04320418834686279,-0.08076208829879761,-0.0381561815738678,0.1925509124994278,-0.2235260009765625,-0.07056235522031784,0.8114238793185384,1.0754617377847884,-0.8879870981592144
2.0092759132385254,-0.04681676626205444,-0.09541833400726318,-0.0380702018737793,0.062044158577919006,-0.22157172858715057,-0.03790054842829704,0.8115676783140808,1.0746583304509478,-0.8899554942978055
2.0193629264831543,-0.05519580841064453,-0.11734777688980103,-0.03190946578979492,-0.004726881626993418,-0.21469812095165253,-0.0010599740780889988,0.8115196665316226,1.0728511483330476,-0.8904100956747371
2.029247760772705,-0.04313218593597412,-0.09477239847183228,-0.030058085918426514,-0.012329258024692535,-0.1929534524679184,0.0341440849006176,0.8115750523343525,1.0706146556117733,-0.8902038514867535
2.0394418239593506,-0.04384225606918335,-0.04766225814819336,-0.026070833206176758,0.004277149215340614,-0.2046535164117813,0.08758147805929184,0.8121163421401527,1.0682205693711178,-0.889630384699243
2.051348924636841,-0.048234760761260986,-0.0016399621963500977,-0.012303054332733154,0.03267500177025795,-0.20529073476791382,0.08162382245063782,0.8129621275342372,1.0659730866979211,-0.8893366360346697
2.059393882751465,-0.03314828872680664,0.01403355598449707,-0.002169400453567505,-0.03253436088562012,-0.21204717457294464,0.09647627174854279,0.8137655451281309,1.0634422757166553,-0.8887458964537274
2.0694918632507324,-0.023565232753753662,-0.007705092430114746,0.0015836656093597412,-0.09717608243227005,-0.2018946260213852,0.07154323160648346,0.8141953023028862,1.0602882424439823,-0.8872692396303618
2.079354763031006,-0.01923888921737671,-0.027507662773132324,0.0026051998138427734,-0.12332352995872498,-0.187883198261261,0.06623820960521698,0.8142224299452935,1.0569583692365039,-0.8853727742221669
2.0893819332122803,-0.01679706573486328,-0.020240426063537598,-0.006776034832000732,-0.12596267461776733,-0.1887999027967453,0.09228403866291046,0.8142950041430691,1.0534859982769698,-0.88315328042491
2.099923849105835,-0.00033283233642578125,0.021928906440734863,-0.005941271781921387,-0.06492063403129578,-0.2038310468196869,0.0937863290309906,0.8146421379882235,1.050184988841848,-0.8813208041379555
2.109381914138794,0.01606041193008423,0.049963176250457764,0.0017682909965515137,-0.08632218837738037,-0.2108171433210373,0.09513165056705475,0.815114860603651,1.0469382374553835,-0.8797371901068537
2.119452953338623,0.017843008041381836,0.03228580951690674,0.010671377182006836,-0.1322508156299591,-0.22086524963378906,0.08132502436637878,0.815326273870102,1.0432973017646507,-0.8776895865188711
2.1293578147888184,0.018578946590423584,-0.006483614444732666,0.017995864152908325,-0.15368981659412384,-0.2154606282711029,0.06534120440483093,0.8152196538877703,1.0393923503036815,-0.8753540090353235
2.13944673538208,0.021581590175628662,-0.0009126663208007812,0.018364012241363525,-0.16621865332126617,-0.2387952357530594,0.08718365430831909,0.8150437492769669,1.0352354955156522,-0.8727405158379545
2.149956703186035,0.02731466293334961,0.016199231147766113,0.024325817823410034,-0.13630346953868866,-0.27069440484046936,0.10697674751281738,0.8151427749133083,1.0307761642711082,-0.870102933507756
2.1595208644866943,0.04478663206100464,0.044531166553497314,0.04382133483886719,-0.10723772644996643,-0.2846086025238037,0.09578880667686462,0.8154489279534702,1.0263543055752014,-0.867847110362626
2.169611930847168,0.04013526439666748,0.04784953594207764,0.0453152060508728,-0.11913195252418518,-0.2768768072128296,0.09592712670564651,0.8157042764577375,1.0219964280646712,-0.8657578830979045
2.179494857788086,0.02301853895187378,0.016016781330108643,0.03515416383743286,-0.13472236692905426,-0.24079017341136932,0.10588148981332779,0.815855890304314,1.0177400405071868,-0.8634179380027538
2.1893367767333984,0.011733531951904297,-0.003991603851318359,0.034364402294158936,-0.12668664753437042,-0.23126262426376343,0.07447126507759094,0.8156940623828033,1.0139370342989869,-0.86129198879788
2.1999130249023438,0.0020813941955566406,-0.010172247886657715,0.050269514322280884,-0.1727156639099121,-0.21177227795124054,0.06590095162391663,0.8155147477414766,1.0100033077476187,-0.8589456734333312
2.209481716156006,0.006213486194610596,-0.033813655376434326,0.05501553416252136,-0.2418014109134674,-0.1754322052001953,0.029887130483984947,0.8148167983021452,1.0059182016048218,-0.8560152630049027
2.2195658683776855,0.003849327564239502,-0.06999707221984863,0.045650631189346313,-0.3004990816116333,-0.1522057205438614,0.020440364256501198,0.8135650614086504,1.0017224495423627,-0.8524589460609692
2.2295069694519043,0.005484521389007568,-0.08183825016021729,0.038974761962890625,-0.33010512590408325,-0.14596447348594666,-0.005784634966403246,0.8118999932061138,0.9973784904031339,-0.8485392122752649
2.239542007446289,0.013323545455932617,-0.06710493564605713,0.04084670543670654,-0.35072171688079834,-0.1548682153224945,0.021554578095674515,0.8100958455947487,0.9928356084641458,-0.8443095419533845
2.249992847442627,0.01973879337310791,-0.06177550554275513,0.038111329078674316,-0.30534082651138306,-0.17093883454799652,0.0253740306943655,0.808509590559459,0.9881424984977399,-0.8401008956612985
2.259666919708252,0.023337364196777344,-0.03325384855270386,0.05105322599411011,-0.2819737195968628,-0.1787448227405548,0.04883381351828575,0.8071890732143612,0.9836238880692565,-0.8362924611330393
2.2697389125823975,0.01550149917602539,-0.030108392238616943,0.05231505632400513,-0.2785452902317047,-0.1789582371711731,0.07218057662248611,0.8061335953318646,0.9790624517892818,-0.8324474660373452
2.2796030044555664,0.011489331722259521,-0.03292560577392578,0.04432106018066406,-0.3062858283519745,-0.17496003210544586,0.088626928627491,0.805172435682122,0.9743122870297944,-0.8283299819112874
2.2896969318389893,0.013324320316314697,-0.04005402326583862,0.034616172313690186,-0.349246621131897,-0.1731690615415573,0.09991686791181564,0.8041124088592011,0.9691760534703525,-0.8236370312321226
2.301642894744873,0.013386070728302002,-0.05074155330657959,0.03428158164024353,-0.39191606640815735,-0.1625795215368271,0.10845096409320831,0.8028502829903298,0.9637203358568542,-0.8184076634676606
2.3095359802246094,0.0076583027839660645,-0.04676103591918945,0.030623525381088257,-0.46583786606788635,-0.1335868388414383,0.11103934794664383,0.8013110023105566,0.9579706146108142,-0.8124795542170002
2.3196120262145996,-0.0037609338760375977,-0.04368704557418823,0.025079309940338135,-0.6316750645637512,-0.1167849600315094,0.08926081657409668,0.7990210807476682,0.9515443445669172,-0.805256179423057
2.329662799835205,-0.008919060230255127,-0.07725518941879272,0.033047258853912354,-0.8480289578437805,-0.11771853268146515,0.08349991589784622,0.7953757654794452,0.9437332827657858,-0.7959597420743528
2.3397727012634277,-0.006191551685333252,-0.12497657537460327,0.06093508005142212,-1.0327082872390747,-0.13713803887367249,0.0764894112944603,0.7904515993756839,0.9342251401229597,-0.7844128093538335
2.3499560356140137,-0.0003491640090942383,-0.11746233701705933,0.08919274806976318,-1.1841763257980347,-0.15718555450439453,0.129838764667511,0.7845793908421435,0.9232731707992945,-0.7709940365345072
2.3599777221679688,0.007943391799926758,-0.09773832559585571,0.09971481561660767,-1.287111520767212,-0.22582747042179108,0.21647432446479797,0.7784238233968465,0.9105515105599842,-0.755618890703078
2.3720569610595703,0.021383702754974365,-0.08021438121795654,0.13390231132507324,-1.3463643789291382,-0.32801857590675354,0.27319279313087463,0.7721948911338654,0.8961161669117748,-0.7389684579600885
2.3802409172058105,0.03190571069717407,-0.07078325748443604,0.1602042019367218,-1.4852015972137451,-0.4571424722671509,0.33096474409103394,0.765656881254727,0.8798391642488697,-0.7211505324600551
2.389704704284668,0.031993985176086426,-0.10003334283828735,0.1626225709915161,-1.8596572875976562,-0.603934109210968,0.3871878385543823,0.7577302126085481,0.8601605368056532,-0.7003988034467258
2.4002678394317627,0.034922778606414795,-0.20892858505249023,0.1878441572189331,-2.4650943279266357,-0.7012537717819214,0.4138987958431244,0.7465184426122922,0.8359790216809133,-0.67461403654415
2.4098498821258545,0.010774612426757812,-0.34766554832458496,0.22409582138061523,-3.2598671913146973,-0.7502090334892273,0.37581244111061096,0.7300087203177179,0.8072135234423107,-0.6426345756460259
2.419790744781494,-0.025643646717071533,-0.4493016004562378,0.27051740884780884,-4.189117431640625,-0.7313781380653381,0.27732765674591064,0.7061029308367603,0.7745920423597623,-0.6043777244754331
2.4298288822174072,-0.04676377773284912,-0.532092273235321,0.3261316418647766,-5.067467212677002,-0.7131454944610596,0.19494453072547913,0.6739748412860982,0.7396793574191461,-0.5608820928519894
2.4397740364074707,-0.054712772369384766,-0.5536499619483948,0.372711718082428,-5.823694705963135,-0.7362990379333496,0.14770831167697906,0.6341381587044219,0.7038298230144782,-0.5138739811616172
2.44990873336792,-0.018172144889831543,-0.46758508682250977,0.4190744161605835,-6.320582866668701,-0.8206096291542053,0.03419378027319908,0.5873520141234786,0.6684421696169254,-0.46559816354898736
2.459775924682617,0.043978989124298096,-0.3360798954963684,0.48010993003845215,-6.3273539543151855,-1.0369768142700195,-0.0324891097843647,0.5367343445340409,0.634927662480398,-0.4200429275013125
2.469933032989502,0.10392642021179199,-0.16730138659477234,0.5163198709487915,-5.685612201690674,-1.3049558401107788,-0.08167672902345657,0.48723163027050587,0.6037034806050778,-0.3803298756723731
2.4798707962036133,0.16623732447624207,0.15210020542144775,0.4795754551887512,-4.865318775177002,-1.4947258234024048,-0.11712580174207687,0.4427790691156213,0.5753772952110197,-0.3483851709158756
2.4898557662963867,0.19848307967185974,0.3965010344982147,0.35542356967926025,-4.134486198425293,-1.6304919719696045,-0.1486406922340393,0.404131571679812,0.5493733579528652,-0.32333483096232535
2.500203847885132,0.1938362419605255,0.33893924951553345,0.21211564540863037,-3.9809632301330566,-1.6236505508422852,-0.32220926880836487,0.3685257512101341,0.5254281722415649,-0.3032464199527073
2.5099477767944336,0.12380775809288025,0.04962149262428284,0.12047159671783447,-4.385671138763428,-1.4167354106903076,-0.6210047006607056,0.32997599800193544,0.5040954448021463,-0.2857072744808704
2.5200719833374023,-0.029794305562973022,-0.18799296021461487,0.05693143606185913,-5.134695053100586,-1.162517786026001,-0.9371110200881958,0.28443973515664656,0.48627330415907105,-0.26926055348737604
2.5298898220062256,-0.17063340544700623,-0.24459944665431976,-0.031230032444000244,-5.861070156097412,-1.0829967260360718,-1.2436926364898682,0.23047326512118751,0.47102104568666586,-0.25294574962513605
2.539930820465088,-0.2065187394618988,-0.18350324034690857,-0.013913512229919434,-6.85311222076416,-1.1959853172302246,-1.5950826406478882,0.16735935953379813,0.45646848216277447,-0.23721298999256113
2.5508337020874023,-0.1449124813079834,-0.0007660314440727234,0.11379331350326538,-7.580504894256592,-1.3496962785720825,-1.2596749067306519,0.09550951524332704,0.4414377694478628,-0.21881804168612287
2.5599679946899414,-0.03782385587692261,0.444715678691864,0.2474144697189331,-7.6875786781311035,-1.6442279815673828,-0.6396961212158203,0.021926948986383633,0.42510827742317603,-0.19504989198165248
2.5699899196624756,0.10941675305366516,0.5302305221557617,0.34127920866012573,-7.602646350860596,-1.8454952239990234,-0.44034236669540405,-0.05015849051887899,0.4079162102266141,-0.16879082307989732
2.579943895339966,0.14801904559135437,0.28335681557655334,0.39205503463745117,-7.386351108551025,-2.060058355331421,-0.4368397891521454,-0.12108310217273713,0.3905787355552551,-0.1435128730403806
2.589974880218506,0.046254962682724,0.19941271841526031,0.38610780239105225,-6.966091156005859,-2.2069926261901855,-0.35624703764915466,-0.18919563500113973,0.3727291396896769,-0.1202730348611914
2.60019588470459,-0.012472540140151978,0.18853166699409485,0.2907177805900574,-6.710792541503906,-2.2549989223480225,-0.14406926929950714,-0.2544202542076656,0.35545417624790115,-0.09758204480720058
2.6099929809570312,0.009056389331817627,0.21043792366981506,0.11700284481048584,-6.058571815490723,-2.3295578956604004,-0.06000472977757454,-0.3142715948396328,0.33813716736967125,-0.07603562453547208
2.6201629638671875,0.05855235457420349,0.1857370138168335,-0.03340768814086914,-5.870281219482422,-2.1670761108398438,-0.04663193225860596,-0.3710101347064314,0.32248335642916903,-0.05601420774709335
2.6300549507141113,0.036210209131240845,0.07981657981872559,-0.11668169498443604,-5.637701034545898,-1.9849014282226562,-0.03443470969796181,-0.42594289883789666,0.30897836657421607,-0.03697691576722299
2.640547752380371,-0.03881421685218811,0.013878166675567627,-0.11208635568618774,-5.347253322601318,-1.7731167078018188,-0.07381860166788101,-0.4786469594652927,0.2979316954241552,-0.019228817323484658
2.6506848335266113,-0.07663968205451965,-0.08198320865631104,-0.1054428219795227,-5.064106464385986,-1.599938988685608,-0.12108635157346725,-0.5287133277721484,0.28888134107843383,-0.0031321174010450936
2.660017967224121,-0.07969486713409424,-0.10856544971466064,-0.045291781425476074,-4.728468418121338,-1.4995425939559937,-0.1377319097518921,-0.5763312903616463,0.28112097251302204,0.011603260249745648
2.6700997352600098,-0.06026759743690491,-0.03489106893539429,0.04398924112319946,-4.229096412658691,-1.4687085151672363,-0.09705564379692078,-0.6198294246588715,0.273930228848526,0.025116572318144625
2.6801719665527344,-0.04063856601715088,0.05606412887573242,0.08443814516067505,-3.626674175262451,-1.4674416780471802,-0.05971945449709892,-0.6579263665936879,0.26641263769832785,0.03724301574925038
2.692214012145996,-0.02378872036933899,0.08058804273605347,0.08296453952789307,-3.1207685470581055,-1.4108505249023438,0.001574265188537538,-0.6905833566911987,0.258756833458908,0.04809663339773515
2.7019898891448975,-0.009097486734390259,0.06869637966156006,0.029160141944885254,-2.6250269412994385,-1.315795660018921,0.05358952656388283,-0.7183263882543718,0.25152005808335837,0.0579947961452525
2.71016788482666,-0.00849922001361847,0.09415894746780396,-0.036389172077178955,-2.1770293712615967,-1.223961353302002,0.07399173825979233,-0.7414486068384345,0.24463144525638675,0.06675656399078597
2.7203829288482666,-0.015888959169387817,0.08570444583892822,-0.07100605964660645,-1.759770393371582,-1.104483962059021,0.07517364621162415,-0.7603603638493327,0.23804082335607024,0.07418613035711874
2.7301249504089355,-0.026284456253051758,0.04387122392654419,-0.06444329023361206,-1.41167414188385,-0.9791613817214966,0.06523659825325012,-0.7756251620359357,0.23184716271466715,0.08029871725795262
2.7407259941101074,-0.044308751821517944,0.02370595932006836,-0.048539578914642334,-1.0873574018478394,-0.8388753533363342,0.05891158804297447,-0.7876115479705923,0.22614860415743773,0.08512182769722
2.7513608932495117,-0.06130701303482056,0.01869189739227295,-0.01875758171081543,-0.7842603921890259,-0.7122930884361267,0.06442135572433472,-0.7966408752790035,0.22110004453598833,0.08893397913380745
2.7602577209472656,-0.06906718015670776,0.03979039192199707,0.010506510734558105,-0.5108205676078796,-0.6019316911697388,0.08459053933620453,-0.8027558028227954,0.21672580852399093,0.09198610099879374
2.7704310417175293,-0.06880277395248413,0.07509660720825195,0.019502639770507812,-0.3000636696815491,-0.5019404888153076,0.104221872985363,-0.8064785997754765,0.21308050884497085,0.0945714907208375
2.780165910720825,-0.0636281669139862,0.09637916088104248,0.01040959358215332,-0.10858584940433502,-0.39520180225372314,0.10817187279462814,-0.8082491241291678,0.21013440792956226,0.09672177647020183
2.790118932723999,-0.06057579815387726,0.08379167318344116,-0.0030367374420166016,0.032319653779268265,-0.3015657365322113,0.10408732295036316,-0.8083581278719787,0.20780916687772244,0.09832665260957353
2.800971031188965,-0.05709083378314972,0.05340564250946045,-0.02058100700378418,0.08727531135082245,-0.21251441538333893,0.09695644676685333,-0.8075053097014949,0.20612378770449818,0.09956023269274608
2.8102009296417236,-0.05180284380912781,0.05128449201583862,-0.03880572319030762,0.08876010775566101,-0.1263250708580017,0.09246209263801575,-0.8064246000419943,0.20519987110781934,0.10061937751943494
2.820220947265625,-0.04628746211528778,0.05024665594100952,-0.04600101709365845,0.06876669824123383,-0.04985027015209198,0.09978312253952026,-0.8054553596366828,0.20513701672848958,0.10175729822024478
2.830203056335449,-0.04019096493721008,0.04475522041320801,-0.047432780265808105,0.03330136090517044,0.009659617207944393,0.09451581537723541,-0.8047263262933723,0.20584394366834424,0.1029876632890614
2.840327739715576,-0.04361565411090851,0.03500443696975708,-0.03980296850204468,0.019056111574172974,0.03663770854473114,0.06417655199766159,-0.8043747687945175,0.20683403108399429,0.10405583332934426
2.8506739139556885,-0.05280625820159912,0.006216704845428467,-0.020342528820037842,0.09425261616706848,0.07083859294652939,0.04964645206928253,-0.8037288454767897,0.20784624281983533,0.10468672367118292
2.860386848449707,-0.05255107581615448,-0.021736502647399902,-0.012069106101989746,0.19999314844608307,0.090079665184021,0.03184561803936958,-0.8022118564688517,0.20877776835781076,0.10484083750724041
2.870276927947998,-0.046672090888023376,0.010052740573883057,-0.030193686485290527,0.3215658366680145,0.10401692241430283,0.020377248525619507,-0.7996174637644089,0.20943601511711546,0.10441625443878376
2.8802528381347656,-0.041511550545692444,0.038661956787109375,-0.05146080255508423,0.4573596119880676,0.12892493605613708,0.0231581199914217,-0.7957516604384088,0.20997328384230254,0.10354979057696788
2.8902597427368164,-0.037496864795684814,0.03106588125228882,-0.06761842966079712,0.5756281018257141,0.15545526146888733,0.030107000842690468,-0.790614928908278,0.21054762409995845,0.10236199015093
2.9005508422851562,-0.03930376470088959,0.026652932167053223,-0.07723057270050049,0.6415764689445496,0.17400257289409637,0.03571481630206108,-0.7845422848143383,0.21124162186088133,0.10098966317498269
2.9102697372436523,-0.039309337735176086,0.032431840896606445,-0.07580351829528809,0.6133023500442505,0.169925719499588,0.03604228049516678,-0.7782720717279801,0.21200175702804863,0.09961313785248635
2.9203829765319824,-0.035239726305007935,0.023114264011383057,-0.06263524293899536,0.5059753656387329,0.15997028350830078,0.039698801934719086,-0.7726657849614734,0.21285571594369845,0.0984653888069063
2.9303019046783447,-0.03371632099151611,-0.0050852298736572266,-0.04071307182312012,0.3327675759792328,0.1376751959323883,0.038781289011240005,-0.7684357277537893,0.21386266276463212,0.09775522533176943
2.940408706665039,-0.03522220253944397,-0.032118916511535645,-0.022757887840270996,0.1363123059272766,0.1034458577632904,0.023926176130771637,-0.7660970672335178,0.21488350791178867,0.09749444820239497
2.950489044189453,-0.038685739040374756,-0.04697936773300171,-0.0016785860061645508,-0.03704332560300827,0.06351348012685776,0.01290521677583456,-0.7655868071244409,0.21579437617589378,0.09760503141861775
2.960378885269165,-0.0379810631275177,-0.05530965328216553,0.011139154434204102,-0.1392328143119812,0.031978461891412735,0.007018032483756542,-0.7664747087674533,0.216541621280705,0.09800343650139519
2.970409870147705,-0.03642237186431885,-0.041499316692352295,0.008200287818908691,-0.18399880826473236,0.007397927343845367,0.00914605800062418,-0.7680630263120953,0.21713628821679742,0.09859131164833437
2.9803757667541504,-0.038440167903900146,-0.01519632339477539,-0.010790884494781494,-0.1738969087600708,-0.004985238425433636,0.014752545394003391,-0.7698296384219113,0.21762777096720956,0.09929171579975701
2.9905457496643066,-0.04031425714492798,0.0037158727645874023,-0.03271985054016113,-0.1212771087884903,0.006004828028380871,0.02097954787313938,-0.7712452655930487,0.21812410631285647,0.10000245511484279
3.0014047622680664,-0.043059900403022766,0.005940496921539307,-0.05075836181640625,-0.04674322530627251,0.017118198797106743,0.0177770983427763,-0.7720374339304351,0.21859905325209464,0.1005259444524433
3.0104339122772217,-0.04596458375453949,0.008244216442108154,-0.053335368633270264,0.03882152959704399,0.02851657196879387,0.0146584277972579,-0.772016620378026,0.21897332036366282,0.10073373211242773
3.0205788612365723,-0.047971948981285095,0.008984565734863281,-0.04579305648803711,0.07970690727233887,0.03314301744103432,0.0033136289566755295,-0.771409444289269,0.21924647832392175,0.1006862717692259
3.0304527282714844,-0.04859185218811035,0.017499208450317383,-0.029542505741119385,0.11367326229810715,0.030019039288163185,-0.012136274017393589,-0.7704517273732903,0.21931427778094967,0.10032165597611653
3.0405328273773193,-0.04798586666584015,0.013194143772125244,-0.009068787097930908,0.12810999155044556,0.025975029915571213,-0.02770404890179634,-0.7693070194354076,0.21913859186047577,0.09967549844487852
3.0511789321899414,-0.043539345264434814,0.008325755596160889,0.0001965165138244629,0.1181320771574974,0.028478089720010757,-0.03858385980129242,-0.7681618948284952,0.21881800147911631,0.09883424381108848
3.0605828762054443,-0.03689442574977875,0.01952505111694336,-0.0012115240097045898,0.10051366686820984,0.037432968616485596,-0.04815978556871414,-0.7671237788757622,0.2181723370162348,0.0976774914493627
3.0705909729003906,-0.0341564416885376,0.02729785442352295,-0.0055051445960998535,0.08332502841949463,0.04954848811030388,-0.05610783398151398,-0.7662889858306408,0.21752919331655776,0.09642604673773324
3.0805249214172363,-0.03444373607635498,0.022249698638916016,-0.008121252059936523,0.07740748673677444,0.06616102159023285,-0.07077945023775101,-0.7655656242595681,0.21689495084577456,0.09502396470085984
3.0905518531799316,-0.033568620681762695,0.012973666191101074,-0.006711125373840332,0.09232097864151001,0.07910997420549393,-0.08452913910150528,-0.7648234626458372,0.21625393754376943,0.09339260364225753
3.1007769107818604,-0.0331793874502182,0.013314306735992432,-0.004141509532928467,0.11241158843040466,0.08167540282011032,-0.09706757217645645,-0.7639709545367983,0.21550093560390554,0.09151348394505691
3.1105458736419678,-0.027711883187294006,0.021589338779449463,-0.0032950639724731445,0.15150289237499237,0.08633881062269211,-0.10714705288410187,-0.7629505997336825,0.21448094217430783,0.08930275466726448
3.121217727661133,-0.022498011589050293,0.023971259593963623,0.0006945133209228516,0.1863037496805191,0.08600325882434845,-0.11495436728000641,-0.7616614613421065,0.21344282909710954,0.08693903402210068
3.130821704864502,-0.018371596932411194,0.027137696743011475,-0.0012288689613342285,0.20942874252796173,0.08819566667079926,-0.11948483437299728,-0.7600915492679637,0.21248519998217907,0.08454201047369714
3.1407999992370605,-0.0158424973487854,0.025740444660186768,-0.002692699432373047,0.23182113468647003,0.09589432924985886,-0.11868029087781906,-0.7583154965926662,0.21161141245835285,0.08212188279621933
3.150890827178955,-0.01253160834312439,0.016304373741149902,4.297494888305664e-05,0.2465076446533203,0.09760989248752594,-0.1230437234044075,-0.7563919978525037,0.21074944351183872,0.07962961676370628
3.1605818271636963,-0.01187780499458313,0.016271471977233887,0.0011855363845825195,0.23662836849689484,0.09574194997549057,-0.12918603420257568,-0.7544251372362064,0.20980014733204824,0.07703476648990486
3.1706180572509766,-0.009509265422821045,0.011382520198822021,0.005227029323577881,0.20145057141780853,0.09305451065301895,-0.13430675864219666,-0.7526968405049365,0.20878777694815268,0.07441769288374023
3.180621862411499,-0.005317062139511108,-0.0019168257713317871,0.011133968830108643,0.1655980348587036,0.08807200193405151,-0.14042963087558746,-0.7514136279500605,0.20768545766159396,0.07179232223926446
3.1906368732452393,-0.0028158873319625854,-0.008977532386779785,0.015512585639953613,0.12956805527210236,0.08302752673625946,-0.14431045949459076,-0.7505522621989592,0.206643760964803,0.06925878838647205
3.2008538246154785,-0.0044464170932769775,-0.009800434112548828,0.01397562026977539,0.10202351212501526,0.08225201815366745,-0.14366064965724945,-0.7500292171123766,0.20568636326798628,0.06683478921614729
3.2106258869171143,-0.0052881985902786255,-0.011726915836334229,0.00983363389968872,0.09894958138465881,0.08163447678089142,-0.1422853171825409,-0.7496592304280079,0.20483010404483276,0.06451704799967331
3.2207348346710205,-0.003659084439277649,-0.01637589931488037,0.004892230033874512,0.11586251854896545,0.08339269459247589,-0.13972735404968262,-0.7491730972675207,0.20401758721193655,0.06223187151225591
3.230638027191162,-0.0027205348014831543,-0.019185781478881836,0.002737760543823242,0.14024771749973297,0.08052545040845871,-0.1303909569978714,-0.7483846153663094,0.20325989180888657,0.059994424210168505
3.240719795227051,-0.001959070563316345,-0.018885791301727295,0.0011004209518432617,0.16428141295909882,0.08333960920572281,-0.11709272861480713,-0.7473302515820226,0.2025719960866942,0.057859638444284905
3.251016855239868,-0.000599205493927002,-0.01824319362640381,0.0025241971015930176,0.17837826907634735,0.08272886276245117,-0.10081575810909271,-0.7460181178869896,0.20204450499890753,0.05589806857569824
3.260774850845337,-0.0016172528266906738,-0.018500685691833496,0.002936124801635742,0.17202448844909668,0.07763423025608063,-0.08630605787038803,-0.7445827574256154,0.20168268784445487,0.05416885499808697
3.2707509994506836,-0.0008049458265304565,-0.028245866298675537,0.007312417030334473,0.15202690660953522,0.0753033459186554,-0.07283195108175278,-0.7432279287302712,0.20148639841493474,0.05268610312027704
3.2807297706604004,0.002072751522064209,-0.037284791469573975,0.012124359607696533,0.13218235969543457,0.0652959793806076,-0.06304323673248291,-0.7420550756779473,0.20133857479171796,0.05141078700623717
3.2907447814941406,0.003947347402572632,-0.032932937145233154,0.01633429527282715,0.11627086251974106,0.052858710289001465,-0.05890772119164467,-0.7410162356450481,0.20114758878140995,0.05026368274061837
3.301300048828125,0.0023995637893676758,-0.03189176321029663,0.02051299810409546,0.10107006877660751,0.040397245436906815,-0.0548996664583683,-0.7400604222346097,0.20089434967775877,0.049194725498232963
3.310825824737549,0.0037904828786849976,-0.03380650281906128,0.017786502838134766,0.08223985880613327,0.02961295284330845,-0.05274064093828201,-0.7392648795075989,0.20059579115108203,0.04822945381021805
3.320892810821533,0.007373452186584473,-0.029165267944335938,0.011995792388916016,0.06868010759353638,0.025450166314840317,-0.04231676086783409,-0.7386008284210782,0.20030828542094786,0.04739842735545216
3.3309059143066406,0.006923124194145203,-0.028638780117034912,0.008887767791748047,0.05715709179639816,0.02803720533847809,-0.033676400780677795,-0.738054005740807,0.2001339087915533,0.046735925844716635
3.3410067558288574,0.006856903433799744,-0.02307868003845215,0.006156980991363525,0.05081237852573395,0.02305576205253601,-0.02996954694390297,-0.7375717415085863,0.20001006055659903,0.04617056057796569
3.3514249324798584,0.0067458003759384155,-0.01928997039794922,0.003957867622375488,0.041451167315244675,0.020909255370497704,-0.023586109280586243,-0.7371327709194823,0.1999141263808762,0.045692124498867864
3.3613038063049316,0.008886754512786865,-0.019668996334075928,0.004695534706115723,0.028289292007684708,0.023079730570316315,-0.018427032977342606,-0.736779208937661,0.1999056564011435,0.04532905018579977
3.3709158897399902,0.007267579436302185,-0.01929086446762085,0.005925595760345459,0.01286158338189125,0.02559548430144787,-0.014468669891357422,-0.73657757998096,0.20001812048265913,0.04508448496598949
3.3808388710021973,0.002671167254447937,-0.016701936721801758,0.006231963634490967,-0.004716877825558186,0.023155497387051582,-0.013804211281239986,-0.7365432552491065,0.20016379900773587,0.044907898944651845
3.3908798694610596,0.002464979887008667,-0.01631110906600952,0.009245097637176514,-0.0079988744109869,0.019727520644664764,-0.015593643300235271,-0.7365923761808498,0.2003097117123924,0.044770306380728965
3.4010000228881836,0.0032455027103424072,-0.01818406581878662,0.012859582901000977,-0.00652215164154768,0.012737788259983063,-0.018276244401931763,-0.736649015131482,0.20038003364429105,0.04460065584367104
3.4108338356018066,0.0029594898223876953,-0.011581003665924072,0.01490563154220581,-0.003350543323904276,0.007744138594716787,-0.019227098673582077,-0.7366749716748412,0.20035839058971894,0.044387629944173154
3.420977830886841,0.001097068190574646,-0.005968868732452393,0.01464146375656128,-0.0007148126605898142,0.006142513360828161,-0.02243807166814804,-0.7366997773290073,0.20028001454379168,0.044147183526186226
3.431020736694336,-0.0011741667985916138,-0.010975122451782227,0.01538550853729248,-0.0004323679022490978,0.005967322736978531,-0.019805751740932465,-0.736701652337671,0.20019308455530935,0.04389559347720233
3.4410579204559326,-0.0009830743074417114,-0.014060497283935547,0.013069987297058105,0.0029636952094733715,0.007262950763106346,-0.01917378418147564,-0.7366852376317188,0.20013703775549682,0.04367057579161192
3.4516377449035645,0.0014832615852355957,-0.007272005081176758,0.009392619132995605,0.005410973913967609,0.007421319372951984,-0.016704127192497253,-0.7366257417769861,0.2000917499363506,0.04344653264905803
3.4609549045562744,0.0024923384189605713,-0.0033423304557800293,0.006383299827575684,0.004920952022075653,0.007078038062900305,-0.013180498965084553,-0.7365734735728464,0.20003734031228185,0.04324249451293731
3.471024990081787,0.00312824547290802,-0.004641115665435791,0.006651878356933594,0.0033708757255226374,0.009345142170786858,-0.012829494662582874,-0.7365141137620839,0.2000332916142437,0.04308646963387886
3.480888843536377,3.7863850593566895e-05,-0.006014704704284668,0.007928013801574707,-0.0055584367364645,0.002897363156080246,-0.020620040595531464,-0.7365556540244698,0.19998903831877995,0.042910535530619937
