timestamp,accel_x,accel_y,accel_z,rotation_x,rotation_y,rotation_z, pitch,roll,yaw
0.04049110412597656,-8.033961057662964e-05,-0.008558548986911774,0.008515596389770508,0.0034330107737332582,0.00788240134716034,0.013012435287237167,-0.020858614971952988,0.08819584348239667,0.0009204517566137159
0.04814600944519043,-0.004485473036766052,-0.012041851878166199,0.013310730457305908,-0.016034429892897606,0.010435307398438454,0.012256097979843616,-0.020969749620420797,0.08829861700242242,0.0010530008579015407
0.06038498878479004,-0.004004158079624176,-0.011669088155031204,0.013678789138793945,-0.02152625098824501,0.012930557131767273,0.009938827715814114,-0.02119212838866412,0.08839796288645337,0.001178797940069221
0.06835794448852539,-0.004284985363483429,-0.009431116282939911,0.011818766593933105,-0.008718577213585377,0.01562221348285675,0.007918820716440678,-0.021365085071011532,0.08851174473637066,0.0012733647466636683
0.07118415832519531,-0.004725731909275055,-0.0017929915338754654,0.01026850938796997,0.013773832470178604,0.013641664758324623,0.00473746145144105,-0.021356350420541275,0.08861720437314635,0.0013374761781256223
0.08047294616699219,-0.004145681858062744,0.004585321992635727,0.010506987571716309,0.03560163453221321,0.0179490614682436,0.004000564571470022,-0.021112015444130636,0.08873911380962084,0.0013587447297365859
0.08998799324035645,-0.003337383270263672,0.008696597069501877,0.004883170127868652,0.045198168605566025,0.02502099797129631,0.006629211362451315,-0.02067801470989844,0.08893791955816724,0.0013782371743065384
0.09994101524353027,-0.004260547459125519,0.008059615269303322,-0.0008518695831298828,0.039419908076524734,0.023724038153886795,0.005988720804452896,-0.02021626593930052,0.08918989724437401,0.00140880646679022
0.1098940372467041,-0.0037075355648994446,0.006929893046617508,-0.002358078956604004,0.027966415509581566,0.016997601836919785,0.0062610553577542305,-0.01982003140158553,0.08940000561799485,0.0014385179830588859
0.11991310119628906,0.0008011534810066223,0.001686612144112587,0.001755356788635254,0.011126451194286346,0.015380531549453735,0.0035771222319453955,-0.019554837639117185,0.08953006462335134,0.0014722285685328455
0.12999486923217773,0.001466020941734314,-0.0017852727323770523,0.009906470775604248,-0.004183962941169739,0.02080308273434639,0.004253244958817959,-0.019456145051173632,0.08968967336835586,0.001507952470538625
0.13996005058288574,-0.0031339675188064575,-0.0025418829172849655,0.010882556438446045,-0.018826821818947792,0.016136158257722855,0.0037800015415996313,-0.019526123574386604,0.08985014496242812,0.0015657082389695454
0.15000391006469727,-0.0016962140798568726,-0.00298486091196537,0.008550703525543213,-0.02699824795126915,0.006740305107086897,-0.0012895917752757668,-0.019755525105967082,0.08993906435137919,0.0015856543106891694
0.16005206108093262,0.0037291795015335083,-0.0010177195072174072,0.00797945261001587,-0.02550394833087921,-5.7946424931287766e-05,-0.0019969274289906025,-0.020062001045164275,0.08994636320765653,0.0015895552523699653
0.1701490879058838,0.004174813628196716,0.0008315276354551315,0.00815802812576294,-0.021345105022192,0.002190960105508566,-0.0007122715469449759,-0.020364306844239795,0.08992846169133331,0.0016007771955916146
0.18020009994506836,0.000375598669052124,0.00011631101369857788,0.007204771041870117,0.004645481240004301,0.010975129902362823,0.00912358146160841,-0.020514979274556026,0.08997448414707207,0.0016336746670522415
0.19022893905639648,-0.0025802254676818848,0.0012884028255939484,0.004622340202331543,0.02561965584754944,0.007262639235705137,0.013939960859715939,-0.020380457914077797,0.0900464596955969,0.0017456081836588263
0.2003321647644043,-0.0006823688745498657,0.008134152740240097,0.00416797399520874,0.04186174273490906,-0.0002136528491973877,0.018762145191431046,-0.02003488160618828,0.09008600713951859,0.0018771368708435814
0.21033811569213867,0.004175938665866852,0.008532557636499405,0.005701839923858643,0.0381656251847744,0.00048493919894099236,0.017789507284760475,-0.01959061363753578,0.09009449525553424,0.0020251783283935566
0.22034502029418945,0.004589766263961792,0.005736788734793663,0.004639565944671631,0.02720831334590912,0.004163297358900309,0.017783116549253464,-0.01922774468659753,0.09010733746396149,0.0021711309992079506
0.23011112213134766,0.0005551725625991821,0.0009222682565450668,0.007521688938140869,0.011704539880156517,0.010073695331811905,0.015583558939397335,-0.01900682155178709,0.09017454543239174,0.002319700378330943
0.2400970458984375,-0.0006809160113334656,-0.0034501180052757263,0.009832322597503662,-0.002438710071146488,0.005171614233404398,0.01166524924337864,-0.018954151302447864,0.0902818494902925,0.0024579293660540805
0.2501220703125,0.002085745334625244,0.00041057169437408447,0.007539212703704834,-0.001980047207325697,-0.003618504386395216,0.007843665778636932,-0.018984459581037633,0.09032303781869863,0.0025611800567103197
0.2601308822631836,0.005999431014060974,0.005769191309809685,0.006752610206604004,0.011878510005772114,-0.009219398722052574,0.006438582204282284,-0.01895115011331092,0.09025421637186161,0.002612356790356613
0.2701292037963867,0.008080162107944489,0.00807299092411995,0.005651235580444336,0.031415194272994995,-0.007458515930920839,0.0068164849653840065,-0.01875302873000836,0.09015637714649213,0.0026636050037686493
0.2805361747741699,0.0037740468978881836,0.008628085255622864,0.002505660057067871,0.047611743211746216,-0.00740259001031518,0.013943636789917946,-0.01841149922705648,0.09008233466296153,0.002726883580203455
0.2901890277862549,0.002993673086166382,0.011830255389213562,3.0159950256347656e-05,0.05581076443195343,-0.006714739836752415,0.01783648505806923,-0.017910051559692514,0.09005305423276312,0.002839954870789104
0.3001551628112793,0.007022388279438019,0.01362602598965168,-0.004090070724487305,0.056269627064466476,-0.012473293580114841,0.016689462587237358,-0.017380678085234073,0.08999051495254311,0.002968358061461914
0.3101470470428467,0.007452525198459625,0.010875459760427475,-0.003843545913696289,0.04662385582923889,-0.008288312703371048,0.01461161021143198,-0.016850527500406928,0.08989485873177917,0.0030725979637531665
0.3202240467071533,0.0045185387134552,0.0020540617406368256,0.002531111240386963,0.026176106184720993,-0.0053567043505609035,0.00865811388939619,-0.01645556214511644,0.08983729753094034,0.003156488877876865
0.3308448791503906,0.0017486214637756348,0.0016021057963371277,0.00809246301651001,0.00579080730676651,-0.009697036817669868,0.003642156720161438,-0.016312404038296924,0.08978389805686583,0.003204540036582791
0.3402750492095947,0.0036121755838394165,-0.00025676749646663666,0.010522782802581787,-0.010909875854849815,-0.010911170393228531,-0.0018522110767662525,-0.01640127194794509,0.08972075895395983,0.003211778607270085
0.35044288635253906,0.004597611725330353,-0.002287779003381729,0.011761724948883057,-0.016557058319449425,-0.012129168957471848,-0.0024136588908731937,-0.016601256155645894,0.08965084735842936,0.003193484740533238
0.36037111282348633,0.004826217889785767,-0.000729825347661972,0.01100534200668335,-0.003738465951755643,-0.013552894815802574,0.0001027621328830719,-0.016782828127790306,0.0895441342537809,0.003187399183884368
0.3704490661621094,0.006063617765903473,0.0042484961450099945,0.007631480693817139,0.017651410773396492,-0.019019830971956253,0.0025425907224416733,-0.016794133453183435,0.08938949143107609,0.0031985093431781994
0.3815279006958008,0.0076274573802948,0.006845904514193535,0.006720781326293945,0.05181071534752846,-0.021682726219296455,0.0015098167350515723,-0.01653128364313152,0.08921308921033473,0.0031853722918475267
0.39042186737060547,0.007411345839500427,0.009045861661434174,0.004226326942443848,0.1000712513923645,-0.016454940661787987,0.010600357316434383,-0.015841855252496227,0.08907669223467543,0.0031751078079787867
0.4004189968109131,0.0025450214743614197,0.01587696373462677,0.0014472007751464844,0.14581556618213654,-0.011441806331276894,0.016885682940483093,-0.014610585727619677,0.08896653541450444,0.003210161458251612
0.41033220291137695,-3.713369369506836e-05,0.021822448819875717,-0.0006743073463439941,0.17112912237644196,-0.010627144947648048,0.014873559586703777,-0.01301370297933575,0.08887607265923515,0.00323390358045636
0.42050695419311523,-0.0009016320109367371,0.016520455479621887,0.0029151439666748047,0.15677015483379364,0.0038492653984576464,0.016346553340554237,-0.011403345739217157,0.08888436082779765,0.0032214579565327814
0.43233704566955566,-0.004434406757354736,0.00846128910779953,0.006404697895050049,0.1396862417459488,0.002431754022836685,0.029111137613654137,-0.00983412900534849,0.0889521897406046,0.0033178889754179623
0.4412069320678711,-0.003060467541217804,-0.0001829909160733223,0.0065615177154541016,0.07225047051906586,0.0017478542868047953,0.006230589002370834,-0.008804290425568153,0.0890119648230261,0.003413920749675432
0.45067906379699707,-0.0009297803044319153,-0.0035424884408712387,0.01876169443130493,0.0156108308583498,0.013624576851725578,0.013496970757842064,-0.008440629289725571,0.08912447898733168,0.003453458520963168
0.46051788330078125,-0.01103384792804718,-0.018027812242507935,0.02401900291442871,-0.033034469932317734,0.021917393431067467,0.006049174815416336,-0.008613218194924409,0.08935719214517203,0.003571344805727032
0.470552921295166,-0.009466886520385742,-0.02433573082089424,0.02216094732284546,-0.04940824955701828,0.018806643784046173,0.0028148721903562546,-0.009138074734516277,0.08960745312328072,0.0036434005739527696
0.4811282157897949,-0.00612892210483551,-0.009009720757603645,0.019834935665130615,-0.03346603363752365,0.017969878390431404,0.010201682336628437,-0.009681228855260838,0.08979548694542541,0.003750672381488959
0.4905250072479248,-0.004564642906188965,0.0005956143140792847,0.01401376724243164,-0.0008145980536937714,0.026917167007923126,0.01617637649178505,-0.009978862316950148,0.09001764816185523,0.003894966633561592
0.5005021095275879,-0.005839310586452484,0.0032739536836743355,0.008391201496124268,0.019076552242040634,0.02434455417096615,0.022595128044486046,-0.009955551873859212,0.090271006890607,0.004084610510430988
0.5106081962585449,-0.006404228508472443,0.011184917762875557,0.004253804683685303,0.022209061309695244,0.025328591465950012,0.021616043522953987,-0.009765526286097089,0.09048569096842836,0.004289755219527162
0.5206179618835449,-0.005007557570934296,0.009081004187464714,0.006749093532562256,0.005012764595448971,0.03312020003795624,0.020860770717263222,-0.00958061162426728,0.09075317858768733,0.004482464808758546
0.5311400890350342,-0.004465386271476746,0.0007281722500920296,0.006808102130889893,-0.013147912919521332,0.03719630464911461,0.015764333307743073,-0.00957162651944188,0.09111276144289757,0.004670340203332647
0.540579080581665,-0.005541540682315826,-0.0013183578848838806,0.005011439323425293,-0.025501253083348274,0.02968245930969715,0.01628871075809002,-0.009649776899971953,0.0913967271618961,0.004860085024108986
0.5506100654602051,-0.0033233389258384705,-0.0014676032587885857,0.004472553730010986,-0.02364807389676571,0.021418094635009766,0.007388691417872906,-0.009753250101284755,0.09160564791330221,0.005008044696014125
0.5606110095977783,0.0004688054323196411,0.0035624373704195023,0.008895814418792725,-0.006260829046368599,0.017915505915880203,0.0089149484410882,-0.009850167012937495,0.09178161265558675,0.005091783727802553
0.5707080364227295,0.0001693442463874817,0.006628255359828472,0.007694840431213379,0.0060883816331624985,0.008685344830155373,0.00984370056539774,-0.009851367984894839,0.09189847606085405,0.005194105061495414
0.5807449817657471,0.002482987940311432,0.010177786462008953,0.001759648323059082,0.017141301184892654,0.0007997248321771622,0.005983448121696711,-0.009750316972904202,0.09190410694512394,0.005267095216123326
0.5914430618286133,0.005224436521530151,0.010184355080127716,-5.02467155456543e-05,0.03810039162635803,0.001334708882495761,0.008550149388611317,-0.00953011660645011,0.09186309251118212,0.005310939038031496
0.6018099784851074,0.0030273497104644775,0.00997221004217863,-0.0016153454780578613,0.04524032771587372,-8.95494595170021e-05,0.012283368036150932,-0.00913189121917446,0.09183191880430101,0.005375692695258377
0.6107401847839355,-0.00022688508033752441,0.012105614878237247,-0.0025860071182250977,0.06373132020235062,0.0032807698007673025,0.013524508103728294,-0.008585379266716025,0.09182028491652358,0.005448711159217759
0.6205801963806152,0.0009659677743911743,0.008549477905035019,-0.001739203929901123,0.07421378791332245,-0.0008777561597526073,0.01352930162101984,-0.007869031013100875,0.09180174039166497,0.005531605924322521
0.6311969757080078,-0.00185355544090271,0.006349173374474049,-0.0015318989753723145,0.07790452986955643,-0.0035661286674439907,0.013385863974690437,-0.007093851168009542,0.09176719300372489,0.005584058823832128
0.6407709121704102,-0.0012901201844215393,0.004762910772114992,0.0035581588745117188,0.06592775881290436,-0.005932347383350134,0.012875601649284363,-0.006391278272798536,0.09172191686260782,0.005656445484732371
0.6512410640716553,0.0003773495554924011,-0.00047234445810317993,0.006053566932678223,0.06018226221203804,-0.00698882294818759,0.01261700876057148,-0.00579766531806302,0.09167134592629783,0.00573386355077251
0.6605901718139648,0.0006122291088104248,-0.0037661618553102016,0.010349869728088379,0.03750251606106758,-0.009128673002123833,0.00877273641526699,-0.005368331039522064,0.09160380129625123,0.005806056294185069
0.6707921028137207,-0.0017945021390914917,-0.007392841391265392,0.01594001054763794,0.00929208192974329,-0.005054391920566559,0.011000683531165123,-0.00521082950453488,0.09155357906405685,0.005883326258205417
0.6813540458679199,-0.0008047819137573242,-0.01273760013282299,0.01662343740463257,-0.00044230464845895767,0.0076744528487324715,0.0097761619836092,-0.005245530602270201,0.09158636037077164,0.005978442405951026
0.6907200813293457,-0.0030370280146598816,-0.014676310122013092,0.013029873371124268,0.006773913279175758,0.006998320575803518,0.014318982139229774,-0.005307409907067119,0.09166748781594183,0.006087252312291011
0.7008800506591797,-0.004964843392372131,-0.006218345370143652,0.009213864803314209,0.025590477511286736,-0.0038247662596404552,0.021173426881432533,-0.005196002314980903,0.09168798563370355,0.006253219425958418
0.7107710838317871,-5.344301462173462e-05,0.0027832351624965668,0.009619057178497314,0.04289732873439789,-0.007486256770789623,0.023138519376516342,-0.004876667844572246,0.09161316030108088,0.0064393999164134045
0.7208771705627441,0.0007060840725898743,0.00658141914755106,0.007461190223693848,0.046004973351955414,-0.007116876542568207,0.025878380984067917,-0.004420152309016149,0.09153976533024695,0.0066415030439502505
0.7310051918029785,-0.003620646893978119,0.0022387830540537834,0.0033339858055114746,0.03141942247748375,-0.007675208151340485,0.02420905791223049,-0.004017301556255919,0.09147152417987411,0.0068613259581705695
0.7408480644226074,-0.004618793725967407,-0.0020126786548644304,0.0030208826065063477,0.01171495858579874,-0.008012630976736546,0.022302500903606415,-0.00376741964227,0.09140118578189717,0.007075404659433165
0.7508890628814697,-0.00458720326423645,-0.0019988396670669317,0.0044792890548706055,-0.005918828770518303,-0.010644190013408661,0.017499275505542755,-0.0036772859712026914,0.09130814373869912,0.007265008574882157
0.760883092880249,-0.0056031495332717896,-0.0023590640630573034,0.007187366485595703,-0.025407841429114342,-0.007052916567772627,0.014744236133992672,-0.0037628533472835565,0.0912251363818954,0.007435013692263887
0.7708868980407715,-0.005493052303791046,-0.0049962992779910564,0.008503377437591553,-0.027180008590221405,-0.005172813776880503,0.013955621048808098,-0.003943423898891793,0.09117593313205662,0.0075945082352504596
0.7812981605529785,-0.0036022961139678955,-0.00016302336007356644,0.006008565425872803,-0.011333667673170567,-0.009252509102225304,0.011944668367505074,-0.004099774954200468,0.09108538806664157,0.007734304034919444
0.7908182144165039,-0.002452246844768524,0.007151545956730843,0.00513380765914917,0.009843822568655014,-0.012453628703951836,0.013215315528213978,-0.004109423272950837,0.09097247515787785,0.007861970745858178
0.8010680675506592,-0.00023527443408966064,0.011307181790471077,0.0010690689086914062,0.025927716866135597,-0.008369673043489456,0.011868821457028389,-0.003951590337189464,0.09087601544237757,0.007969461184380692
0.810999870300293,-0.001964762806892395,0.013572566211223602,0.00033026933670043945,0.02630189061164856,-0.007100320886820555,0.010070707648992538,-0.0036851043150232013,0.090789259233409,0.008052832607197434
0.8209860324859619,-0.003595702350139618,0.014113234356045723,1.7821788787841797e-05,0.015813030302524567,-0.005279251839965582,0.0034916347358375788,-0.003449610585508064,0.09071081203380042,0.008098515919508545
0.8311970233917236,-0.0037816092371940613,0.009875288233160973,0.004540085792541504,0.00402143644168973,-0.0019381828606128693,-0.003848729655146599,-0.003338800323387188,0.09065231068551757,0.008085554890148623
0.8410360813140869,-0.007208138704299927,0.003984205424785614,0.008388698101043701,-0.006385930813848972,-0.000961868092417717,-0.009494364261627197,-0.0033399905936333666,0.09061493578267474,0.008012582730274992
0.8519248962402344,-0.0076215267181396484,0.0025843463372439146,0.009753167629241943,-0.014995930716395378,-0.009155083447694778,-0.014962367713451385,-0.0034428536562478495,0.09053977169259222,0.007903138925344055
0.8610138893127441,-0.004885740578174591,0.003010335611179471,0.011535346508026123,-0.018108366057276726,-0.0152963325381279,-0.017183177173137665,-0.0036272168039191317,0.09039745825652624,0.007754486220970237
0.8710160255432129,-0.0023244619369506836,0.002604847773909569,0.01191699504852295,-0.024766404181718826,-0.01838737353682518,-0.01219230704009533,-0.0038953784426336425,0.09021588962188432,0.007622267532700457
0.8812031745910645,-0.002961188554763794,0.0043429103679955006,0.0076296329498291016,-0.025888392701745033,-0.019559431821107864,-0.010524901561439037,-0.004217253320984323,0.09002799423914958,0.0075278866666104016
0.8910369873046875,-0.0025748610496520996,0.00022793887183070183,0.0061511993408203125,-0.021132634952664375,-0.020585590973496437,-0.00924685038626194,-0.004532789108819889,0.08982407198562957,0.007446424273780211
0.9010481834411621,-0.004046216607093811,-0.0021420754492282867,0.006229579448699951,-0.018442843109369278,-0.019362401217222214,-0.008051890879869461,-0.004797094116712338,0.08961623876047288,0.00738520307016037
0.9111840724945068,-0.004170551896095276,-0.00017863092944025993,0.0064775943756103516,-0.022570893168449402,-0.023703664541244507,-0.008970574475824833,-0.005046177408715027,0.08938881497517552,0.007311965183238587
0.9211270809173584,-0.004647873342037201,-0.0022612721659243107,0.00904703140258789,-0.036484844982624054,-0.021183250471949577,-0.009631038643419743,-0.005358803068396222,0.08913282968399029,0.007244653078160633
0.9316060543060303,-0.004938438534736633,-0.00774026894941926,0.010330021381378174,-0.0505814403295517,-0.016001582145690918,-0.005659625865519047,-0.005802405971788186,0.08891923709091068,0.007194717575569233
0.9411931037902832,-0.005791120231151581,-0.009035731665790081,0.013315677642822266,-0.06517688930034637,-0.010743170976638794,-0.003602600423619151,-0.0063807173384602235,0.08876453721135105,0.0072016311680312235
0.9519460201263428,-0.006142519414424896,-0.00796806812286377,0.014446616172790527,-0.08332688361406326,-0.004075546748936176,-0.0013510575518012047,-0.007113607203160565,0.08868882881323936,0.007236742458583278
0.9612669944763184,-0.005944535136222839,-0.00998280942440033,0.013238251209259033,-0.09774816781282425,-0.005427633412182331,-0.0034528241958469152,-0.008029741660034043,0.08864386643378831,0.007300414790624554
0.9711520671844482,-0.003370240330696106,-0.010743380524218082,0.012594878673553467,-0.11132389307022095,-0.00792008638381958,-0.005172959994524717,-0.009065009186412412,0.08857251338911039,0.00735279148676841
0.9813709259033203,-0.0020718351006507874,-0.009390302002429962,0.015066206455230713,-0.1346752941608429,-0.013397942297160625,-0.010394087061285973,-0.010260202760592215,0.08844956534857326,0.007382571569736872
0.9912118911743164,-0.0037101134657859802,-0.008621240966022015,0.017505288124084473,-0.17124122381210327,-0.016402076929807663,-0.01643488183617592,-0.011764794147461958,0.08828813693914246,0.007385646913984784
1.0011930465698242,-0.002431713044643402,-0.011771594174206257,0.02130025625228882,-0.2156454473733902,-0.025016071274876595,-0.024099726229906082,-0.013679340205504424,0.08806384575815808,0.00734603849254366
1.0112390518188477,-0.0032879114151000977,-0.015484768897294998,0.025914788246154785,-0.27250024676322937,-0.03304830193519592,-0.031090471893548965,-0.0160652635078409,0.08776229689623234,0.007278364336942655
1.021238088607788,-0.0025490596890449524,-0.018650075420737267,0.029714107513427734,-0.34020233154296875,-0.05281800776720047,-0.03217810392379761,-0.019093711065094904,0.08733155265279553,0.007229410159841921
1.0314278602600098,-0.0028927773237228394,-0.020511116832494736,0.037564218044281006,-0.4093591570854187,-0.0663209930062294,-0.036847375333309174,-0.022771354682097494,0.08671820206959466,0.007216318242499608
1.041229009628296,-0.0015940368175506592,-0.027559898793697357,0.048558831214904785,-0.5462863445281982,-0.09036773443222046,-0.046603064984083176,-0.02744124197431557,0.08597588584124763,0.007220054692246167
1.0512239933013916,0.0007886067032814026,-0.026133425533771515,0.060295939445495605,-0.7036914229393005,-0.1414831131696701,-0.07012251019477844,-0.03361653214925855,0.08480996876382578,0.007162274449215527
1.06125807762146,0.003700442612171173,-0.0471181645989418,0.07757562398910522,-0.9666804671287537,-0.18195465207099915,-0.11045262217521667,-0.041927164538823135,0.08318403199906839,0.006987533717948707
1.0712509155273438,0.008607625961303711,-0.09264271706342697,0.0784752368927002,-1.3899673223495483,-0.24342244863510132,-0.19775402545928955,-0.0536364136515512,0.08104437653308003,0.006416870787858652
1.0814530849456787,0.009333021938800812,-0.1078784242272377,0.09095513820648193,-1.8603910207748413,-0.24067460000514984,-0.25651028752326965,-0.07006337332401487,0.07851008292600441,0.005408079962226692
1.0912408828735352,0.005581088364124298,-0.1417902410030365,0.10338813066482544,-2.287562608718872,-0.22269737720489502,-0.28756460547447205,-0.0909818293156251,0.07618235813463808,0.004318010907851484
1.1012921333312988,-0.0014701709151268005,-0.15494313836097717,0.08833593130111694,-2.6958563327789307,-0.30041345953941345,-0.34865298867225647,-0.1161107982976882,0.07345663143710043,0.0030056592552551394
1.1112890243530273,-0.0058549195528030396,-0.1352909356355667,0.10222899913787842,-3.1110403537750244,-0.39691656827926636,-0.40375590324401855,-0.1454158868514148,0.06974187822558606,0.0013075496370413993
1.1213440895080566,0.012276679277420044,-0.1455199420452118,0.11765938997268677,-3.502241849899292,-0.48807764053344727,-0.4364326298236847,-0.17874249093121378,0.06494415196880231,-0.0007150603906745731
1.131516933441162,0.02487805485725403,-0.15304867923259735,0.11826473474502563,-3.8002896308898926,-0.5620406270027161,-0.48523497581481934,-0.2155819349799266,0.05926060702628441,-0.0031053075085511295
1.1413259506225586,0.015009663999080658,-0.14438387751579285,0.12293964624404907,-4.1400933265686035,-0.6846951842308044,-0.4891261160373688,-0.25553907803423676,0.05235682655439573,-0.0058364968892697195
1.1514301300048828,-0.003017846494913101,-0.1196092963218689,0.11798620223999023,-4.37445068359375,-0.7446067333221436,-0.4995173215866089,-0.29844306987268593,0.0443762030539966,-0.008826947725758727
1.1615371704101562,0.012968502938747406,-0.11343821883201599,0.10292810201644897,-4.5599751472473145,-0.8670322299003601,-0.5332134962081909,-0.34330165621954495,0.03526937087497912,-0.012341482541233415
1.1714701652526855,0.011062445119023323,-0.09373360872268677,0.06884551048278809,-4.6537628173828125,-0.9510794878005981,-0.5536003112792969,-0.38966831848765104,0.024531126467770253,-0.01674139223654582
1.1816110610961914,0.005882496014237404,-0.06408485770225525,0.06898701190948486,-4.60617733001709,-1.0225642919540405,-0.5250440835952759,-0.43618331548999617,0.01268515915861745,-0.021667571411987743
1.191399097442627,0.004426858387887478,-0.0282784104347229,0.03251826763153076,-4.511584281921387,-1.1287466287612915,-0.5354520678520203,-0.48191199766061077,-0.0006220970855000206,-0.027287833601886722
1.2013921737670898,-0.012340945191681385,0.026852846145629883,0.014512777328491211,-4.260881423950195,-1.137621283531189,-0.450298547744751,-0.525893732886029,-0.015000989272795017,-0.03339789390371265
1.211395025253296,-0.010308055207133293,0.050137877464294434,-0.028643488883972168,-3.9095821380615234,-1.0744763612747192,-0.3575325012207031,-0.5667017962185597,-0.02905863168938792,-0.03913689752576586
1.221451997756958,-0.010658960789442062,0.09077858924865723,-0.10714846849441528,-3.4269118309020996,-0.92075115442276,-0.27004313468933105,-0.6034858286806494,-0.042163482426150665,-0.04453920797348876
1.232065200805664,-0.021277260035276413,0.11561936140060425,-0.16276943683624268,-2.5585548877716064,-0.6438204646110535,-0.1596011072397232,-0.6335467200197547,-0.052536585069486635,-0.04888125296842077
1.2414710521697998,-0.027422305196523666,0.1316617727279663,-0.224490225315094,-1.4164016246795654,-0.3959672451019287,-0.15410619974136353,-0.6535106366024617,-0.05972616091974956,-0.05219544735647944
1.251676082611084,-0.058697644621133804,0.20445972681045532,-0.2347988486289978,0.12872019410133362,-0.017736319452524185,-0.11766775697469711,-0.6601988827563897,-0.06331289681715338,-0.054475070454119506
1.2616229057312012,-0.09186394512653351,0.27321064472198486,-0.23869585990905762,1.9977070093154907,0.3898322582244873,-0.11750530451536179,-0.6496619455526536,-0.06183066611573296,-0.05507335460003129
1.272010087966919,-0.12248951941728592,0.3581111431121826,-0.27573251724243164,4.039429664611816,0.7810757756233215,-0.1596359759569168,-0.6193271163968496,-0.055562982733407665,-0.05454142017488491
1.2820560932159424,-0.14826585352420807,0.46873295307159424,-0.274641215801239,5.9771223068237305,1.2399765253067017,-0.2417023479938507,-0.5692351237180324,-0.045344751877296516,-0.053952780442728436
1.2915658950805664,-0.16216185688972473,0.5448083877563477,-0.2453431487083435,7.829779148101807,1.8463133573532104,-0.22364984452724457,-0.4999269425363961,-0.0296931836358677,-0.05362876412068506
1.301558017730713,-0.1975208967924118,0.6265262365341187,-0.267907977104187,9.512393951416016,2.39355731010437,-0.22917644679546356,-0.41289199239103525,-0.008650620699501673,-0.05433826507417807
1.3115758895874023,-0.24081920087337494,0.7835556268692017,-0.23760628700256348,11.13998794555664,2.8310983180999756,-0.1835702806711197,-0.3095125073900293,0.016634668495150613,-0.057025799975493806
1.3216018676757812,-0.2546532452106476,0.9008156657218933,-0.11511117219924927,12.55231761932373,3.167814016342163,-0.05169374868273735,-0.1909958673537959,0.04536454669912992,-0.062121810468742406
1.3317279815673828,-0.26229336857795715,1.0648882389068604,0.005761981010437012,13.36786937713623,3.316192865371704,0.16951267421245575,-0.06080531787037753,0.07708709151390487,-0.06953921576540228
1.341583013534546,-0.2581046521663666,1.2551628351211548,0.10345786809921265,13.228172302246094,3.2674338817596436,0.33289334177970886,0.07279309817148753,0.1103041671532894,-0.07953901023458175
1.3517770767211914,-0.21187403798103333,1.2311887741088867,0.24636876583099365,11.873144149780273,3.1060101985931396,0.2558903098106384,0.1985553576341709,0.14415005998303343,-0.0924552417222416
1.361680030822754,-0.19140532612800598,0.9991393685340881,0.37357211112976074,9.7362699508667,3.0124409198760986,-0.14714473485946655,0.3056172883314386,0.17892240371555118,-0.10973576102366811
1.3716480731964111,-0.26888155937194824,0.681032657623291,0.4942326545715332,7.626168251037598,3.217736005783081,-0.6912829279899597,0.3900515852822145,0.21776464450623997,-0.13208273055879322
1.3816919326782227,-0.38580209016799927,0.36185407638549805,0.515444815158844,6.232465744018555,3.1670594215393066,-1.5564675331115723,0.4541315557745844,0.26222441688273773,-0.16187724309684226
1.3916680812835693,-0.445691853761673,0.008734017610549927,0.6634932160377502,5.468649864196777,2.798429250717163,-2.1964194774627686,0.5045918045273593,0.31035025001755834,-0.20098778023620684
1.401865005493164,-0.31027722358703613,-0.20547771453857422,0.9370273351669312,5.405627250671387,2.4389758110046387,-2.377631187438965,0.5479605682785801,0.3596336593868945,-0.24686182752202063
1.411689043045044,-0.028975367546081543,0.1009250283241272,0.9150857925415039,5.521894454956055,1.798471212387085,-2.3090121746063232,0.5899181664946516,0.4080557219597736,-0.2970506838214253
1.4215989112854004,0.24412626028060913,0.4317324161529541,0.6839572191238403,5.482913970947266,1.1869195699691772,-2.36956524848938,0.6303744040376539,0.4537304273142252,-0.35101941625016253
1.432042121887207,0.4448902904987335,0.37850481271743774,0.5645201802253723,5.233715534210205,0.9705708622932434,-2.5516464710235596,0.6668454071128517,0.49964257514226335,-0.4095098861754044
1.4417948722839355,0.4022693932056427,0.14723354578018188,0.4159116744995117,4.679863452911377,1.1600631475448608,-2.662684440612793,0.6970041892784891,0.548817763356289,-0.47084867428304944
1.4520668983459473,0.17419752478599548,0.018933892250061035,0.2825677990913391,4.1208319664001465,1.5820703506469727,-2.630673885345459,0.7193996641523963,0.6020663707053073,-0.5315675265125023
1.46185302734375,-0.00925949215888977,-0.002034604549407959,0.14233088493347168,3.7954299449920654,1.9427698850631714,-2.5388710498809814,0.7359890317982098,0.6592136825223467,-0.5907807210738628
1.4717421531677246,-0.07117778062820435,0.0557517409324646,0.10688245296478271,3.553696393966675,2.145016670227051,-2.330507755279541,0.7489342347992664,0.7186301597982132,-0.6480975247569832
1.4818711280822754,-0.053588926792144775,0.11539465188980103,0.2553979158401489,3.2624452114105225,2.2494752407073975,-2.1902339458465576,0.7585978299661968,0.7779240676195567,-0.7027215294038033
1.4918341636657715,0.006313920021057129,-0.007064938545227051,0.3712575137615204,2.805845260620117,2.182766914367676,-1.9025405645370483,0.7647437176141564,0.834800525449983,-0.7528905845280225
1.5017509460449219,0.035322487354278564,-0.18335193395614624,0.4525572657585144,2.367647886276245,1.9753869771957397,-1.5583581924438477,0.7685329114577487,0.8854164102135971,-0.7957432714292817
1.5117790699005127,0.03473466634750366,-0.2957579493522644,0.5015850067138672,2.0233328342437744,1.9286296367645264,-1.2438158988952637,0.7709204390519969,0.9298537909295534,-0.8318274035712332
1.5218448638916016,0.014458954334259033,-0.4472259283065796,0.4583643674850464,1.7496272325515747,1.9660532474517822,-0.9476014971733093,0.7729731562170084,0.9705065396818755,-0.8620633412334053
1.531816005706787,-0.05508500337600708,-0.5589025020599365,0.31017035245895386,1.4175305366516113,1.8591786623001099,-0.5405071973800659,0.7754095293700373,1.0067558128250953,-0.8864126033024531
1.541841983795166,-0.06631922721862793,-0.5407838821411133,0.19609764218330383,1.1806221008300781,1.7421133518218994,-0.1579902023077011,0.7792075583643094,1.0373378845318901,-0.9044106860501214
1.551866054534912,-0.00748974084854126,-0.48052579164505005,0.0864298939704895,1.0592237710952759,1.6707273721694946,0.10483875870704651,0.7845852142550017,1.064170563203549,-0.918221782381527
1.5618820190429688,-0.013351082801818848,-0.434643030166626,-0.03938445448875427,0.9552220106124878,1.5482858419418335,0.28042441606521606,0.7911175465720175,1.0882900411135203,-0.9295295996641768
1.571850061416626,-0.015338718891143799,-0.3770202398300171,-0.09301292896270752,0.8201785683631897,1.4732087850570679,0.3663901090621948,0.7981172636992986,1.109999396111563,-0.9386761751799816
1.5818471908569336,-0.0002015233039855957,-0.3006518483161926,-0.10176247358322144,0.7077100872993469,1.3087055683135986,0.3311495780944824,0.8046504764009801,1.1294068210742627,-0.9463125849511539
1.5918540954589844,0.0060269832611083984,-0.23578232526779175,-0.11361494660377502,0.5422616004943848,1.22854483127594,0.2822718620300293,0.8100637633993324,1.146746914660217,-0.9528013623178576
1.6020610332489014,0.03782057762145996,-0.15552568435668945,-0.15381163358688354,0.3376629054546356,1.0885499715805054,0.28166067600250244,0.8144938902054616,1.1613279203584708,-0.9568530842556141
1.6121039390563965,0.09370100498199463,-0.04770010709762573,-0.21610870957374573,0.28562596440315247,0.9621710181236267,0.20817022025585175,0.8179122186249208,1.1735259316805715,-0.9595433496722413
1.6232819557189941,0.18619799613952637,0.04551750421524048,-0.28539907932281494,0.27195167541503906,0.7286115288734436,0.150862455368042,0.8206413460474324,1.1840480964388453,-0.9623178517475286
1.6329140663146973,0.2366599440574646,0.12693309783935547,-0.30499136447906494,0.29056811332702637,0.4533167779445648,0.03721465542912483,0.8226051566874486,1.192351694705905,-0.9655696260017708
1.6420211791992188,0.2984084486961365,0.1250920295715332,-0.28136342763900757,0.30048972368240356,0.2265629917383194,-0.06853280961513519,0.8234879820825557,1.1988869349804334,-0.9698593377626621
1.652204990386963,0.3105928897857666,0.07410407066345215,-0.28865838050842285,0.20501792430877686,0.006678475067019463,-0.11631827801465988,0.8235431850312974,1.2029833747975525,-0.9738840850684845
1.6621761322021484,0.2949354648590088,0.035906851291656494,-0.2813812792301178,0.0923829898238182,-0.16731463372707367,-0.14731773734092712,0.8227958700800598,1.204209209049981,-0.9766648522227209
1.6719460487365723,0.2660124897956848,-0.01386404037475586,-0.25513631105422974,0.023104017600417137,-0.33404049277305603,-0.128386989235878,0.8217021506417499,1.202740677136707,-0.978110597653555
1.6821022033691406,0.22929692268371582,-0.022721052169799805,-0.2077580988407135,-0.006009659729897976,-0.4702678322792053,-0.09216532856225967,0.8206841648287388,1.1992500113013393,-0.9788180363125104
1.6920061111450195,0.19994425773620605,-0.009284794330596924,-0.16364306211471558,0.01311994343996048,-0.6124248504638672,-0.06430648267269135,0.8199807260942772,1.1940628265224977,-0.9791912587418443
1.7020421028137207,0.1669122576713562,0.004009068012237549,-0.12386932969093323,0.017072606831789017,-0.6774618625640869,-0.052260469645261765,0.8195384752307127,1.1879774587047172,-0.9797746180818444
1.7120141983032227,0.124176025390625,0.0011692047119140625,-0.10488557815551758,-0.04997294023633003,-0.6807031035423279,-0.07179874926805496,0.8189327003305747,1.1812661172417789,-0.979952059974716
1.7221341133117676,0.05573946237564087,-0.032133281230926514,-0.07877495884895325,-0.20586106181144714,-0.6126422882080078,-0.09908176958560944,0.8176932260424137,1.173882738275236,-0.9787613967716835
1.7320971488952637,-0.00897514820098877,-0.07025504112243652,-0.03487202525138855,-0.3558686673641205,-0.5205671787261963,-0.10600796341896057,0.8156128826845933,1.1658113666449899,-0.9755023101327982
1.7420620918273926,-0.07099133729934692,-0.08046519756317139,0.01691901683807373,-0.4159626066684723,-0.435684472322464,-0.1162014752626419,0.8130089678292146,1.1576744913201242,-0.9708945760537363
1.752135992050171,-0.11023366451263428,-0.041117072105407715,0.0698593258857727,-0.3504590094089508,-0.40764591097831726,-0.044426411390304565,0.8106523950114084,1.1500812757519354,-0.9661950224474355
1.7621679306030273,-0.11082446575164795,0.019356608390808105,0.11699312925338745,-0.12118322402238846,-0.38721758127212524,-0.00523133622482419,0.8094838617123797,1.1437404339184762,-0.9629800315642414
1.7721638679504395,-0.09438008069992065,0.11144936084747314,0.13659203052520752,0.06358884274959564,-0.34898966550827026,0.03672543540596962,0.809514577411931,1.13994516458313,-0.9627914679520433
1.7822141647338867,-0.10003596544265747,0.11169266700744629,0.11370638012886047,-0.022068804129958153,-0.28567248582839966,0.06588251888751984,0.810199380155227,1.1367334523609935,-0.9628261468621873
1.7921080589294434,-0.08636009693145752,0.0056307315826416016,0.1182074248790741,-0.21136735379695892,-0.19883131980895996,0.05711592733860016,0.8102464278700049,1.1329991916695648,-0.9609899721679237
1.8021559715270996,-0.0799790620803833,-0.1258397102355957,0.10633835196495056,-0.4109821915626526,-0.1434098780155182,0.057212866842746735,0.8094265606222016,1.1279956091807444,-0.9564623849101231
1.812230110168457,-0.06112271547317505,-0.14400380849838257,0.10731503367424011,-0.4631560146808624,-0.0913892388343811,0.07981681823730469,0.8080473822225133,1.122366552560543,-0.950238376697242
1.822195053100586,-0.035968899726867676,-0.09607666730880737,0.10069051384925842,-0.36986520886421204,-0.11247827857732773,0.11829416453838348,0.8071413428395365,1.1168438844703148,-0.944024264115184
1.8322019577026367,-0.010458171367645264,0.008446097373962402,0.08731049299240112,-0.23264849185943604,-0.12836642563343048,0.09488018602132797,0.8068105588866725,1.1123905048196965,-0.9395058762949964
1.8421850204467773,0.013458549976348877,0.05221569538116455,0.06943204998970032,-0.1973552107810974,-0.14660722017288208,0.11399742215871811,0.8067991295400786,1.1085726541236711,-0.9361623795348536
1.852311134338379,0.026944100856781006,0.01687633991241455,0.0444025993347168,-0.2281995564699173,-0.15187525749206543,0.08485626429319382,0.8067772007540687,1.1045963561536498,-0.9327380271394476
1.8623530864715576,0.037548601627349854,-0.014297664165496826,0.03147101402282715,-0.2518039643764496,-0.12618747353553772,0.051868487149477005,0.8062916800534586,1.1006639063108077,-0.929241525323159
1.872352123260498,0.03354591131210327,-0.047127604484558105,0.006268441677093506,-0.3069084882736206,-0.1221330314874649,0.04483545571565628,0.8054643178007412,1.0966176868737634,-0.9253151485066248
1.8821711540222168,0.032841503620147705,-0.04046362638473511,-0.007170140743255615,-0.3779573440551758,-0.1255815625190735,0.012579511851072311,0.8041818116934079,1.0921219449699728,-0.9207839058452123
1.8921151161193848,0.04190570116043091,-0.0546451210975647,-0.0005094707012176514,-0.550165593624115,-0.14562851190567017,-0.02424454875290394,0.8019760077383177,1.0865605461865713,-0.9149369070179646
1.902216911315918,0.04418647289276123,-0.11674284934997559,0.006521850824356079,-0.6707442402839661,-0.18539030849933624,0.028768334537744522,0.7990475074224128,1.0792612664733097,-0.9070769735526053
1.9121088981628418,0.055646419525146484,-0.13312643766403198,0.023713141679763794,-0.6457698941230774,-0.2379579097032547,0.06321792304515839,0.796279002145339,1.0708438684822126,-0.8982896929611031
1.9222080707550049,0.060761868953704834,-0.04075312614440918,0.0266837477684021,-0.5344348549842834,-0.2907140552997589,0.1235736757516861,0.7942254644416638,1.0625236081911473,-0.8903038588398114
1.9326491355895996,0.051777541637420654,0.021222352981567383,0.017293423414230347,-0.46715646982192993,-0.35677987337112427,0.13457491993904114,0.7929769665642801,1.0541351832062447,-0.883120449683738
1.9427862167358398,0.050905585289001465,0.013309121131896973,0.019932419061660767,-0.45091158151626587,-0.3654685318470001,0.13268476724624634,0.791855688866399,1.0458696425149492,-0.8766128504757471
1.9524600505828857,0.03390294313430786,-0.027714431285858154,-0.02231699228286743,-0.6149729490280151,-0.3478975296020508,0.14639504253864288,0.7904553079552864,1.0370134657961674,-0.8691965616754878
1.9638891220092773,0.011434316635131836,-0.0682225227355957,-0.03338897228240967,-0.9579371809959412,-0.3190363347530365,0.12978704273700714,0.7876453465187866,1.0262291033316273,-0.858699684743988
1.9723591804504395,-0.0074433088302612305,-0.18538427352905273,0.00531160831451416,-1.3693876266479492,-0.3227264881134033,0.15807056427001953,0.7827841681172605,1.0123661119918592,-0.8436157192806806
1.9823808670043945,-0.02185589075088501,-0.2533149719238281,0.05057913064956665,-1.8499627113342285,-0.3618302047252655,0.17167025804519653,0.7755588384753754,0.9947214283476885,-0.82335254064261
1.9923810958862305,-0.02832585573196411,-0.2893059253692627,0.10008817911148071,-2.336176633834839,-0.4380365312099457,0.20958082377910614,0.7654430220198681,0.9727842113549031,-0.7975337061604101
2.0025839805603027,-0.040150582790374756,-0.3749629855155945,0.15644612908363342,-2.5814764499664307,-0.6008883118629456,0.3843470513820648,0.7536252147930909,0.9466414566243572,-0.7670931637499802
2.013917922973633,-0.029868662357330322,-0.3220735192298889,0.2227783203125,-2.4723215103149414,-0.8364304304122925,0.43829283118247986,0.7417878844256159,0.9181652996944025,-0.7357165951492881
2.0225119590759277,0.006325244903564453,-0.1645488739013672,0.25882089138031006,-2.206742525100708,-1.1460775136947632,0.4723605215549469,0.7308430937252329,0.8890637729316622,-0.7071490754643789
2.0327072143554688,0.0443272590637207,-0.0980345606803894,0.23307329416275024,-2.0501561164855957,-1.3768932819366455,0.6089722514152527,0.7213358374290749,0.8588042515098769,-0.6807613876293144
2.042546033859253,0.07424497604370117,-0.11082512140274048,0.18818378448486328,-2.1548869609832764,-1.4402786493301392,0.8077154755592346,0.7127878421695689,0.8269895649233864,-0.6538734645746614
2.0531420707702637,0.06779754161834717,-0.17832601070404053,0.06965243816375732,-2.4783599376678467,-1.5053690671920776,0.945048451423645,0.7032518336132138,0.7927973593064233,-0.6239959158696619
2.066411018371582,0.0878339409828186,-0.2297491431236267,-0.11714667081832886,-3.094574213027954,-1.480614185333252,1.0858707427978516,0.690594765572228,0.7554410897852156,-0.5892181064384876
2.0751118659973145,0.12165802717208862,-0.3372800350189209,-0.18174690008163452,-4.023822784423828,-1.3633724451065063,1.1347706317901611,0.6717547214740176,0.7151490505923885,-0.5479126076007366
2.085484027862549,0.09423446655273438,-0.4795176386833191,-0.1415606141090393,-5.068905353546143,-1.228235125541687,1.098232626914978,0.643934701313955,0.6730289166395738,-0.5002213999782432
2.0925559997558594,0.05195555090904236,-0.5535489916801453,-0.02429407835006714,-6.008874893188477,-1.168089509010315,0.9932021498680115,0.6060990081989689,0.6307405915970162,-0.44834114847218975
2.1025869846343994,0.04764971137046814,-0.5545709729194641,0.1326901912689209,-6.72482442855835,-1.2512544393539429,0.8710834383964539,0.5590604801753885,0.5895385594326835,-0.3953281985182657
2.1140220165252686,0.07948178052902222,-0.4473602771759033,0.31446826457977295,-7.04932165145874,-1.4481971263885498,0.7031720280647278,0.5050522074956939,0.5501837431894008,-0.3443084303776705
2.122852087020874,0.13020679354667664,-0.2601203918457031,0.4812285304069519,-7.116900444030762,-1.715378761291504,0.573516309261322,0.4470002290390305,0.5129295665281819,-0.29759120499467784
2.1326041221618652,0.17677658796310425,-0.09692388772964478,0.5587201118469238,-6.939628601074219,-1.943336009979248,0.4728279113769531,0.38739424822416085,0.4776456011829634,-0.25582068779346534
2.1426260471343994,0.19468680024147034,0.05731624364852905,0.5623648166656494,-6.3459062576293945,-2.129356861114502,0.3929802179336548,0.3296096475185966,0.44462685603276353,-0.22008400352583846
2.1525750160217285,0.18934443593025208,0.1694541871547699,0.5074243545532227,-5.591096878051758,-2.2478725910186768,0.5080597996711731,0.276954641912979,0.41362383363882643,-0.18974870446829978
2.163912057876587,0.18176034092903137,0.35801708698272705,0.41248154640197754,-4.625649452209473,-2.2935469150543213,0.6455335021018982,0.23202640334452934,0.38427368479443774,-0.16361171380300502
2.1726250648498535,0.1820184290409088,0.48853379487991333,0.2945285439491272,-3.7441799640655518,-2.3454577922821045,0.6800087094306946,0.19555793812593084,0.35638963390335526,-0.14180138071919682
2.182692050933838,0.17664289474487305,0.3845338225364685,0.2145005464553833,-3.347564935684204,-2.3286640644073486,0.7015156149864197,0.1648819875702521,0.3295921129411137,-0.1231798248411356
2.1926310062408447,0.1469980776309967,0.21282686293125153,0.22260093688964844,-3.5573201179504395,-2.2695515155792236,0.5927765965461731,0.13437348324925918,0.3039947585659492,-0.1060809592645537
2.2026538848876953,0.0873022973537445,0.025398023426532745,0.2709425091743469,-4.313196659088135,-2.130591630935669,0.4858834147453308,0.09840223337010398,0.2800305906372485,-0.0895564569960805
2.2139029502868652,0.021520674228668213,-0.14619962871074677,0.29677170515060425,-5.163208484649658,-1.9886131286621094,0.31560277938842773,0.053731647382145545,0.2581329683626628,-0.072919490849164
2.222707986831665,-0.02136962115764618,-0.2194521427154541,0.31002604961395264,-6.0677666664123535,-1.8757538795471191,0.08562043309211731,-0.00022908831132810174,0.23837272756512548,-0.05728597999296326
2.2327070236206055,-0.031370341777801514,-0.23798327147960663,0.3193677067756653,-6.6930251121521,-1.822863221168518,0.04842400923371315,-0.06268553066829834,0.22033012797542628,-0.04210532294051738
2.2426881790161133,-0.0009387284517288208,-0.09394729137420654,0.32335108518600464,-6.822620868682861,-1.7735652923583984,0.045817840844392776,-0.12897247354122554,0.20376391175509867,-0.02727572454769497
2.252721071243286,0.027022555470466614,0.0242680162191391,0.27266621589660645,-6.6424336433410645,-1.6881622076034546,0.02248934842646122,-0.19521595473254197,0.1885758672839361,-0.013577420848330773
2.2641680240631104,0.007333800196647644,0.057909607887268066,0.20587438344955444,-6.192394733428955,-1.5084049701690674,-0.005900216288864613,-0.25844980514608545,0.17522407623435668,-0.0015483619377877913
2.2727341651916504,-0.021586909890174866,0.0156918466091156,0.13969659805297852,-5.812567710876465,-1.3231587409973145,-0.08255594968795776,-0.31767291855700325,0.1639395256447756,0.008615478611686813
2.282771110534668,-0.04585450887680054,-0.033140867948532104,0.11178678274154663,-5.456104278564453,-1.145740032196045,-0.29741284251213074,-0.37376844141395044,0.15412393147847198,0.016214596538340086
2.2927279472351074,-0.08307020366191864,-0.10086873173713684,0.15454167127609253,-4.957177639007568,-1.032436490058899,-0.4343307316303253,-0.42578184991842577,0.14503547054574387,0.020623887835603906
2.302767038345337,-0.11675028502941132,-0.18513911962509155,0.17456215620040894,-4.755504131317139,-0.994113564491272,-0.44304725527763367,-0.4743333418334845,0.13615354588618642,0.023240003935008184
2.3145220279693604,-0.06441082805395126,-0.09453698992729187,0.24052876234054565,-4.488934516906738,-1.1436315774917603,-0.2517141103744507,-0.5209855021200728,0.12688944731269466,0.026090755982882394
2.3228259086608887,0.014355190098285675,0.20255905389785767,0.314944863319397,-4.1080732345581055,-1.3121167421340942,0.06820293515920639,-0.5637191507279978,0.11713943340681708,0.031139895683729345
2.332846164703369,0.06472259014844894,0.3250963091850281,0.2736048698425293,-3.7505295276641846,-1.3347718715667725,0.2406136840581894,-0.6026105032440192,0.10780404493849781,0.03844582954935449
2.342787027359009,0.050186991691589355,0.19769054651260376,0.18905597925186157,-3.4987237453460693,-1.2095388174057007,0.2218160331249237,-0.6384285152643688,0.0993687665041987,0.04597967789106844
2.352864980697632,-0.023981139063835144,-0.005396783351898193,0.08945584297180176,-3.28700852394104,-0.9934945702552795,0.14784716069698334,-0.6720601786664754,0.09223675234549755,0.05240240714840926
2.364509105682373,-0.09730616211891174,-0.0818060040473938,0.019665181636810303,-3.084141731262207,-0.7647290229797363,0.11681973934173584,-0.703652132728622,0.08686192172543093,0.05776378195283197
2.3729782104492188,-0.11596542596817017,-0.05387908220291138,-0.04093295335769653,-2.980426549911499,-0.5816634893417358,0.06575144082307816,-0.7338572327905761,0.08321017381334428,0.06242921755750712
2.3840088844299316,-0.09331393241882324,-0.03697526454925537,-0.06144315004348755,-2.820491313934326,-0.3907196521759033,0.00040146231185644865,-0.7627623589075103,0.08083046245926918,0.06610945648488886
2.3928780555725098,-0.07905039191246033,-0.09416747093200684,-0.05947446823120117,-2.672649383544922,-0.19863002002239227,-0.03070542961359024,-0.7902090514052653,0.07991677905084521,0.06896882630187245
2.4029011726379395,-0.07617238163948059,-0.0809241533279419,-0.07564818859100342,-2.476090669631958,-0.06786615401506424,-0.04827377200126648,-0.8159841851019127,0.0803281001676606,0.07135976647643345
2.414046049118042,-0.06276597082614899,-0.010433971881866455,-0.051479339599609375,-2.299532175064087,0.04707876220345497,-0.02556995116174221,-0.8398139987448545,0.08190329146537108,0.07363367164030644
2.4228639602661133,-0.04404222592711449,0.022482872009277344,-0.006806671619415283,-2.0626931190490723,0.13860176503658295,0.04050813615322113,-0.8616523820105492,0.08500582173610469,0.0764807309388301
2.4329960346221924,-0.034379128366708755,0.10880464315414429,0.048986613750457764,-1.7774893045425415,0.19087636470794678,0.11622142791748047,-0.8807242658826103,0.0895993701965647,0.08030645884883576
2.4430131912231445,-0.03295603394508362,0.1842658519744873,0.10187125205993652,-1.465652346611023,0.2549387216567993,0.17938122153282166,-0.8967868203690775,0.09548864247638815,0.08503893253464859
2.4530670642852783,-0.03945250064134598,0.16909337043762207,0.1345914602279663,-1.148681402206421,0.3443988561630249,0.2352694720029831,-0.9095867948609824,0.10274425291771112,0.090478484082369
2.464231014251709,-0.055924348533153534,0.12225979566574097,0.124378502368927,-0.8670801520347595,0.43560147285461426,0.2845169007778168,-0.9192958017770014,0.11143021050486397,0.0965035649444406
2.473015069961548,-0.05629526078701019,0.13736921548843384,0.0725325345993042,-0.6411198377609253,0.5084356665611267,0.30008992552757263,-0.926445412607586,0.12117070709279146,0.10279473876694321
2.483016014099121,-0.03596728295087814,0.15926003456115723,0.024033069610595703,-0.44325417280197144,0.5745800733566284,0.32165300846099854,-0.9314502137900484,0.13165092822953112,0.1091016641719189
2.4931111335754395,-0.016209721565246582,0.14544224739074707,-0.013227999210357666,-0.2420099824666977,0.62364661693573,0.33030644059181213,-0.934385723923538,0.14267805389835048,0.11534396440963178
2.5042340755462646,-0.014924541115760803,0.14469707012176514,-0.027482450008392334,-0.06226925551891327,0.6693265438079834,0.3239172399044037,-0.9353834899318305,0.15383638391701784,0.12116909028023432
2.514657974243164,-0.030736245214939117,0.1538757085800171,-0.028625965118408203,0.062272973358631134,0.7164487242698669,0.3272611200809479,-0.934830232330634,0.16512316344427344,0.12657800899279356
2.523081064224243,-0.04521224647760391,0.17492198944091797,-0.03363919258117676,0.13689181208610535,0.7418776154518127,0.326203852891922,-0.9332829537218436,0.17657765552511787,0.1317316403964756
2.5330960750579834,-0.04982675611972809,0.18854153156280518,-0.02968740463256836,0.21262620389461517,0.7650286555290222,0.32246726751327515,-0.9309646978019794,0.18801175998332284,0.13656167937617894
2.5430190563201904,-0.05624505132436752,0.17296993732452393,-0.014508306980133057,0.2818175256252289,0.7794366478919983,0.3143022954463959,-0.9279168361314656,0.1993130779102351,0.14102344203784686
2.5530850887298584,-0.06629884243011475,0.16076231002807617,-0.010051131248474121,0.33093133568763733,0.7715324759483337,0.2823207974433899,-0.9242870312105799,0.2101847941110917,0.1448789318504788
2.5642662048339844,-0.07330039143562317,0.15947043895721436,-0.009377121925354004,0.3966978192329407,0.7531324028968811,0.22933243215084076,-0.920211374856621,0.22009901076111418,0.1477291930094028
2.5731260776519775,-0.07344156503677368,0.13583272695541382,-0.005958437919616699,0.4832525849342346,0.7295659780502319,0.18048255145549774,-0.9154675466136508,0.22886549671647238,0.14940616653822433
2.5831429958343506,-0.06882500648498535,0.11707562208175659,-0.01824897527694702,0.574908971786499,0.6944407224655151,0.12804438173770905,-0.9099604582619417,0.23636828941477653,0.14987869586122823
2.5930991172790527,-0.0631626695394516,0.12502241134643555,-0.03476959466934204,0.6935379505157471,0.6601609587669373,0.08320025354623795,-0.9035529272782666,0.24252275368795034,0.14908088139308917
2.603116989135742,-0.056023985147476196,0.12243062257766724,-0.04231446981430054,0.7923404574394226,0.6176063418388367,0.04802762344479561,-0.8961376806096153,0.24745187312032607,0.1471966640595429
2.6140880584716797,-0.04919306933879852,0.11273115873336792,-0.048293113708496094,0.8471040725708008,0.572489857673645,0.018140884116292,-0.8880840151239664,0.2512878794359026,0.14447021403134197
2.623310089111328,-0.0458415150642395,0.10179054737091064,-0.04324936866760254,0.8371955156326294,0.5286683440208435,-0.0033031548373401165,-0.8798540325764036,0.2542962292855085,0.14123827652587845
2.633404016494751,-0.0459505170583725,0.07817190885543823,-0.03208249807357788,0.7547714114189148,0.49796542525291443,-0.013183162547647953,-0.872105463146975,0.25689560512288745,0.1379323466913194
2.6432700157165527,-0.04712493717670441,0.053138673305511475,-0.020595967769622803,0.6220219135284424,0.46362316608428955,-0.0162039864808321,-0.8654791898007761,0.2594692789045018,0.13500284570475718
2.6532859802246094,-0.044422030448913574,0.03035104274749756,-0.0061187744140625,0.4915529489517212,0.4226333796977997,-0.02199215441942215,-0.8601389307465046,0.26202702576916337,0.1325050886720961
2.664289951324463,-0.04024502635002136,0.0065062642097473145,0.008154869079589844,0.3741680085659027,0.37675243616104126,-0.021006783470511436,-0.8560246750459112,0.26449621489875724,0.13047703016601364
2.6732430458068848,-0.037539154291152954,-0.00868445634841919,0.013795971870422363,0.28246888518333435,0.32782289385795593,-0.016879362985491753,-0.8529231967274742,0.26681828961898507,0.12887724876329915
2.683345079421997,-0.03182467818260193,-0.00775676965713501,0.010481595993041992,0.2402055859565735,0.2777179181575775,-0.013421515934169292,-0.8504724497716095,0.26889649374540026,0.12761696825979085
2.6933300495147705,-0.02336743474006653,-0.0045362114906311035,0.0013536810874938965,0.22970962524414062,0.24326872825622559,-0.007302103564143181,-0.8482300144989783,0.27067834518966094,0.12652338125819673
2.703342914581299,-0.020816192030906677,-0.012393057346343994,-0.019923627376556396,0.24235883355140686,0.22877047955989838,-0.006011802703142166,-0.8459694505923948,0.2722578504900469,0.12548716779099098
2.714250087738037,-0.01991531252861023,-0.02407747507095337,-0.03929424285888672,0.27330607175827026,0.22546039521694183,-0.006339797284454107,-0.8435275985086652,0.27368261938262256,0.12435948292926396
2.7232930660247803,-0.015624210238456726,-0.03500032424926758,-0.050892770290374756,0.3354645073413849,0.2240411937236786,-0.00034262490225955844,-0.8406139407410366,0.27497249324621126,0.12306959960712904
2.7333409786224365,-0.006333470344543457,-0.02761894464492798,-0.05641496181488037,0.3935193419456482,0.22237037122249603,0.006903196685016155,-0.8370807694831341,0.2761175237278202,0.1216099577462627
2.743375062942505,0.00447101891040802,-0.011457979679107666,-0.060285985469818115,0.42620858550071716,0.22028964757919312,0.011888634413480759,-0.8330989990931896,0.27718292952198265,0.12006392520489949
2.7533459663391113,0.014307945966720581,-0.011893093585968018,-0.05479300022125244,0.4444085657596588,0.20697899162769318,0.008059541694819927,-0.8288781293819281,0.2781320210484014,0.11844567464267439
2.764760971069336,0.02124004065990448,-0.027042925357818604,-0.03752005100250244,0.44652020931243896,0.19115476310253143,0.0009225363610312343,-0.8245493939124146,0.2788425491653721,0.1166912499325417
2.7737460136413574,0.026625171303749084,-0.03169071674346924,-0.026934444904327393,0.3659375309944153,0.161663219332695,-0.015588635578751564,-0.8205928835096651,0.27932620341649556,0.11493410986592895
2.783259868621826,0.03396661579608917,-0.03179597854614258,-0.024590134620666504,0.25865527987480164,0.1416144073009491,-0.031201152130961418,-0.8176858202489837,0.2796627018874939,0.11333587696057683
2.7933359146118164,0.03768010437488556,-0.054779887199401855,-0.011401653289794922,0.17416483163833618,0.12339967489242554,-0.03335261344909668,-0.8157083316052125,0.2800231175731692,0.11200024752735982
2.8034281730651855,0.0371842235326767,-0.07144975662231445,-0.0057059526443481445,0.11859425157308578,0.10444196313619614,-0.036327630281448364,-0.8144061930964417,0.28037786372719453,0.11092622756448013
2.8142809867858887,0.034397974610328674,-0.045107245445251465,-0.01018613576889038,0.07745201140642166,0.08590911328792572,-0.0324784591794014,-0.8135754497745875,0.2806702383071317,0.1100369601093927
2.8234879970550537,0.03434218466281891,-0.03607755899429321,-0.016475319862365723,0.06537270545959473,0.0791872963309288,-0.018967175856232643,-0.8130031537499985,0.28101930394078156,0.10939668223251106
2.833437919616699,0.03289145231246948,-0.051539480686187744,-0.02552318572998047,0.0851023942232132,0.08533027768135071,-0.006648990325629711,-0.8123221050395633,0.28150626763416053,0.1089286613067157
2.8435120582580566,0.022728517651557922,-0.061215221881866455,-0.03368109464645386,0.11400621384382248,0.09174343198537827,0.001265125465579331,-0.8113709839843095,0.28207089292860477,0.10848876672085943
2.853598117828369,0.011990204453468323,-0.059338927268981934,-0.03606897592544556,0.14813396334648132,0.09634102135896683,0.01604423113167286,-0.8100872995190171,0.28271097977740195,0.10806608731329616
2.865054130554199,0.010279476642608643,-0.05962932109832764,-0.029327213764190674,0.1869649738073349,0.093404620885849,0.03014007769525051,-0.8084073679318668,0.28339858169286536,0.10770543619724976
2.873642921447754,0.011360809206962585,-0.062205374240875244,-0.017653584480285645,0.21836787462234497,0.08599793165922165,0.040441714227199554,-0.806351048108689,0.2840624733513938,0.10737233213587247
2.8834660053253174,0.00966586172580719,-0.061181604862213135,-0.008418500423431396,0.2367042750120163,0.07620149105787277,0.05040114000439644,-0.804037075713291,0.284668305967965,0.10708425922624296
2.893472194671631,0.010314375162124634,-0.057952940464019775,0.0021492838859558105,0.23856568336486816,0.06461052596569061,0.059738609939813614,-0.8015857682526956,0.28524077413202364,0.10689097368393376
2.9037251472473145,0.012668266892433167,-0.05601930618286133,0.00868380069732666,0.22492177784442902,0.052344806492328644,0.07276492565870285,-0.7991599572078195,0.28580253822729923,0.106853638888749
2.9145870208740234,0.01652851700782776,-0.04791760444641113,0.013131558895111084,0.17538776993751526,0.036706678569316864,0.07972712069749832,-0.7968223733333231,0.2865556168835335,0.10718146432319352
2.9236021041870117,0.018890246748924255,-0.040593087673187256,0.015919983386993408,0.10286935418844223,0.03508108854293823,0.08933527767658234,-0.7950769726148401,0.2873762640919129,0.1078094963895426
2.933615207672119,0.016992822289466858,-0.04418307542800903,0.016993463039398193,0.04023481532931328,0.03752218559384346,0.0986914411187172,-0.7939940477606846,0.28846584188215924,0.10881342993403433
2.943775177001953,0.016098663210868835,-0.04845571517944336,0.01515340805053711,0.0030245983507484198,0.036039069294929504,0.10099400579929352,-0.793406829184408,0.28975483715424916,0.11009469040923275
2.9538888931274414,0.017042770981788635,-0.04250001907348633,0.01531982421875,0.005540053825825453,0.02690638042986393,0.09755032509565353,-0.7929867459278426,0.29103764352902867,0.11143421419026812
2.965480089187622,0.02043852210044861,-0.03129309415817261,0.016391217708587646,0.027697820216417313,0.01228695921599865,0.09618226438760757,-0.7924767364832268,0.29214098904886177,0.11271083711673209
2.9738988876342773,0.024672776460647583,-0.020209968090057373,0.02056264877319336,0.04765168949961662,-0.000732081476598978,0.09633470326662064,-0.7917524771633423,0.29304305698868904,0.11388808347923948
2.983802080154419,0.031277820467948914,-0.009132027626037598,0.020079731941223145,0.059827663004398346,-0.005682098679244518,0.09754138439893723,-0.7908839562020625,0.29382367157626527,0.11501420448110596
2.9937520027160645,0.035902589559555054,-0.00037294626235961914,0.02041226625442505,0.054578185081481934,0.0007848110981285572,0.10132066905498505,-0.7899938819960642,0.29463704747472075,0.1161649863902399
3.004244089126587,0.035656511783599854,-0.000867009162902832,0.022453129291534424,0.04146025329828262,0.008531413972377777,0.10024422407150269,-0.7892004187560703,0.2955744568427341,0.11737009021042082
3.0150790214538574,0.03474268317222595,-0.006429016590118408,0.026788949966430664,0.03537669777870178,0.023977570235729218,0.0981609895825386,-0.7884968838965807,0.29662360518173486,0.11858973091163057
3.0243330001831055,0.03239643573760986,-0.010807037353515625,0.0290946364402771,0.02849588543176651,0.042197853326797485,0.10037008672952652,-0.7878459544334884,0.29786619252955876,0.11984031380858684
3.034281015396118,0.029124245047569275,-0.016233503818511963,0.02585887908935547,0.03386445343494415,0.06484226882457733,0.10514210164546967,-0.787210826957444,0.29935432216271707,0.12114177380406789
3.0437700748443604,0.025068938732147217,-0.01734292507171631,0.021268129348754883,0.05292682722210884,0.08780989795923233,0.10871659219264984,-0.7864697116830344,0.3010871244476073,0.12245868549738521
3.0537681579589844,0.021335631608963013,-0.01695650815963745,0.01575571298599243,0.07635853439569473,0.10713037848472595,0.11086980998516083,-0.7855126726917467,0.30302002344642054,0.12373744384270245
3.064544200897217,0.015311673283576965,-0.0166892409324646,0.009654819965362549,0.09346454590559006,0.12036602944135666,0.10844659805297852,-0.7843799352485117,0.30510152223154624,0.12496784649768743
3.0737109184265137,0.013290107250213623,-0.015227317810058594,0.009427428245544434,0.09667402505874634,0.12825803458690643,0.10541768372058868,-0.7831775723069473,0.3072417170613666,0.12611373513243362
3.0837769508361816,0.014797568321228027,-0.012272536754608154,0.01118546724319458,0.09023556113243103,0.12336155027151108,0.0939389243721962,-0.7820231327729493,0.3093424425376019,0.12718454187172865
3.09368896484375,0.014727145433425903,-0.011791408061981201,0.015395879745483398,0.0745919868350029,0.11565151810646057,0.08225489407777786,-0.7810014840257163,0.3113112559734659,0.12813781452608808
3.103856086730957,0.011353328824043274,-0.015613555908203125,0.021022498607635498,0.06461711972951889,0.1100948303937912,0.07644627243280411,-0.7801529264354331,0.3131636266964904,0.12902528528446966
3.1146512031555176,0.012464404106140137,-0.008692741394042969,0.019134879112243652,0.048262715339660645,0.09885594248771667,0.07158099114894867,-0.7794112537384534,0.3149151048806037,0.1299044712291941
3.123843193054199,0.01176975667476654,0.004136204719543457,0.010308980941772461,0.03921409323811531,0.0961214080452919,0.07259299606084824,-0.7787945607501198,0.3166004832498025,0.13079682268093143
3.1338071823120117,0.006239116191864014,0.0038567185401916504,0.0018303990364074707,0.04586910456418991,0.09280373156070709,0.06711923331022263,-0.7781798106742873,0.3182162743311994,0.13163879636157538
3.1438159942626953,-0.004823967814445496,-0.005511283874511719,-0.006213366985321045,0.056066080927848816,0.09113286435604095,0.061344172805547714,-0.7774718570993491,0.31965573821731347,0.132319036993575
3.153892993927002,-0.012246623635292053,-0.011841654777526855,-0.012625455856323242,0.06772513687610626,0.08979639410972595,0.059833575040102005,-0.7766770503520147,0.3210075488842313,0.13290055970869016
3.164642095565796,-0.01855309307575226,-0.012002944946289062,-0.01425182819366455,0.07621768862009048,0.08334062993526459,0.06128925830125809,-0.7758125076243846,0.32230931155111003,0.13345519356272278
3.1738409996032715,-0.02141644060611725,-0.01238781213760376,-0.012174010276794434,0.07053286582231522,0.07316895574331284,0.06339336931705475,-0.7749412505683234,0.32357029123001035,0.13405189710898902
3.1838860511779785,-0.02215297520160675,-0.012824296951293945,-0.006295144557952881,0.05147022753953934,0.06188860163092613,0.06339709460735321,-0.7741856190052642,0.3247468231587187,0.13469075479760997
3.1938560009002686,-0.02630475163459778,-0.017977535724639893,-0.002688169479370117,0.023341821506619453,0.04935771971940994,0.05942355841398239,-0.7737103020867244,0.32589818490293754,0.13543657828355118
3.2039551734924316,-0.02664053440093994,-0.021590709686279297,0.0006775856018066406,-0.0025702035054564476,0.030246075242757797,0.05844457820057869,-0.7735139674223183,0.32689175262807185,0.13622507502646256
3.214970111846924,-0.02428130805492401,-0.02216804027557373,0.004353165626525879,-0.016026057302951813,0.013570691458880901,0.06063534691929817,-0.7734677472910435,0.3276959317685593,0.13705946751772466
3.2239110469818115,-0.02241213619709015,-0.016386985778808594,0.005582928657531738,-0.02010894939303398,-0.006029641255736351,0.0631943792104721,-0.7734279236199127,0.3282346154123395,0.13788247101452178
3.2339439392089844,-0.01987297832965851,0.001019597053527832,0.002657294273376465,-0.018253808841109276,-0.023274453356862068,0.06554850935935974,-0.7733264821370405,0.32850716948743003,0.13865856281278927
3.243990898132324,-0.017194092273712158,0.011812150478363037,-0.00030350685119628906,-0.021023761481046677,-0.03421977907419205,0.06263314932584763,-0.7732134438769638,0.32856946539602666,0.13938867214956713
3.2539920806884766,-0.01700301468372345,0.012344837188720703,-0.0021733641624450684,-0.032689955085515976,-0.03947876766324043,0.05652608722448349,-0.7731940140264398,0.32852868431317406,0.14008514825063365
3.2644729614257812,-0.01801121234893799,0.01159811019897461,-0.0018540620803833008,-0.0363781675696373,-0.041585858911275864,0.04852195829153061,-0.7732993764791359,0.3284302360592224,0.14074142881796106
3.2739460468292236,-0.020015373826026917,0.009376227855682373,0.0038594603538513184,-0.040759533643722534,-0.037014544010162354,0.04151875153183937,-0.7734616344678895,0.3282666841991356,0.14130340552239173
3.284142017364502,-0.021643787622451782,0.0091819167137146,0.008454620838165283,-0.03946417197585106,-0.029641050845384598,0.0339798741042614,-0.7736479332029876,0.3281195370822862,0.14178474462844565
3.2940549850463867,-0.021354392170906067,0.0120583176612854,0.01257312297821045,-0.03504493832588196,-0.019771507009863853,0.025180630385875702,-0.773850491396793,0.3280074032810528,0.14216773044386344
3.3041648864746094,-0.019670337438583374,0.012192249298095703,0.014413118362426758,-0.031179094687104225,-0.0077558583579957485,0.01644359901547432,-0.7740899321454775,0.32794351830639284,0.1424446537352763
3.315812110900879,-0.01969759166240692,0.0051122307777404785,0.015278756618499756,-0.01800936460494995,0.006596005987375975,0.01020897924900055,-0.7743246452124077,0.32794917762345377,0.14259925325883963
3.32413387298584,-0.02027137577533722,-0.0016614198684692383,0.0163651704788208,-0.015699071809649467,0.015194287523627281,0.002328685484826565,-0.7745576014429886,0.32799524474463704,0.14264138192288933
3.334325075149536,-0.02047315239906311,0.0023860931396484375,0.015708327293395996,0.0007547196000814438,0.026142941787838936,-0.0021993806585669518,-0.7747015746310117,0.3280482532697817,0.14254766269405766
3.344204902648926,-0.017262980341911316,0.0033403635025024414,0.018779516220092773,0.011977014131844044,0.02719276025891304,-0.007676437497138977,-0.7747327966137275,0.32807258387968985,0.1423351087732517
3.354349136352539,-0.011827915906906128,0.005222320556640625,0.020100414752960205,0.03348222374916077,0.02542925998568535,-0.015335049480199814,-0.7746403014193023,0.327969799426148,0.1419405000053519
3.364988088607788,-0.006049260497093201,0.007856309413909912,0.01946777105331421,0.04053507372736931,0.020481638610363007,-0.019143104553222656,-0.7744560899350305,0.3277345985956347,0.14140912553651006
3.374049186706543,-0.0009351074695587158,0.008735299110412598,0.015597224235534668,0.04519931599497795,0.017352024093270302,-0.018740860745310783,-0.7742725199145304,0.32744453088424996,0.14084169329967025
3.384158134460449,0.002060920000076294,0.01216810941696167,0.01245105266571045,0.04861748218536377,0.01836748793721199,-0.020319849252700806,-0.7740596438620795,0.3271406684192519,0.1402555797485831
3.394105911254883,0.002271100878715515,0.008296370506286621,0.0055789947509765625,0.04911607876420021,0.022084150463342667,-0.020683636888861656,-0.7737980510635388,0.3268562495215997,0.13966857402669197
3.4041991233825684,-0.0006927698850631714,0.003483295440673828,-0.0010542869567871094,0.04779434949159622,0.022088680416345596,-0.016894755885004997,-0.7735086576845207,0.326608228977079,0.13910064130647432
3.414793014526367,0.00117453932762146,0.0017772316932678223,-0.003733396530151367,0.04911353066563606,0.022242210805416107,-0.01184950489550829,-0.7732272156881038,0.32639413041069176,0.13858392498695443
3.424136161804199,0.003821462392807007,3.49879264831543e-05,-0.004750192165374756,0.04529961943626404,0.021307973191142082,-0.006511997431516647,-0.7729538928767968,0.32629334112527975,0.13819040919612632
3.434087038040161,0.0015213340520858765,-0.0012819170951843262,-0.0010877251625061035,0.027200324460864067,0.019118722528219223,-0.005279752425849438,-0.7727685430834597,0.32629389397550673,0.13792722893789938
3.444157123565674,-0.0010348260402679443,-0.005972504615783691,0.0026515722274780273,0.007614639587700367,0.017554115504026413,-0.003585982369259,-0.772777224622092,0.3263983955732948,0.13779959306301587
3.4543280601501465,-0.00176180899143219,-0.010300755500793457,0.003906369209289551,-0.005557721015065908,0.013982193544507027,-0.0039723534137010574,-0.7729190705236766,0.32657226463304184,0.13778581093163414
3.4645590782165527,-0.0026770830154418945,-0.011303246021270752,0.00443422794342041,-0.015905700623989105,0.011683087795972824,-0.007152167614549398,-0.7731685121047962,0.32674437642046944,0.13780455795065633
3.474423885345459,-0.0022256076335906982,-0.009628057479858398,0.0026432275772094727,-0.013176891021430492,0.009400136768817902,-0.007122446782886982,-0.7734076328657115,0.3268777812323291,0.13781000999000534
3.4844210147857666,-0.0014816373586654663,-0.005100667476654053,0.002798020839691162,-0.0018379507819190621,0.001985363895073533,-0.00714215449988842,-0.7735204607467144,0.32687558119646687,0.13773872579052276
3.4943020343780518,0.0005595535039901733,0.0007079243659973145,0.005514562129974365,0.015516038984060287,-0.0031291483901441097,-0.007387591525912285,-0.7734634832632933,0.32677179465490386,0.1376049291890312
3.5043210983276367,0.0033856183290481567,0.0046364665031433105,0.006672263145446777,0.029568741098046303,-0.00358348386362195,-0.0055737122893333435,-0.7732404041702318,0.32662577516266594,0.1374326034189288
3.514617919921875,0.0023362189531326294,0.005545914173126221,0.0033426284790039062,0.0351286381483078,0.00036869198083877563,-0.0022830041125416756,-0.7729291777794634,0.3264728266894914,0.13723571601244008
3.524296998977661,0.00018465518951416016,0.002206563949584961,0.002498149871826172,0.040323399007320404,0.004780484829097986,-0.0028649047017097473,-0.7725636151410238,0.3263522519353383,0.1370348956158721
3.5344700813293457,-0.003984123468399048,-0.002383708953857422,0.002940654754638672,0.046920932829380035,0.008446636609733105,-0.0009536073775961995,-0.7721338871159822,0.32626017894052306,0.13681085050432468
3.5444068908691406,-0.00780130922794342,-0.0036234259605407715,0.006668567657470703,0.05006719008088112,0.005780013278126717,-0.0012601371854543686,-0.7716493663530872,0.32617170875515367,0.13657484511895948
3.554511070251465,-0.00786687433719635,2.5987625122070312e-05,0.00928342342376709,0.05305087938904762,0.005826130043715239,-0.0019482446368783712,-0.771135059067573,0.3260317056434915,0.13629409479582458
3.5656681060791016,-0.008887335658073425,-0.002449929714202881,0.00917065143585205,0.03702983632683754,0.006417618133127689,0.0007231723284348845,-0.7707151310557543,0.3259359899700869,0.13608242700023487
3.5744471549987793,-0.0065212249755859375,-0.004733622074127197,0.007094979286193848,0.025729112327098846,0.006679495796561241,0.00458938954398036,-0.7704528073718185,0.32596069082608325,0.1359962205286065
3.5847291946411133,-0.0059535205364227295,-0.004206418991088867,0.005453765392303467,0.017648816108703613,0.005765765439718962,0.007143095135688782,-0.7702922061595996,0.32606052303693994,0.1360117427146737
3.5944199562072754,-0.005816280841827393,-0.00593334436416626,0.0060277581214904785,0.021687066182494164,0.007228284142911434,0.00923111941665411,-0.7701471165310524,0.3261701228882365,0.13605226292709685
3.604607105255127,-0.004642009735107422,-0.00461268424987793,0.005251526832580566,0.03743353858590126,0.008808870799839497,0.012661803513765335,-0.7698804406640203,0.3262630747994096,0.13606227894483028
3.6153578758239746,-0.0035956501960754395,0.00016260147094726562,0.003917694091796875,0.05120516195893288,0.008599856868386269,0.01450716145336628,-0.7694352327321962,0.32630611307733753,0.13601773308740067
3.624680995941162,-0.003232613205909729,0.004920840263366699,0.00238645076751709,0.06756069511175156,0.011313618160784245,0.014805436134338379,-0.7688652294881222,0.32630341445099126,0.13591634463263666
3.634536027908325,-0.003599703311920166,0.0036454200744628906,0.003850877285003662,0.06896550208330154,0.009374348446726799,0.015471278689801693,-0.7682197809423276,0.326295194182095,0.13578069965448458
3.644454002380371,-0.0036707669496536255,0.0018328428268432617,0.005195975303649902,0.04950471594929695,0.003825386054813862,0.01485156174749136,-0.7676426041519571,0.32627805540879434,0.13567556875938266
3.6544861793518066,-0.003225862979888916,0.0035955309867858887,0.009375154972076416,0.033246684819459915,0.004888253752142191,0.013490739278495312,-0.7672498963649647,0.32628066210009066,0.13565311190295243
3.666652202606201,-0.0034316182136535645,-0.004352271556854248,0.01643192768096924,0.015419748611748219,0.002038138685747981,0.011236639693379402,-0.7670139205915797,0.3263263580840906,0.13568631089954325
3.6744918823242188,-0.0033921003341674805,-0.006574809551239014,0.02016425132751465,0.005803440231829882,0.0007517430931329727,0.005344236269593239,-0.7669219293205412,0.32635029377536035,0.13572275395014705
3.684530019760132,-0.002000972628593445,0.0012947320938110352,0.014887034893035889,0.0059603010304272175,0.003632484469562769,0.005415608640760183,-0.7668850260141521,0.32637923842409516,0.13575393535005606
3.694456100463867,0.00014984607696533203,0.0049544572830200195,0.01173180341720581,0.01892634853720665,0.0049105798825621605,0.00245614442974329,-0.766803577230167,0.3263983655723419,0.1357344335569189
3.704531192779541,0.0009882152080535889,0.009903252124786377,0.008321166038513184,0.03910379111766815,0.005544146057218313,-0.004601232707500458,-0.7665848843681868,0.3263283374874328,0.13557129423931985
3.7146620750427246,-5.207955837249756e-05,0.015043854713439941,0.007423281669616699,0.0603010393679142,0.004328900948166847,-0.01210133358836174,-0.7661846924832328,0.32613489362717807,0.13523067401932864
3.724529981613159,0.00020386278629302979,0.013374567031860352,0.009482741355895996,0.07847178727388382,0.002545914612710476,-0.014882472343742847,-0.7656003832746947,0.325815928220613,0.1347258712317268
3.734567165374756,-0.001590535044670105,0.009219050407409668,0.009781837463378906,0.08596421033143997,0.0014394158497452736,-0.018904058262705803,-0.764930489508091,0.32543333599083557,0.134137382432076
3.745495080947876,-0.0017185807228088379,0.010013937950134277,0.0068628787994384766,0.0750066339969635,-0.004761488642543554,-0.023080693557858467,-0.7642940840007737,0.32501310312666015,0.13352909607955807
3.7554779052734375,-0.0010939687490463257,0.004336237907409668,0.008391618728637695,0.057864028960466385,-0.014036302454769611,-0.027846740558743477,-0.7638101010084194,0.32452391256677376,0.13293507762984028
3.764510154724121,0.0005104392766952515,-0.007606804370880127,0.010922789573669434,0.042162030935287476,-0.023106496781110764,-0.03435710072517395,-0.7635290465002614,0.3239398956509955,0.13233644190357577
3.7745420932769775,0.0011325180530548096,-0.01163405179977417,0.01331484317779541,0.02322562411427498,-0.03808402270078659,-0.03617881238460541,-0.7634219303973222,0.32326466671466475,0.13176608052290364
3.7845911979675293,0.002653747797012329,-0.010971009731292725,0.013828933238983154,0.002143774414435029,-0.05130661651492119,-0.036032337695360184,-0.7635179595055872,0.322478098393365,0.13125827382400593
3.794605016708374,0.003310874104499817,-0.011775076389312744,0.014539241790771484,-0.009359799325466156,-0.058881230652332306,-0.03139832988381386,-0.7637861976480649,0.3216715749035605,0.13086276838396954
3.804737091064453,0.0010572820901870728,-0.0158768892288208,0.012669205665588379,-0.015840068459510803,-0.06370474398136139,-0.027819043025374413,-0.764120398079892,0.32088040679175195,0.13057441264416036
3.814805030822754,-0.0006043761968612671,-0.015622615814208984,0.008724808692932129,-0.012605893425643444,-0.07251288741827011,-0.02303222380578518,-0.7644233823170684,0.32003915976461716,0.1303239053334747
3.824651002883911,0.0018235892057418823,-0.012659847736358643,0.008388817310333252,-0.011976055800914764,-0.07384633272886276,-0.01593889482319355,-0.7646735219515497,0.3191805651708322,0.1301340413480009
3.8347840309143066,0.0014740675687789917,-0.01023411750793457,0.005735635757446289,-0.009192386642098427,-0.06877131760120392,-0.010808208957314491,-0.76486442945707,0.3184149870673508,0.1300306577720128
3.8447279930114746,0.000749051570892334,-0.012033700942993164,0.0042816996574401855,-0.0031107920221984386,-0.06887757778167725,-0.007208680268377066,-0.7649478016275232,0.31771796200224106,0.1299797031823226
3.8549561500549316,0.005143791437149048,-0.01021665334701538,0.0062133073806762695,0.0012833403889089823,-0.07748372107744217,-0.007023057900369167,-0.7649671912755701,0.31701134154117394,0.12995093475569147
3.8653931617736816,0.011412933468818665,-0.003111422061920166,0.007729947566986084,0.0003435108810663223,-0.08532299846410751,-0.008073141798377037,-0.7649745483743685,0.31621561826837885,0.12991298772007312
3.874907970428467,0.015788614749908447,-0.002045571804046631,0.00814974308013916,0.0020912433974444866,-0.09318624436855316,-0.00739962887018919,-0.7649777759996256,0.3153540447790656,0.1298762783252128
3.8849449157714844,0.01940198242664337,-0.004895210266113281,0.00852888822555542,-0.0004323679022490978,-0.10392384231090546,-0.01070860680192709,-0.7649725258255121,0.314355646132449,0.12980461574073887
3.8947501182556152,0.021374821662902832,-0.0026036500930786133,0.009655117988586426,-0.00442010210826993,-0.11285533756017685,-0.011498339474201202,-0.7649899356582738,0.31322050614518915,0.12969326370030937
3.904764175415039,0.02371075749397278,-0.004670858383178711,0.012248516082763672,-0.017808876931667328,-0.11812972277402878,-0.010750258341431618,-0.7651057218893756,0.31205401913135183,0.12964352798932027
3.9148569107055664,0.0229833722114563,-0.01028752326965332,0.01455157995223999,-0.03246447071433067,-0.12184878438711166,-0.013035356998443604,-0.7653615740792317,0.31088112564430975,0.12964124973350077
3.9248440265655518,0.0221392959356308,-0.012738645076751709,0.015691280364990234,-0.046489208936691284,-0.12320327013731003,-0.010074720717966557,-0.7657349547693951,0.3097142160514547,0.12969523993250134
3.9351000785827637,0.019466713070869446,-0.01673293113708496,0.017078161239624023,-0.05464871972799301,-0.11551760882139206,-0.005740905646234751,-0.7662169195558981,0.3086876977225475,0.129871619813799
3.9449450969696045,0.016240626573562622,-0.019970357418060303,0.0190887451171875,-0.05438746139407158,-0.10463833063840866,-0.0007900891941972077,-0.7667500686803945,0.3078602305368449,0.13016896810219789
3.9554390907287598,0.01083444058895111,-0.02097618579864502,0.019467294216156006,-0.04423565790057182,-0.09556582570075989,0.0029243279714137316,-0.7672145230472417,0.3071640849882011,0.13050122494003263
3.9659509658813477,0.00445789098739624,-0.020142734050750732,0.019482016563415527,-0.03657960519194603,-0.08648338168859482,0.005795481614768505,-0.7675618242339527,0.3066006742189927,0.1308634604829644
