timestamp,accel_x,accel_y,accel_z,rotation_x,rotation_y,rotation_z, pitch,roll,yaw
0.04418778419494629,0.009779050946235657,0.014307737350463867,0.018008947372436523,0.2195613980293274,0.026586133986711502,-0.014828217215836048,-0.10620736747991688,0.18851263634910068,0.010049829601844099
0.0579378604888916,0.007851719856262207,0.01595897227525711,0.014963924884796143,0.22727443277835846,0.033273063600063324,-0.010766097344458103,-0.10440884433600367,0.18898104591217302,0.009516949824822964
0.07083892822265625,0.004790574312210083,0.01256590336561203,0.011151492595672607,0.2274237424135208,0.04528560861945152,-0.010359273292124271,-0.1025889236241954,0.1895479962313955,0.009001835684078517
0.07190084457397461,-0.0002868175506591797,0.00661063939332962,0.010446906089782715,0.21481047570705414,0.04906782880425453,-0.011049031279981136,-0.10078338729632114,0.19019593728820033,0.0084915688819537
0.07810688018798828,-0.0008429735898971558,-0.00023145228624343872,0.007918715476989746,0.19581833481788635,0.05349178612232208,-0.014246156439185143,-0.09905668384815812,0.190825488342811,0.00799344932205159
0.0835866928100586,0.0024908483028411865,-0.00448097288608551,0.006860673427581787,0.1684120148420334,0.04509403556585312,-0.01753249764442444,-0.09757701776011989,0.19144560443336797,0.007509005707518869
0.09382200241088867,0.0035061389207839966,-0.009748466312885284,0.0031839609146118164,0.130006343126297,0.03305761516094208,-0.026326628401875496,-0.09644575616493763,0.19200927588514632,0.007038676546899112
0.10351681709289551,0.0043252259492874146,-0.013138547539710999,0.002414524555206299,0.08083613216876984,0.021986588835716248,-0.03410758450627327,-0.0957125857403872,0.1924065751587276,0.006546717632257372
0.11359596252441406,0.0043158382177352905,-0.020348697900772095,0.006784200668334961,0.022814374417066574,0.010800778865814209,-0.041245922446250916,-0.09555199885999704,0.1926161824084602,0.006094057507196169
0.12473678588867188,-0.0006147027015686035,-0.028752431273460388,0.007354617118835449,-0.03165339678525925,0.0024499045684933662,-0.0451945923268795,-0.09593134397452313,0.19271900585904003,0.0056806445828844485
0.1335296630859375,-0.0035371482372283936,-0.03624329715967178,0.006013095378875732,-0.06669287383556366,0.001550821354612708,-0.038707662373781204,-0.09668129737287659,0.1927413479128467,0.005368920154137789
0.14360284805297852,-0.005568593740463257,-0.03938023000955582,0.0031877756118774414,-0.08101854473352432,-0.004827982280403376,-0.027457939460873604,-0.09759476097766061,0.19269831522197872,0.005189742358607911
0.15365076065063477,-0.010577544569969177,-0.03493797034025192,-0.003190159797668457,-0.07140613347291946,-0.010660037398338318,-0.013123475015163422,-0.09840541453265678,0.1926086938680089,0.005138702867734669
0.16402983665466309,-0.01337665319442749,-0.029293477535247803,-0.004166305065155029,-0.046719927340745926,-0.016874436289072037,0.0029525374993681908,-0.09895869523449478,0.1924856858558795,0.005210533034811453
0.1748337745666504,-0.015023201704025269,-0.021049864590168,-0.005432784557342529,-0.016369279474020004,-0.011901959776878357,0.021427098661661148,-0.09913879797741855,0.19239399128584958,0.005405943645890605
0.18402767181396484,-0.016854137182235718,-0.018039368093013763,-0.006790339946746826,0.01049269363284111,-0.015817338600754738,0.04437955468893051,-0.09891958838652402,0.192342772342681,0.00574192668040193
0.19377470016479492,-0.02098187804222107,-0.017015330493450165,-0.00966334342956543,0.03632320836186409,-0.024323873221874237,0.057117294520139694,-0.09833522325586484,0.1922614622443174,0.006218129240273143
0.20380592346191406,-0.019711345434188843,-0.009823717176914215,-0.011756420135498047,0.049007847905159,-0.02747439220547676,0.06213069707155228,-0.09747187680339259,0.19206900186316528,0.006727977141279865
0.21413469314575195,-0.0152435302734375,-0.009447172284126282,-0.00913989543914795,0.03751673549413681,-0.035884834825992584,0.066673144698143,-0.09651098048024004,0.19178841993177628,0.007287400923052074
0.22486376762390137,-0.017660051584243774,-0.015587449073791504,-0.004442155361175537,0.005234965123236179,-0.03707420080900192,0.06119528412818909,-0.09578142293636914,0.1914369888494231,0.007877116846599596
0.2338876724243164,-0.01766391098499298,-0.021620891988277435,0.0008068084716796875,-0.02536645345389843,-0.03196581453084946,0.05775149539113045,-0.0954351094530722,0.1910441731149731,0.008477426865598301
0.24415874481201172,-0.014245659112930298,-0.025080151855945587,0.0008279681205749512,-0.02746902033686638,-0.01504968199878931,0.0759587362408638,-0.09532330999686202,0.19074518663429998,0.009163283769946476
0.253720760345459,-0.011735081672668457,-0.02360786497592926,-0.0013900995254516602,-0.0015059949364513159,-0.0179859958589077,0.10873595625162125,-0.09513188170131681,0.19054598798042818,0.010095324197854152
0.2638688087463379,-0.006156846880912781,-0.01181340217590332,-0.015197396278381348,0.04952016845345497,-0.044849567115306854,0.13717611134052277,-0.09453469196946711,0.19018265202409027,0.011249810842010263
0.27428293228149414,0.005452066659927368,0.010707937180995941,-0.025319993495941162,0.11006825417280197,-0.07260338962078094,0.1690276861190796,-0.09329388971360285,0.18952340747829696,0.012589208050220043
0.2840077877044678,0.01676921546459198,0.017650403082370758,-0.02650672197341919,0.14152951538562775,-0.10145501047372818,0.19254553318023682,-0.09160852304033375,0.18860917295482124,0.014114645312941468
0.29410696029663086,0.012575224041938782,0.017565347254276276,-0.020828664302825928,0.14408916234970093,-0.12157115340232849,0.1948467195034027,-0.08976338748375667,0.18751441241053848,0.015738351414420575
0.30397677421569824,0.008314013481140137,0.013114944100379944,-0.01224052906036377,0.11094451695680618,-0.1418343484401703,0.18325823545455933,-0.08804244484126379,0.18619551194977532,0.01737111240024913
0.3140578269958496,0.006452664732933044,0.003494180738925934,-0.006403088569641113,0.046046461910009384,-0.16594886779785156,0.15195101499557495,-0.08680950426585511,0.184647722081498,0.01888445474409926
0.32564783096313477,0.0014552325010299683,-0.0052945539355278015,0.0016328692436218262,-0.041320133954286575,-0.17712774872779846,0.10722429305315018,-0.08638031804654803,0.18295069773675926,0.020157068290568615
0.3341517448425293,-0.0006493031978607178,-0.014643877744674683,0.00878685712814331,-0.13223965466022491,-0.1837848573923111,0.06310184299945831,-0.08692737871840535,0.18118286728610317,0.02116020751086861
0.3441319465637207,-0.0047425925731658936,-0.020563751459121704,0.012473702430725098,-0.21480457484722137,-0.17944204807281494,0.015049894340336323,-0.08851987412118498,0.17942185465694915,0.02186280222249199
0.35419178009033203,-0.010591506958007812,-0.02649715542793274,0.017756104469299316,-0.2607438266277313,-0.16901594400405884,-0.016019023954868317,-0.09101483758961758,0.17781706059601898,0.02228945592956404
0.3641529083251953,-0.012502774596214294,-0.026018336415290833,0.015945255756378174,-0.2569464147090912,-0.1527179330587387,-0.03957414999604225,-0.09379802190086295,0.17643499741260504,0.022485565014265962
0.37530994415283203,-0.010540589690208435,-0.017098814249038696,0.012141704559326172,-0.21138569712638855,-0.14822988212108612,-0.04956457391381264,-0.09630338689393816,0.17511377271811526,0.022473499819635093
0.38414573669433594,-0.01197536289691925,-0.0018805935978889465,0.008903443813323975,-0.15601405501365662,-0.142931267619133,-0.0585269071161747,-0.09824521564015108,0.17379324062540408,0.022277286258142147
0.39422082901000977,-0.008057713508605957,0.0073885321617126465,0.007046520709991455,-0.11317731440067291,-0.12657314538955688,-0.06308245658874512,-0.09958751685595252,0.17255958764211646,0.02191458590952688
0.4041566848754883,-0.007399469614028931,0.0050646960735321045,0.005583405494689941,-0.09300147742033005,-0.10275223851203918,-0.06926978379487991,-0.10052750384301139,0.17146869035016796,0.021449098466206278
0.41426897048950195,-0.009955048561096191,0.00019355863332748413,0.0076746344566345215,-0.09061621129512787,-0.085818350315094,-0.07777895033359528,-0.10128259588044987,0.1705711186977693,0.02088857890051466
0.42551374435424805,-0.00898219645023346,-0.008918367326259613,0.009912073612213135,-0.0969683825969696,-0.06775040179491043,-0.08915278315544128,-0.10203661032457621,0.16979443875013925,0.02023863170976925
0.43416380882263184,-0.008421063423156738,-0.021615363657474518,0.013985395431518555,-0.10699846595525742,-0.050850823521614075,-0.09742956608533859,-0.1028512742859834,0.16912754078677103,0.01948211818981959
0.4442787170410156,-0.008124187588691711,-0.028878353536128998,0.01765066385269165,-0.12610425055027008,-0.03745219111442566,-0.09801066666841507,-0.10384823637921335,0.16859341693352245,0.018700642364943322
0.4541440010070801,-0.006519198417663574,-0.03279680758714676,0.01781243085861206,-0.14477570354938507,-0.0234184879809618,-0.10059324651956558,-0.10514926681904326,0.16819352975114188,0.01793789469570446
0.4642949104309082,-0.0037374794483184814,-0.03582405298948288,0.015072107315063477,-0.1587810069322586,-0.017916398122906685,-0.09629543870687485,-0.1067665238456778,0.1678755981891741,0.017211943235580375
0.4750199317932129,-0.0023443102836608887,-0.04064040631055832,0.013077139854431152,-0.16605979204177856,-0.015047241933643818,-0.08929601311683655,-0.10854138596799807,0.167638753378466,0.01655769226341614
0.48433399200439453,0.00214482843875885,-0.03975721448659897,0.012510359287261963,-0.17161035537719727,-0.015729278326034546,-0.08338139206171036,-0.11033924139286819,0.16740436993083882,0.01598479371564201
0.49431467056274414,0.00582452118396759,-0.03462942689657211,0.00919640064239502,-0.1756926029920578,-0.017248522490262985,-0.07407806813716888,-0.11213478273013117,0.16715558911750358,0.015486293741434879
0.5042839050292969,0.008427351713180542,-0.03411955386400223,0.008630990982055664,-0.18080373108386993,-0.020785465836524963,-0.06368428468704224,-0.11389443402377894,0.16689990834397433,0.01510326115887607
0.5143768787384033,0.009748592972755432,-0.03466454893350601,0.007799804210662842,-0.18461719155311584,-0.02476489543914795,-0.04967125877737999,-0.11559501967049841,0.1666121878701269,0.014847050564421801
0.5252299308776855,0.012022927403450012,-0.03050769865512848,0.00954216718673706,-0.18085947632789612,-0.028046708554029465,-0.03866548091173172,-0.11721696883727065,0.16630056412930705,0.014710826427389311
0.5345039367675781,0.011242136359214783,-0.027632489800453186,0.013028442859649658,-0.17245927453041077,-0.024268614128232002,-0.024560900405049324,-0.11873156082885422,0.16602171918113381,0.014700494317436825
0.5446839332580566,0.009023308753967285,-0.023713618516921997,0.012466490268707275,-0.1564701944589615,-0.025985822081565857,-0.010926845483481884,-0.1200712445133415,0.16579015826755966,0.01479110799057933
0.5544309616088867,0.008361846208572388,-0.015943124890327454,0.009065866470336914,-0.1319333165884018,-0.02860335260629654,-0.002556477440521121,-0.12117411876396628,0.16553744265958234,0.014961721018319642
0.5645856857299805,0.009333565831184387,-0.009124018251895905,0.005950510501861572,-0.1078607514500618,-0.030497658997774124,0.001186329172924161,-0.12203656807871205,0.16529505570344466,0.015157998234102028
0.5747628211975098,0.009068861603736877,-0.0032756179571151733,0.00753474235534668,-0.0897153690457344,-0.028181951493024826,0.005276358220726252,-0.12270868810014579,0.16509606318047676,0.015357307490960617
0.584385871887207,0.003336310386657715,0.0007938221096992493,0.010489225387573242,-0.08056208491325378,-0.027637600898742676,0.0030395695939660072,-0.12325150835582718,0.16491533019122542,0.015548075748313515
0.5945508480072021,-0.000631287693977356,-0.0012732073664665222,0.010085999965667725,-0.07821366935968399,-0.021567992866039276,0.0008140192367136478,-0.12375068512619625,0.1647700847663764,0.015709295137226385
0.6044337749481201,0.0006273537874221802,-0.0023864805698394775,0.011016845703125,-0.07318269461393356,-0.01808883808553219,0.0005884494166821241,-0.12422674151494922,0.16469443772396294,0.015855189067191428
0.614682674407959,-0.0002710074186325073,-0.0003397539258003235,0.008906424045562744,-0.06677990406751633,-0.014605289325118065,0.0023204628378152847,-0.12467062242188862,0.16467053380087354,0.015995282793032323
0.6254029273986816,-9.85562801361084e-05,0.00039900094270706177,0.006838977336883545,-0.050886161625385284,-0.018023723736405373,0.005147408228367567,-0.12501795420983267,0.16464188540410887,0.0161393795128186
0.6345288753509521,0.002241656184196472,0.0014581754803657532,0.0023526549339294434,-0.03942341357469559,-0.02693883329629898,0.007610832341015339,-0.12528840876860028,0.16453265587455582,0.016294421690916647
0.6447768211364746,0.006638377904891968,0.005986258387565613,-0.0006778240203857422,-0.03240891546010971,-0.03906819969415665,0.007659301161766052,-0.12552290922347722,0.1643170759419245,0.016446309878692767
0.6546249389648438,0.008206754922866821,0.005029946565628052,-9.775161743164062e-05,-0.03564261272549629,-0.043907828629016876,0.006209476850926876,-0.12579472043446105,0.16401432505792066,0.016593260808694808
0.6654338836669922,0.008092999458312988,-2.2023916244506836e-05,0.002768993377685547,-0.05013979598879814,-0.047873012721538544,0.00845558661967516,-0.12619594232211065,0.16362449231878576,0.016746539407314912
0.675236701965332,0.005056366324424744,-0.004593998193740845,0.003339827060699463,-0.05869673192501068,-0.0461435541510582,0.006214643828570843,-0.12669782159368354,0.1631986500805376,0.01690568320739124
0.6846327781677246,0.002730727195739746,-0.002699747681617737,0.0009711980819702148,-0.062380414456129074,-0.047817617654800415,0.004117404110729694,-0.1272648047332865,0.1627804929624277,0.017058968631813397
0.6946878433227539,0.003567934036254883,-0.004326820373535156,-0.0010173320770263672,-0.05699673667550087,-0.04781930148601532,0.004004326183348894,-0.12784372652381532,0.16235823456254495,0.017205783252576462
0.7044978141784668,0.0032190829515457153,-0.002469867467880249,-0.0021558403968811035,-0.0477457121014595,-0.04579316824674606,0.002611492993310094,-0.12834068674929291,0.16193006579069824,0.01732808034990827
0.7147307395935059,0.0024360567331314087,0.0007475614547729492,-0.0005868077278137207,-0.04257426783442497,-0.0492166206240654,0.0013249199837446213,-0.12877370235367833,0.16150764709820895,0.017427628434227918
0.7247087955474854,0.0021675527095794678,-0.0020399391651153564,0.002793431282043457,-0.04019899666309357,-0.04707277566194534,-0.0019188103033229709,-0.12921500397903402,0.16110535233676668,0.017499270404767744
0.7347428798675537,0.004777893424034119,-0.004700407385826111,0.002446591854095459,-0.0384233333170414,-0.04346960410475731,-0.0005982551374472678,-0.12962056337295141,0.1607542679612591,0.01755192075024611
0.7448139190673828,0.005204454064369202,-0.0077863335609436035,0.003657400608062744,-0.04078901931643486,-0.0432450994849205,-0.0026044142432510853,-0.12999356869898784,0.16041989977194346,0.01761761600752519
0.7545797824859619,0.006000593304634094,-0.007550418376922607,0.003982424736022949,-0.04418802633881569,-0.03580915555357933,-0.004187557380646467,-0.13035580380002976,0.16009746491102078,0.017648140533882837
0.7645916938781738,0.007772579789161682,-0.01122698187828064,0.0055879950523376465,-0.061013348400592804,-0.027107810601592064,-0.016002671793103218,-0.1308628400749758,0.15985674972506778,0.01768025030569214
0.7748758792877197,0.0072892457246780396,-0.012320831418037415,0.003704547882080078,-0.08769333362579346,-0.04227868467569351,-0.021684737876057625,-0.13151985293891885,0.15955389342222628,0.01757878140455314
0.784733772277832,0.0018908977508544922,-0.01548604667186737,0.010428428649902344,-0.15984395146369934,-0.03552917018532753,-0.05066152662038803,-0.13272720898227386,0.1591710015609465,0.01745195564561966
0.7948126792907715,-0.0040273964405059814,-0.015279188752174377,0.013396620750427246,-0.2938039004802704,-0.010035660117864609,-0.09326374530792236,-0.1350281117625931,0.1589378739725399,0.017062919932229016
0.804750919342041,-0.0022171586751937866,-0.036501139402389526,0.012113630771636963,-0.42826396226882935,0.0024550973903387785,-0.1126672700047493,-0.1387063300554963,0.1588999217024457,0.016632751884595922
0.8149247169494629,-0.006530895829200745,-0.06439855694770813,0.014695584774017334,-0.5123943090438843,0.004705202300101519,-0.140773206949234,-0.14348844376696013,0.15892615257810044,0.016127636798037668
0.825253963470459,-0.009696990251541138,-0.0525040328502655,0.018967092037200928,-0.5271559357643127,-0.009641779586672783,-0.15028096735477448,-0.14873973207609315,0.158885882562128,0.015507084948382528
0.8348648548126221,0.0026414096355438232,-0.03782910108566284,0.012432277202606201,-0.47756269574165344,-0.0379565954208374,-0.14264871180057526,-0.15376019155722026,0.15862369787768849,0.01486064742184584
0.8448488712310791,0.009731069207191467,-0.01635110378265381,0.003844141960144043,-0.405386745929718,-0.06457728892564774,-0.1324642449617386,-0.15807611301242241,0.15808089984085028,0.014201136205669141
0.8548898696899414,0.010320112109184265,0.003797665238380432,-0.0024976730346679688,-0.33236223459243774,-0.07813357561826706,-0.11271116137504578,-0.16159278910500374,0.15733217497863072,0.013571951461904886
0.8648266792297363,0.01272350549697876,0.01507154107093811,-0.003799617290496826,-0.2977192997932434,-0.10387436300516129,-0.10851774364709854,-0.16454878580213086,0.1563678152534274,0.012993333918710496
0.8747286796569824,0.0064418017864227295,0.011302962899208069,4.851818084716797e-05,-0.4045424163341522,-0.10965763032436371,-0.17579761147499084,-0.1679523072986741,0.15510551501316316,0.012122794101369946
0.8847157955169678,-0.003997370600700378,-0.008456453680992126,0.012862145900726318,-0.6255810856819153,-0.08625883609056473,-0.21269676089286804,-0.17329345695631032,0.15395045353555095,0.01096569195117757
0.8948588371276855,-0.014812842011451721,-0.06341850757598877,0.02522110939025879,-0.9305915236473083,-0.06150897219777107,-0.30735066533088684,-0.18135432796289164,0.1529315336657796,0.009627115498496814
0.9047737121582031,-0.021847322583198547,-0.10895121097564697,0.031338512897491455,-1.1981854438781738,-0.04524211585521698,-0.3755853772163391,-0.192442758585529,0.15207565003241102,0.007775095313469389
0.9148077964782715,-0.029890835285186768,-0.12498556077480316,0.0460890531539917,-1.3520950078964233,-0.03517203778028488,-0.41051414608955383,-0.20578051368490863,0.15129243770384607,0.0057733832875650004
0.9258158206939697,-0.02213706076145172,-0.12024827301502228,0.04023897647857666,-1.378100037574768,-0.053846389055252075,-0.39176255464553833,-0.21990141202538624,0.15047497191368117,0.0038047907789340836
0.9349746704101562,-0.007628306746482849,-0.06829379498958588,0.0262567400932312,-1.2426719665527344,-0.10075579583644867,-0.41123053431510925,-0.2335583963094146,0.14925856254835324,0.0017480605743291438
0.9449648857116699,0.007233753800392151,0.014146000146865845,0.02563607692718506,-1.059398889541626,-0.1328871101140976,-0.43046092987060547,-0.24562535960452064,0.14745972598865723,-0.0007905188521995559
0.9549026489257812,-0.0019362568855285645,0.003962785005569458,0.009144365787506104,-0.7892841100692749,-0.1268119513988495,-0.44664230942726135,-0.2554595194577996,0.1453784947329757,-0.0038743411184046237
0.9651279449462891,-0.015188068151473999,0.00033795833587646484,-0.009560644626617432,-0.4886319041252136,-0.12175566703081131,-0.4843132495880127,-0.2624611235099976,0.14313521172138743,-0.007666957520441998
0.9774298667907715,-0.031170904636383057,0.061272621154785156,-0.0198214054107666,-0.21166469156742096,-0.02803623303771019,-0.524725079536438,-0.2666281274055147,0.14110009757116598,-0.01234125070840964
0.9849147796630859,-0.046872690320014954,0.07592496275901794,-0.018890857696533203,0.07109084725379944,0.1265011429786682,-0.5837247371673584,-0.2681269999625085,0.1401201020941771,-0.017902116378597652
0.9949867725372314,-0.07709883153438568,0.05847710371017456,-0.016722798347473145,0.3938930928707123,0.2261635959148407,-0.6960077285766602,-0.26672627075919747,0.14011232411665217,-0.024794666266732757
1.0050418376922607,-0.11786291003227234,0.06712603569030762,-0.008761286735534668,0.9016907811164856,0.4669644832611084,-0.7267323136329651,-0.26159185171973115,0.1412649124898453,-0.03314243130379727
1.01531982421875,-0.13463488221168518,0.05843362212181091,-0.00939875841140747,1.7985378503799438,0.6305770874023438,-0.6293129324913025,-0.2494744774804967,0.1446360382220931,-0.042078962444646845
1.0252079963684082,-0.13500149548053741,0.11013931035995483,-0.04187494516372681,3.3246567249298096,0.7108314037322998,-0.42236295342445374,-0.22525689430867474,0.14919732969405736,-0.05133379713220359
1.0352678298950195,-0.12325456738471985,0.31576013565063477,-0.06188327074050903,5.393967151641846,0.5383363962173462,-0.09963535517454147,-0.18270642874791865,0.15370531865883447,-0.06068409747731793
1.0449199676513672,-0.060704708099365234,0.5527637004852295,-0.08685380220413208,7.558465003967285,0.31611451506614685,0.12127412110567093,-0.11850347302585233,0.156413087471948,-0.0706511688586243
1.0549437999725342,0.006847888231277466,0.7467406392097473,-0.09079533815383911,9.187484741210938,0.2848866581916809,0.23421989381313324,-0.03491315240073657,0.15844592540295632,-0.08213517210952717
1.0650198459625244,0.05003209412097931,0.795426607131958,-0.07744473218917847,9.939163208007812,0.6179357171058655,0.20601116120815277,0.060539277384748603,0.16283657827274395,-0.09520044878813307
1.0751688480377197,0.01362985372543335,0.7393120527267456,-0.08625352382659912,9.96807861328125,1.0592246055603027,0.0772092416882515,0.1594509887266802,0.17313495925961392,-0.11051893654648128
1.0850028991699219,-0.04227381944656372,0.6484614610671997,-0.06864672899246216,9.168810844421387,1.459202527999878,-0.1864306479692459,0.25420249019930075,0.18944049298613788,-0.12886221618728994
1.0951077938079834,-0.045216724276542664,0.5684143304824829,0.07187604904174805,7.678797721862793,2.028278350830078,-0.35840925574302673,0.33633142087464923,0.21266387437522918,-0.14915938456674516
1.105231761932373,-0.04650050401687622,0.47898828983306885,0.1944829225540161,6.185503005981445,2.6802284717559814,-0.7423923015594482,0.4027526130984042,0.2444565109719669,-0.17155628838819686
1.1151409149169922,-0.07977601885795593,0.2497226893901825,0.11297833919525146,5.166347026824951,3.136394500732422,-1.198861837387085,0.45459617969111826,0.2847457284496849,-0.1980818272023314
1.1252079010009766,-0.11998456716537476,0.10765191912651062,0.049040913581848145,4.925434589385986,3.2849698066711426,-1.365781307220459,0.49833935141115554,0.33140797206625144,-0.22924025214672009
1.1350898742675781,-0.11530271172523499,0.2608099579811096,0.131128191947937,5.137176513671875,3.1233201026916504,-1.3650014400482178,0.5407123042440176,0.38110508943416227,-0.2641063520370199
1.145364761352539,0.004186868667602539,0.3874269127845764,0.2696880102157593,5.219145774841309,2.8393757343292236,-1.5740253925323486,0.5825581842270249,0.4321477842802876,-0.30423523927673196
1.1551189422607422,0.1637636423110962,0.3061726689338684,0.5248053669929504,5.107463359832764,2.637000799179077,-1.7989766597747803,0.6216248027478176,0.4856298824549243,-0.3503899425741801
1.1651837825775146,0.20987418293952942,0.10571032762527466,0.6847946047782898,4.993640899658203,2.337432861328125,-2.0439445972442627,0.6562122547951642,0.54166908966267,-0.40239761354670905
1.1756157875061035,0.18437007069587708,-0.10359340906143188,0.7026914954185486,4.883947372436523,2.0327391624450684,-2.1127660274505615,0.6864598402908778,0.5988151667972818,-0.4588790735649399
1.185187816619873,0.19913628697395325,-0.19477814435958862,0.7164139747619629,4.736385345458984,1.7378220558166504,-2.156674861907959,0.7129705014835602,0.6560845830655117,-0.5185159987294568
1.1952338218688965,0.21974343061447144,-0.19873768091201782,0.6569852828979492,4.436542987823486,1.5191444158554077,-2.203139066696167,0.7347929706706299,0.7130142661624466,-0.5799518942505474
1.2052807807922363,0.18135899305343628,-0.3210742473602295,0.5474703311920166,4.139906883239746,1.4698772430419922,-2.066483974456787,0.7517992199657447,0.7690230125538398,-0.6407635321115956
1.215669870376587,0.09958046674728394,-0.4084339141845703,0.3975978493690491,3.6940200328826904,1.5366430282592773,-1.8179047107696533,0.7653336885181345,0.8240076495216438,-0.6983781327455216
1.2257866859436035,0.04750913381576538,-0.4072924852371216,0.17143017053604126,3.0373852252960205,1.752532958984375,-1.508223533630371,0.775087417405157,0.8755634825535127,-0.7488994290171146
1.2352378368377686,0.050896525382995605,-0.45781952142715454,-0.009114831686019897,2.427145481109619,1.9382036924362183,-1.1646230220794678,0.7815943702119522,0.9234331151016958,-0.7906182181251853
1.245572805404663,-0.010252118110656738,-0.6173611879348755,-0.14975479245185852,1.8049085140228271,1.96297025680542,-0.7457249164581299,0.7861897032260455,0.9657027621941746,-0.8226881059116573
1.2552788257598877,-0.06748747825622559,-0.6455674767494202,-0.22155863046646118,1.3087283372879028,1.7383208274841309,-0.34296339750289917,0.7902468190977832,1.0001933093470416,-0.8451074882480372
1.2652487754821777,-0.08289855718612671,-0.6570979952812195,-0.1684015393257141,1.1011251211166382,1.4283068180084229,0.024851124733686447,0.7951888278867213,1.0271975234558257,-0.8607010616326094
1.275587797164917,-0.08209919929504395,-0.6394432783126831,-0.15579667687416077,1.0371038913726807,1.1000018119812012,0.3404499292373657,0.8022101091603574,1.0483118301487522,-0.8725500228192865
1.285226821899414,-0.1117478609085083,-0.5093808770179749,-0.1827695071697235,0.9759806990623474,0.7700880765914917,0.6356884837150574,0.8114469481479986,1.0643402754490459,-0.881776959227317
1.2954578399658203,-0.12936615943908691,-0.41105031967163086,-0.1963368058204651,0.8773784041404724,0.5776728987693787,0.8370961546897888,0.8224195366416479,1.0757883033548252,-0.8884409298392973
1.3053107261657715,-0.10410666465759277,-0.2870490550994873,-0.21634992957115173,0.756815493106842,0.516987144947052,0.969563364982605,0.8343033529056305,1.0844932043993563,-0.8928420962275072
1.3154258728027344,-0.07982218265533447,-0.17756026983261108,-0.28304535150527954,0.5697841644287109,0.4530128836631775,1.0087051391601562,0.8462510512510719,1.0906908994078914,-0.8946739226433935
1.3259897232055664,-0.05537402629852295,-0.08217132091522217,-0.3091854155063629,0.4374557137489319,0.4451406002044678,0.9467123746871948,0.8572412316125775,1.0951228746369783,-0.8945609982132534
1.335507869720459,0.004065752029418945,-0.0043315887451171875,-0.30096250772476196,0.4014955163002014,0.41174429655075073,0.8818592429161072,0.8673554365544425,1.0985856641418632,-0.893640431849057
1.3454909324645996,0.045944035053253174,0.11997950077056885,-0.32689499855041504,0.42499685287475586,0.30350276827812195,0.738426148891449,0.8763400543519919,1.102209717171136,-0.8936087514619391
1.3553977012634277,0.08760720491409302,0.2627108693122864,-0.30195459723472595,0.4339522123336792,0.18757882714271545,0.5503992438316345,0.8840542964803425,1.1058073953621892,-0.8951070595568057
1.365546703338623,0.12053722143173218,0.3349732756614685,-0.25489336252212524,0.374114453792572,0.0603572353720665,0.35757333040237427,0.8899427716892172,1.1090768909677406,-0.8976965689324226
1.376166820526123,0.10936909914016724,0.3242509365081787,-0.19968417286872864,0.230751171708107,-0.09397290647029877,0.18140025436878204,0.8936918419628003,1.1107799313527627,-0.9001366507190428
1.3854918479919434,0.09986764192581177,0.23927724361419678,-0.15090125799179077,0.12529346346855164,-0.21022121608257294,0.06323367357254028,0.895500155794778,1.1104783194951462,-0.9017379425348739
1.3953168392181396,0.07561326026916504,0.1753961443901062,-0.10485213994979858,0.13836553692817688,-0.28535088896751404,0.00725945457816124,0.8963423548736245,1.109277472868843,-0.9033715223949663
1.4053797721862793,0.04154235124588013,0.16037583351135254,-0.09687000513076782,0.13234306871891022,-0.3186255097389221,0.014847599901258945,0.8970177766035121,1.1077331504313683,-0.9052995186338553
1.415543794631958,0.01482999324798584,0.17904233932495117,-0.09566041827201843,0.15372253954410553,-0.34257686138153076,0.02622734010219574,0.8978332061692121,1.105763947448621,-0.9070978569042193
1.4257497787475586,-0.015543937683105469,0.1530335545539856,-0.07710233330726624,0.18370705842971802,-0.31010812520980835,0.033069536089897156,0.8988738682688622,1.1042509008138104,-0.9093640641980104
1.435532808303833,-0.03760582208633423,0.131178081035614,-0.07926225662231445,0.13359281420707703,-0.2929418981075287,0.0565933920443058,0.9000190858916791,1.1028520066221366,-0.9113871223073361
1.4454998970031738,-0.05587655305862427,0.10244953632354736,-0.06566452980041504,0.06647956371307373,-0.27654212713241577,0.04098380729556084,0.9009339503407119,1.1007489198967602,-0.9123981709950529
1.4556846618652344,-0.059600830078125,0.067787766456604,-0.0102003812789917,-0.009820766746997833,-0.234336718916893,0.020876144990324974,0.901337349250789,1.0983954528599906,-0.9126486410922873
1.4655818939208984,-0.07346266508102417,0.04035705327987671,0.01804247498512268,-0.10906372964382172,-0.1608680933713913,0.02325514517724514,0.9012462107663183,1.0955551689053282,-0.9116001499441577
1.4758119583129883,-0.08384746313095093,0.0090370774269104,0.032510995864868164,-0.1756279021501541,-0.09595438838005066,0.034983813762664795,0.9008631447207085,1.092507079092904,-0.9093315234844832
1.485508918762207,-0.0867963433265686,-0.010241329669952393,0.03841978311538696,-0.2118828445672989,-0.02959587052464485,0.050633080303668976,0.9003121807175233,1.0894285163007065,-0.9061861991677419
1.495656967163086,-0.0939180850982666,-0.01918429136276245,0.0464131236076355,-0.19170308113098145,-0.018728084862232208,0.07469106465578079,0.8999173308823555,1.0865611623683218,-0.902796361959933
1.5055756568908691,-0.09917646646499634,-0.02206563949584961,0.056005656719207764,-0.14716464281082153,-0.03362607583403587,0.08968013525009155,0.899872307883354,1.0839088014157265,-0.8997241014942337
1.5156638622283936,-0.06761336326599121,0.011813044548034668,0.05805009603500366,-0.10749899595975876,-0.061989009380340576,0.06921906769275665,0.9000017685990592,1.0815716719434347,-0.8973327497279087
1.525883674621582,-0.03556579351425171,0.028430700302124023,0.05252072215080261,-0.13733358681201935,-0.06214107573032379,0.019970031455159187,0.8998315047918014,1.079331589436672,-0.8953095932684276
1.5356879234313965,-0.023420214653015137,0.011173069477081299,0.04774865508079529,-0.19421739876270294,-0.056996025145053864,-0.028745576739311218,0.8990218266616655,1.0768646426277397,-0.8929444853266605
1.5459246635437012,-0.020106732845306396,-0.027957439422607422,0.037978798151016235,-0.19335666298866272,-0.04204610362648964,-0.0450795441865921,0.8977368009171645,1.0744864767667748,-0.8904676482224627
1.5556206703186035,-0.0077239274978637695,-0.025000393390655518,0.018970221281051636,-0.1187916100025177,-0.07078635692596436,-0.04926725849509239,0.8966309944782501,1.0724204377385864,-0.8885678376717137
1.565638780593872,0.0161893367767334,0.029147863388061523,0.002336174249649048,-0.061064399778842926,-0.09000559151172638,-0.07091023772954941,0.8957919771390367,1.0710482262855172,-0.8878433469195026
1.5758187770843506,0.03752768039703369,0.05820244550704956,0.0010865628719329834,-0.06723252683877945,-0.07151300460100174,-0.09023849666118622,0.8948676200817991,1.0700350037700916,-0.8876005804989544
1.5856719017028809,0.03224152326583862,0.01296168565750122,-0.0019926726818084717,-0.05502273142337799,-0.11180343478918076,-0.08599209040403366,0.8939681528332479,1.0689757920942409,-0.8873684508635522
1.595780849456787,0.03576529026031494,-0.015281140804290771,-0.010510653257369995,-0.01888015680015087,-0.13968314230442047,-0.11881911754608154,0.8930448161474893,1.0680016588081995,-0.8877095648931144
1.6058650016784668,0.05517125129699707,0.014800488948822021,0.0024785995483398438,-0.06964373588562012,-0.1453665941953659,-0.1583537459373474,0.8916937826094176,1.067085223845477,-0.8883365574084235
1.6158537864685059,0.037627995014190674,-0.015309154987335205,0.008720546960830688,-0.14987140893936157,-0.15530000627040863,-0.14723500609397888,0.8898430231905977,1.0654364769910174,-0.8880388040873234
1.625959873199463,0.022191882133483887,-0.07577633857727051,0.00953713059425354,-0.16199171543121338,-0.167191281914711,-0.13293595612049103,0.8879119706143673,1.0629767171477849,-0.8869512232439488
1.6357707977294922,0.024966299533843994,-0.0766901969909668,0.010642021894454956,-0.16878192126750946,-0.16112375259399414,-0.0992814227938652,0.8861513669777187,1.0603539657039878,-0.8856667098655584
1.6457438468933105,0.008220374584197998,-0.05742257833480835,0.0041207075119018555,-0.2232789844274521,-0.12939591705799103,-0.07784483581781387,0.8843850347974399,1.0573203924346901,-0.883665343434921
1.6557879447937012,-0.005566596984863281,-0.07654255628585815,-0.002926945686340332,-0.2885807752609253,-0.08047205209732056,-0.05129285901784897,0.8824359751893268,1.054129060497275,-0.8808075339320344
1.6657609939575195,-0.010577857494354248,-0.09931361675262451,-0.016384214162826538,-0.3924749493598938,-0.05648522824048996,-0.02163483016192913,0.8803890704888219,1.0501858721120771,-0.8765153679721062
1.675811767578125,-0.00988095998764038,-0.10561347007751465,-0.019715309143066406,-0.46562448143959045,-0.042188361287117004,-0.0047203488647937775,0.8780953577525874,1.0453012231803516,-0.8707865338251448
1.6857798099517822,-0.006214261054992676,-0.1200408935546875,0.008330762386322021,-0.4479821026325226,-0.07391539216041565,0.05834037438035011,0.8759354316751748,1.0399365240939598,-0.8644243904788459
1.6958088874816895,-0.010139048099517822,-0.10614621639251709,0.024780988693237305,-0.3570486903190613,-0.12614873051643372,0.11806778609752655,0.8746400424951112,1.0343237346822962,-0.8583600222356932
1.705981731414795,0.0032326579093933105,-0.049346745014190674,0.03704935312271118,-0.24104726314544678,-0.17942632734775543,0.17924804985523224,0.8743642752659736,1.0287537742520225,-0.8531386143142676
1.7160627841949463,0.016252756118774414,-0.009261608123779297,0.041039735078811646,-0.11606021970510483,-0.2410501092672348,0.23341071605682373,0.8752216641704991,1.0234988130187195,-0.8490235393301178
1.7268056869506836,0.024681389331817627,0.01951003074645996,0.03487616777420044,-0.019664976745843887,-0.28190138936042786,0.2367069125175476,0.8769514884527415,1.0187029160761403,-0.8462200788532136
1.7359638214111328,0.03814828395843506,0.0670209527015686,0.028247445821762085,-0.06306817382574081,-0.2606751322746277,0.1825040876865387,0.878591670717522,1.0142898369041058,-0.8440679722436218
1.7459278106689453,0.036812782287597656,0.04952418804168701,0.01736229658126831,-0.24012550711631775,-0.20256201922893524,0.11122031509876251,0.8790540555641638,1.0095228859904632,-0.8409046812858625
1.7558307647705078,0.018455445766448975,-0.022016704082489014,0.005404442548751831,-0.42135870456695557,-0.1433277130126953,0.034434136003255844,0.8778470175858905,1.003872112018098,-0.8358524489798108
1.7659287452697754,0.007826685905456543,-0.07182151079177856,-0.002762824296951294,-0.4994495213031769,-0.14522255957126617,0.022820623591542244,0.8755327526903438,0.9976149166053986,-0.8294768422085744
1.7758879661560059,0.0018669962882995605,-0.06604844331741333,-0.0004413425922393799,-0.4603675603866577,-0.19687940180301666,0.03726976364850998,0.873114896444584,0.9908375221611271,-0.8228751653372767
1.7859067916870117,0.015490055084228516,-0.007404029369354248,0.009167850017547607,-0.3870651125907898,-0.2666318714618683,0.06296074390411377,0.8712009230204998,0.9839914152177549,-0.8169564324789533
1.7959048748016357,0.02548229694366455,0.02883923053741455,0.005714058876037598,-0.35839998722076416,-0.2952995300292969,0.08251447230577469,0.8697385975862523,0.9769843655254656,-0.8115489572641239
1.8059098720550537,0.016767442226409912,0.020505845546722412,-0.005906730890274048,-0.35262811183929443,-0.2900688052177429,0.1267269402742386,0.8686004679850825,0.9698828602540203,-0.8060744264744767
1.816199779510498,0.008220851421356201,-0.004887938499450684,-0.03346371650695801,-0.3783889412879944,-0.2770194709300995,0.1434427946805954,0.8676749070644376,0.9625729518251516,-0.8002459586452533
1.8260858058929443,0.005239427089691162,0.00917506217956543,-0.05000331997871399,-0.4745466411113739,-0.26824063062667847,0.13302958011627197,0.8663930942019611,0.9548152243893177,-0.7936435516841742
1.8361587524414062,0.001994907855987549,-0.00702214241027832,-0.03643873333930969,-0.6537792682647705,-0.2731631100177765,0.09155377745628357,0.8640750948467858,0.9459731343665522,-0.7855875516403936
1.8467228412628174,-0.00019413232803344727,-0.053944289684295654,-0.018263787031173706,-0.8849645256996155,-0.27335458993911743,0.05498591065406799,0.860110852224585,0.9354722116888966,-0.7753738083308629
1.856247901916504,-0.0012812018394470215,-0.10288918018341064,0.0004112422466278076,-1.0614513158798218,-0.3060641586780548,0.06823848932981491,0.8547093023373843,0.9231116059469021,-0.7628167088143838
1.8660128116607666,-0.006172597408294678,-0.1306554675102234,0.011337995529174805,-1.1286301612854004,-0.3585289716720581,0.10657069832086563,0.8486936486691106,0.9091969834193571,-0.7487292581913672
1.8759708404541016,0.0012184977531433105,-0.0800510048866272,0.017039477825164795,-1.168761968612671,-0.44698038697242737,0.13888613879680634,0.8425377540880357,0.8941688896776812,-0.7339914078363177
1.8862838745117188,0.0035367608070373535,-0.025068461894989014,0.01754748821258545,-1.332905650138855,-0.5765455961227417,0.15097396075725555,0.835807607232935,0.8773083733371668,-0.7181988680196654
1.8961148262023926,0.0005192160606384277,-0.04309958219528198,0.035607218742370605,-1.681977391242981,-0.7275851964950562,0.125550776720047,0.8272087765604255,0.8572556835254139,-0.6998902480814587
1.9071288108825684,-0.0018522143363952637,-0.1334601640701294,0.07047897577285767,-2.225543975830078,-0.8753789663314819,0.048887431621551514,0.8149630002768379,0.8329301763667747,-0.677646679497111
1.9166908264160156,-0.014029324054718018,-0.25597983598709106,0.09338551759719849,-2.857375144958496,-0.9678453803062439,-0.05594923347234726,0.7975164629724256,0.804234189782403,-0.6508004078280655
1.9260258674621582,-0.024261564016342163,-0.3779604434967041,0.10978788137435913,-3.360177993774414,-1.0489720106124878,-0.058269381523132324,0.7750511524453969,0.7724837369750482,-0.6201533830963665
1.9360978603363037,-0.027992278337478638,-0.4453985095024109,0.11844086647033691,-3.673474073410034,-1.1169204711914062,0.005547947715967894,0.7491555410155653,0.738692672416526,-0.5869380463008134
1.9461557865142822,-0.011773288249969482,-0.3618046045303345,0.11876296997070312,-3.8610730171203613,-1.2306907176971436,0.06968724727630615,0.7210019122785135,0.7041414385825653,-0.5529331704100817
1.9562468528747559,0.003909677267074585,-0.24473559856414795,0.09320187568664551,-4.004599094390869,-1.3762168884277344,0.14290457963943481,0.6912056887410549,0.6690827074644766,-0.5190229303046282
1.9662079811096191,0.03334823250770569,-0.17263764142990112,0.08427053689956665,-4.308508396148682,-1.474018931388855,0.17180094122886658,0.6591850785688458,0.6335511053019459,-0.4851335497185502
1.9765267372131348,0.05965089797973633,-0.1482231616973877,0.099662184715271,-4.785816669464111,-1.4568160772323608,0.17262785136699677,0.6230843185217136,0.5981817830463907,-0.4506451553117334
1.9862728118896484,0.05362588167190552,-0.21117407083511353,0.12169075012207031,-5.37713098526001,-1.4393616914749146,0.14635390043258667,0.5814820186406633,0.5635620442026803,-0.4150982376542004
1.996243953704834,0.036233872175216675,-0.31055694818496704,0.144997239112854,-5.9982686042785645,-1.4750216007232666,0.0685853436589241,0.5334114865042325,0.5299658102075393,-0.3791602879245099
2.0088038444519043,0.04127427935600281,-0.3640371263027191,0.20257562398910522,-6.547427654266357,-1.5439401865005493,0.05536540970206261,0.47885302485647807,0.49746224996985045,-0.3432331488506139
2.01796293258667,0.06474605202674866,-0.37080299854278564,0.27652257680892944,-6.872933864593506,-1.6318800449371338,0.07273545861244202,0.4194664521993914,0.4662285364671226,-0.3079495156554597
2.0290157794952393,0.08452531695365906,-0.2579784095287323,0.3111951947212219,-6.967801570892334,-1.738554835319519,0.0922955721616745,0.35736796266747833,0.43666835562964545,-0.2744360720320355
2.036360740661621,0.11326593160629272,-0.12197229266166687,0.30623817443847656,-6.8774847984313965,-1.8050869703292847,0.18916215002536774,0.2945295685370521,0.40886395069662895,-0.2430173425450617
2.0463876724243164,0.14341530203819275,-0.010991379618644714,0.3019409775733948,-6.595922946929932,-1.8984193801879883,0.2531752288341522,0.2331030762966919,0.3827361838843458,-0.21391685840479957
2.057898998260498,0.1425478458404541,0.08323584496974945,0.28912442922592163,-6.409058570861816,-2.016315221786499,0.1796313226222992,0.1733824185412984,0.35793972362657056,-0.18767746293987028
2.0663228034973145,0.13532957434654236,0.11304867267608643,0.29241400957107544,-6.350644588470459,-2.1271355152130127,0.03335187956690788,0.11373625971411784,0.33384620286181527,-0.1648942283157756
2.0762619972229004,0.11606839299201965,0.042020782828330994,0.3328145146369934,-6.356334209442139,-2.187436819076538,-0.01763945072889328,0.053337594099161965,0.3105528027700691,-0.14458274556880787
2.086315870285034,0.11781346797943115,-0.0561135970056057,0.3530043959617615,-6.340915679931641,-2.205465078353882,-0.08200379461050034,-0.007529667950071071,0.2881905834766419,-0.1262598888752389
2.0966618061065674,0.11864832043647766,0.017113931477069855,0.38612085580825806,-6.30702018737793,-2.1802399158477783,-0.1542743593454361,-0.06875564348758256,0.26674897391227215,-0.11011410721839131
2.107858657836914,0.0893334299325943,0.06313902139663696,0.39281392097473145,-6.175508499145508,-2.056863784790039,-0.1356479525566101,-0.12971403027689232,0.24698030371188448,-0.09557612836152272
2.1163668632507324,0.06760044395923615,0.055333688855171204,0.3501198887825012,-5.886027812957764,-1.906342625617981,-0.10600723326206207,-0.18873525289376078,0.22922331169338087,-0.0823135237535456
2.1263556480407715,0.044892191886901855,0.11691686511039734,0.27686047554016113,-5.476680278778076,-1.7828261852264404,-0.08946794271469116,-0.2444898803879362,0.21327501630859189,-0.07051558658143103
2.1362948417663574,0.017309680581092834,0.1300402581691742,0.20032811164855957,-5.154061317443848,-1.6521648168563843,-0.10830356925725937,-0.2967189129076441,0.1988858942602765,-0.06015802613609194
2.1464157104492188,0.001165136694908142,0.09716111421585083,0.16488313674926758,-4.883976936340332,-1.5416332483291626,-0.18270882964134216,-0.3462389135618885,0.18562588998323862,-0.05155417501850856
2.1595687866210938,-0.023777946829795837,0.06268668174743652,0.18396753072738647,-4.746346473693848,-1.458523154258728,-0.30964046716690063,-0.3941236028042984,0.1729823614870361,-0.044931155172401906
2.166388988494873,-0.047898247838020325,-0.04468509554862976,0.1966037154197693,-4.645816326141357,-1.3329463005065918,-0.3615683913230896,-0.4410309522996907,0.16099251991121982,-0.04005411584792393
2.176391839981079,-0.046473219990730286,-0.12727901339530945,0.2008935809135437,-4.522182464599609,-1.3043121099472046,-0.41326040029525757,-0.48701782598639465,0.14955935191304484,-0.036356257604119674
2.186448812484741,-0.02072998136281967,-0.09683573246002197,0.18294435739517212,-4.493593215942383,-1.2438194751739502,-0.41569480299949646,-0.5321871107534496,0.13800159882499982,-0.033757319626944476
2.1964597702026367,0.0017776861786842346,-0.05216330289840698,0.17559510469436646,-4.360472679138184,-1.1744146347045898,-0.3441373109817505,-0.5767614447594208,0.12717547685706387,-0.031307106269304205
2.2075397968292236,0.02899675816297531,-0.023488163948059082,0.15541094541549683,-4.320463180541992,-1.0169848203659058,-0.20389044284820557,-0.6200300963336495,0.11772576678728722,-0.028339890594436996
2.216397762298584,0.02613939344882965,0.029877662658691406,0.106143057346344,-3.6041979789733887,-1.0319842100143433,-0.15510793030261993,-0.6599751139471075,0.10961668548638098,-0.024737625585007136
2.2263169288635254,-0.0020331144332885742,0.09590613842010498,0.048759281635284424,-3.2205708026885986,-0.7772032618522644,-0.14268215000629425,-0.6940943788477328,0.1023608901186494,-0.02195455962762359
2.236297845840454,0.005508735775947571,0.044286251068115234,-0.030846238136291504,-2.801004648208618,-0.601996123790741,-0.12257236242294312,-0.724213698908088,0.09691657196667437,-0.019771221061846245
2.2464208602905273,-0.006337188184261322,-0.023675143718719482,-0.06719309091567993,-2.449056625366211,-0.4737873077392578,-0.12945397198200226,-0.7503274144634854,0.09271851072682732,-0.01804624828501958
2.2573037147521973,-0.057353273034095764,-0.00046074390411376953,-0.04581749439239502,-2.355404853820801,-0.32728609442710876,-0.22149980068206787,-0.774351024897365,0.08907610531587655,-0.017432719458806874
2.2663347721099854,-0.04057421535253525,-0.02276664972305298,-0.01317131519317627,-2.33333683013916,-0.1720869243144989,-0.27369990944862366,-0.7979301366598861,0.0861722776081093,-0.018062818341923508
2.276367664337158,-0.05070244520902634,-0.10217463970184326,0.008537054061889648,-2.2657999992370605,-0.14064763486385345,-0.31861791014671326,-0.8211356800861044,0.08364434220191705,-0.019515439569813185
2.286322832107544,-0.04360038787126541,-0.12972325086593628,0.011136770248413086,-2.2970988750457764,-0.14212623238563538,-0.2856205701828003,-0.8441845100758769,0.08089976553218776,-0.021340452138063966
2.2964797019958496,-0.0067503005266189575,-0.06569570302963257,0.050153255462646484,-2.125493288040161,-0.2221207469701767,-0.1252414435148239,-0.8665609553879944,0.07875872106355558,-0.021797015380518273
2.309624671936035,0.03673435375094414,0.07607161998748779,0.07460582256317139,-1.8386911153793335,-0.26881635189056396,0.008973625488579273,-0.886429582170344,0.07749779948947856,-0.020187651169217752
2.316774845123291,0.045806512236595154,0.16964179277420044,0.03255033493041992,-1.5379921197891235,-0.2577780485153198,0.039647698402404785,-0.9032281381103558,0.07682876856079422,-0.017638311288120725
2.3269078731536865,0.02116958424448967,0.11276894807815552,-0.03237485885620117,-1.3619356155395508,-0.2082379162311554,-0.011828538961708546,-0.9175364192159646,0.076034219098708,-0.015623449207718248
2.3372879028320312,-0.01276661828160286,0.03248375654220581,-0.0791139006614685,-1.2341197729110718,-0.12930212914943695,-0.005681004375219345,-0.9305919786068967,0.07544272662438342,-0.014195564849799336
2.3468379974365234,-0.022954970598220825,0.0018160343170166016,-0.10156577825546265,-1.1265333890914917,-0.0708039328455925,-0.02002106048166752,-0.9423543959767327,0.07553389478918537,-0.01283661202532901
2.3590707778930664,0.001359459012746811,0.007318258285522461,-0.10412991046905518,-1.04679274559021,-0.029738524928689003,-0.07002654671669006,-0.953244235115231,0.0755673876692722,-0.012209923557504162
2.366457939147949,0.013026848435401917,0.006197750568389893,-0.07576704025268555,-0.9582052826881409,-0.005956496577709913,-0.08717277646064758,-0.9633412675250805,0.07533255369552548,-0.012287674894061535
2.376490831375122,0.007050052285194397,-0.021948695182800293,-0.05976831912994385,-0.8183935880661011,0.008194075897336006,-0.07692668586969376,-0.972317748522542,0.07509253432915908,-0.012599446648691885
2.3864779472351074,0.01799846440553665,-0.005794644355773926,-0.05491459369659424,-0.6057662963867188,0.010310490615665913,-0.026843547821044922,-0.9795150858456749,0.07522407075380246,-0.012589047871271256
2.3965518474578857,0.022499598562717438,0.04912799596786499,-0.05743420124053955,-0.3606761395931244,-0.018069885671138763,0.02908294089138508,-0.984311142561479,0.07576758148667508,-0.011892960486564014
2.4096579551696777,0.015004489570856094,0.08382713794708252,-0.06845742464065552,-0.2331053912639618,-0.05487477034330368,0.03699865564703941,-0.9871557753328619,0.07629420118562438,-0.01080565680070017
2.4166178703308105,0.009723175317049026,0.06811624765396118,-0.06072574853897095,-0.20722779631614685,-0.03168867155909538,0.03485715389251709,-0.989253572784672,0.07659693252592006,-0.009910791312934757
2.427111864089966,-0.0003940314054489136,0.027206778526306152,-0.04563450813293457,-0.3020869493484497,-0.013477973639965057,0.03125682473182678,-0.9917314823641042,0.07716837058479196,-0.008942971111568282
2.4366958141326904,-0.011646479368209839,-0.018079102039337158,-0.0524139404296875,-0.44993093609809875,0.019604213535785675,0.024150129407644272,-0.9954184604150514,0.07804169024098294,-0.007933939202985085
2.4467267990112305,-0.016222316771745682,-0.038455426692962646,-0.04222804307937622,-0.6624211072921753,0.049986883997917175,0.015733208507299423,-1.0009488430891627,0.07939303879858187,-0.006739162700856588
2.4590649604797363,-0.01649092137813568,-0.05012327432632446,-0.0430108904838562,-0.8394444584846497,0.09191187471151352,0.006567512638866901,-1.0084786579329819,0.08122018315857642,-0.005393575703167791
2.4667978286743164,-0.011375416070222855,-0.04532277584075928,-0.043320298194885254,-0.9397375583648682,0.11109649389982224,-0.0014563256409019232,-1.0174258274800374,0.08349570859146566,-0.003947972987149363
2.476801872253418,-0.011452779173851013,-0.04784750938415527,-0.05243217945098877,-0.9410572648048401,0.09875393658876419,-0.008189436048269272,-1.0268603389038327,0.08574659466748501,-0.0025304130574801335
2.4867987632751465,-0.013714686036109924,-0.023020625114440918,-0.054681360721588135,-0.8454079627990723,0.06875716149806976,0.009465723298490047,-1.035859672624936,0.08789702958870571,-0.0010349456159536908
2.4967637062072754,-0.008927855640649796,0.017534255981445312,-0.044609248638153076,-0.643509030342102,0.012105239555239677,0.04284578189253807,-1.0433054406613869,0.08988200478897618,0.0007837164382089542
2.5080788135528564,-0.009117532521486282,0.07159096002578735,-0.04133051633834839,-0.39891767501831055,-0.0401742085814476,0.07110059261322021,-1.0484618212176466,0.09153051709580567,0.002856035462575638
2.5166916847229004,-0.013813633471727371,0.08947104215621948,-0.0414654016494751,-0.1638767570257187,-0.08566370606422424,0.09420197457075119,-1.0511659260843245,0.0927900185816951,0.005039349864857244
2.526705741882324,-0.016520090401172638,0.08336406946182251,-0.04174453020095825,0.029204029589891434,-0.10447867214679718,0.10378775000572205,-1.0517262201774555,0.09363413690620544,0.00715713149663067
2.5368008613586426,-0.022445373237133026,0.08009707927703857,-0.03850927948951721,0.1976698935031891,-0.10093352198600769,0.11747346818447113,-1.050469713364033,0.09433198186838289,0.00914450427302309
2.5467147827148438,-0.03012726455926895,0.07051461935043335,-0.03373807668685913,0.3071625828742981,-0.10777944326400757,0.1129133403301239,-1.0478056010576098,0.09498202082777524,0.01107214801887387
2.557454824447632,-0.030854132026433945,0.055118560791015625,-0.02200978994369507,0.3712681233882904,-0.11299892514944077,0.08544836938381195,-1.0442723808659278,0.09494024558134916,0.012339588587008144
2.568483829498291,-0.029589980840682983,0.048542559146881104,0.0024300813674926758,0.3853093683719635,-0.10613569617271423,0.05614374577999115,-1.0403977298072455,0.0944968108608348,0.013084653341965834
2.578537940979004,-0.036997903138399124,0.04011869430541992,0.01921522617340088,0.347302109003067,-0.09625270962715149,0.014628581702709198,-1.0367014174215368,0.09346684215663699,0.013071766526401657
2.5867676734924316,-0.038022544234991074,0.01497507095336914,0.03384125232696533,0.30164140462875366,-0.07390132546424866,-0.007231976371258497,-1.033467523195945,0.09215371102228502,0.01254379052406117
2.5968778133392334,-0.03900386765599251,0.007255911827087402,0.0365217924118042,0.2630353271961212,-0.039399586617946625,-0.018724793568253517,-1.0306681741601864,0.09089691465498662,0.011751922193832283
2.6074728965759277,-0.038808971643447876,0.029327094554901123,0.019861161708831787,0.23185212910175323,0.005284528248012066,-0.01384002435952425,-1.0282267074684268,0.09005951654832788,0.010979164197206688
2.6172127723693848,-0.03819958493113518,0.03636139631271362,0.0030695199966430664,0.22906313836574554,0.05764515697956085,-0.009853539057075977,-1.0259552694262464,0.08984094010784388,0.010348311425011929
2.6273679733276367,-0.03851791471242905,0.03413045406341553,-0.009203970432281494,0.26476070284843445,0.0971507579088211,-0.0015652489382773638,-1.023522612872843,0.09018360067268984,0.009827930723603677
2.637129783630371,-0.03813398256897926,0.03406405448913574,-0.01636946201324463,0.33423444628715515,0.12073389440774918,0.005339847877621651,-1.0205492919636934,0.09088291930912423,0.009355091630486242
2.6474368572235107,-0.03560303524136543,0.04149073362350464,-0.01580721139907837,0.43128669261932373,0.12848955392837524,0.004302547313272953,-1.016746511700859,0.0916655737090175,0.008782743914314365
2.6624698638916016,-0.030160434544086456,0.042933762073516846,-0.00971221923828125,0.5394460558891296,0.12126532942056656,-0.001357255969196558,-1.011905764750081,0.09223358446458602,0.007977037078323958
2.6675686836242676,-0.024918202310800552,0.041379570960998535,-0.0058005452156066895,0.6065265536308289,0.09659034013748169,-0.021073170006275177,-1.0061723541334933,0.09232398105265718,0.006795808401785618
2.676783800125122,-0.02206258848309517,0.036383628845214844,0.0009232163429260254,0.6126174926757812,0.08156532049179077,-0.03959066420793533,-1.0000827160046957,0.09183701374420443,0.00516919909270654
2.68674898147583,-0.018474210053682327,0.02157127857208252,0.010968565940856934,0.5493578314781189,0.07422005385160446,-0.0499383769929409,-0.9942830699453433,0.09109361024790835,0.003352542073337456
2.6969947814941406,-0.012131676077842712,0.011459290981292725,0.010480821132659912,0.3824942708015442,0.08057195693254471,-0.0663738027215004,-0.9896445474351699,0.09028947858783283,0.001500640103257301
2.7085328102111816,-0.008204653859138489,0.004859328269958496,0.006752312183380127,0.15979568660259247,0.11317411065101624,-0.06383901089429855,-0.9869962270731774,0.0898883831889286,-0.0001384026841948849
2.7168526649475098,-0.00664743036031723,-0.018264710903167725,0.0037170052528381348,-0.04107775539159775,0.13251052796840668,-0.05787273123860359,-0.986483372771374,0.09015026193926357,-0.0013076867790236932
2.7268447875976562,-3.1869858503341675e-05,-0.03307551145553589,-0.004012048244476318,-0.18448929488658905,0.146155446767807,-0.05693625658750534,-0.987719039903572,0.09083275772465618,-0.0021651454432933346
2.7370619773864746,0.005228344351053238,-0.03153502941131592,-0.008485019207000732,-0.22877365350723267,0.13615328073501587,-0.04819294065237045,-0.9898854969150747,0.09175485853885719,-0.0027765903039740094
2.747131824493408,0.00626668706536293,-0.026262104511260986,-0.01337665319442749,-0.1869194209575653,0.0996759682893753,-0.035808708518743515,-0.9920420641493163,0.0926172858217044,-0.0031672185718808676
2.757941722869873,0.011563006788492203,-0.0125199556350708,-0.020474016666412354,-0.09212289750576019,0.0640532597899437,-0.0304371640086174,-0.99347738829338,0.09312791525968628,-0.00353784450237168
2.7671167850494385,0.016146831214427948,0.0010349154472351074,-0.021589994430541992,0.0077871885150671005,0.021978242322802544,-0.023861020803451538,-0.9939156938551696,0.09317942204156754,-0.003979276429110028
2.778481960296631,0.013598047196865082,0.0042116641998291016,-0.019363760948181152,0.09964514523744583,-0.008972837589681149,-0.012675478123128414,-0.9934068412300173,0.09285477776290134,-0.004431194535009009
2.7872488498687744,0.01112281158566475,0.0050811767578125,-0.010034739971160889,0.18477042019367218,-0.018651030957698822,-0.002212983090430498,-0.9919832089311574,0.09237774986420806,-0.0048006260366346715
2.79732084274292,0.007096722722053528,0.007042646408081055,-0.010189831256866455,0.2372659295797348,-0.01981501094996929,0.008820760063827038,-0.9898514661033497,0.09193306688779286,-0.005100850585893037
2.8080477714538574,0.00012128427624702454,0.003932297229766846,-0.012577593326568604,0.2595613896846771,-0.008846248500049114,0.012524418532848358,-0.9873496266347767,0.09158732178337589,-0.00532954789586736
2.8170738220214844,-0.0051541440188884735,-0.002276003360748291,-0.011255025863647461,0.2510918974876404,0.0073364051058888435,0.014707464724779129,-0.9847748670630179,0.09141726066898984,-0.005519967597451576
2.827338695526123,-0.006017711013555527,-0.009226024150848389,-0.008664071559906006,0.21187658607959747,0.01860530488193035,0.016256624832749367,-0.9824194297513958,0.09146870033778523,-0.0056174210896402545
2.8372788429260254,-0.008773665875196457,-0.010790348052978516,-0.0066165924072265625,0.12946712970733643,0.025151710957288742,0.006620722357183695,-0.980511974271428,0.09185747858491239,-0.0054904170600186
2.8473868370056152,-0.00952097773551941,-0.016236543655395508,0.0033941268920898438,0.0012332659680396318,0.04077194631099701,-0.007141695357859135,-0.9797701311827807,0.09249747762505255,-0.005247460930033684
2.858038902282715,-0.00921432301402092,-0.0283052921295166,0.014384090900421143,-0.11426396667957306,0.0690559595823288,-0.010943303816020489,-0.9803435950779857,0.09328984905016516,-0.005080381019962578
2.8674397468566895,-0.008475124835968018,-0.034257471561431885,0.014636218547821045,-0.1874484270811081,0.07336042821407318,-0.012025612406432629,-0.9819647932806508,0.09433245571621354,-0.004810128867777237
2.877518653869629,-0.00838560238480568,-0.03346520662307739,0.010628104209899902,-0.19971370697021484,0.06937718391418457,-0.017247166484594345,-0.9840032221875659,0.09520732717229737,-0.004637339646901529
2.88729190826416,-0.006368570029735565,-0.0197867751121521,0.012140154838562012,-0.1404154896736145,0.06583544611930847,-0.015146198682487011,-0.985674558894325,0.09580370058666338,-0.0047206672533128685
2.897502899169922,-0.004262387752532959,-0.006375908851623535,0.003518342971801758,-0.047464899718761444,0.05621872469782829,-0.00524323433637619,-0.9864792364379601,0.09616983153025709,-0.004926430470822454
2.910587787628174,-0.0024990811944007874,0.009106457233428955,-0.008710741996765137,0.0521911196410656,0.0474204421043396,0.005896768532693386,-0.9862122517192234,0.09644868539925608,-0.005125789485279826
2.9179117679595947,0.0020523816347122192,0.026449143886566162,-0.014119863510131836,0.13237273693084717,0.034248579293489456,0.01525756623595953,-0.9850362847135656,0.0965742821576177,-0.00534890946410662
2.9273908138275146,0.005988132208585739,0.029931366443634033,-0.013941526412963867,0.19167253375053406,0.02801438607275486,0.015109761618077755,-0.9832387034877652,0.09656340739574246,-0.005611994562361464
2.9373087882995605,0.009028755128383636,0.02668750286102295,-0.006865203380584717,0.22242672741413116,0.023100854828953743,0.010859888046979904,-0.9810564841693131,0.09646036330233453,-0.005948236134667845
2.947528839111328,0.008803702890872955,0.019238173961639404,0.000822603702545166,0.22467470169067383,0.009851095266640186,0.0011318938340991735,-0.9787337314260557,0.09617397472939654,-0.006413045243139575
2.958631992340088,0.010258100926876068,0.012410163879394531,0.00942385196685791,0.20458731055259705,0.0050447555258870125,-0.011203921400010586,-0.976535811518471,0.09565969020600741,-0.007043971380112648
2.9673399925231934,0.009312998503446579,0.006647050380706787,0.0155411958694458,0.16714859008789062,0.009637909010052681,-0.01624741591513157,-0.9748127511994508,0.09514099715005862,-0.0077112868052004605
2.977759838104248,0.006537694483995438,0.0022893548011779785,0.01585942506790161,0.13455219566822052,0.017061425372958183,-0.017984595149755478,-0.9734707969834425,0.09473143145279883,-0.008345499290892747
2.9874608516693115,0.0026267506182193756,0.00038361549377441406,0.014533758163452148,0.11220960319042206,0.027662137523293495,-0.019517511129379272,-0.9724106947434181,0.09445595798417603,-0.008933266097771984
2.99764084815979,-0.0007793530821800232,-4.4226646423339844e-05,0.013883769512176514,0.11457245796918869,0.02981494925916195,-0.017382614314556122,-0.9715183337840884,0.09436539492355119,-0.009412708166664603
3.0085859298706055,-0.00032955780625343323,0.0005544424057006836,0.010109424591064453,0.14001815021038055,0.023470500484108925,-0.01484648697078228,-0.97048485158775,0.09437226612605805,-0.009784261222975175
3.017530918121338,0.0017821677029132843,0.00685274600982666,0.012230277061462402,0.16315332055091858,0.011129900813102722,-0.013242783956229687,-0.9692228901779698,0.09435000280113277,-0.010098439581588327
3.028751850128174,0.0014031007885932922,0.00795900821685791,0.013117790222167969,0.16648520529270172,-0.000575757585465908,-0.015507270582020283,-0.9678356318085469,0.0941820330911686,-0.010444052919932346
3.0383658409118652,0.0013635344803333282,0.006080508232116699,0.01724022626876831,0.15298211574554443,0.0014955606311559677,-0.01293721329420805,-0.9665214623705952,0.09401814207057077,-0.010755145573060993
3.04965877532959,-4.945695400238037e-05,0.0014827251434326172,0.018895983695983887,0.10838082432746887,0.0022439088206738234,-0.011418412439525127,-0.9655103406664612,0.09395037213203886,-0.010957067086947936
3.0591797828674316,-0.002873297780752182,-0.006974458694458008,0.016152381896972656,0.06054197996854782,0.0061253332532942295,-0.01603931561112404,-0.9649539083272486,0.0938494655772457,-0.011195614739841384
3.0676238536834717,-0.003688577562570572,-0.014966130256652832,0.021273136138916016,0.026100382208824158,0.0092388354241848,-0.020592257380485535,-0.9647863496869894,0.09367684142916222,-0.011525912405914334
3.077775001525879,-0.0031415745615959167,-0.01956838369369507,0.0226859450340271,0.003570289583876729,0.008918855339288712,-0.022549839690327644,-0.9648831454080088,0.0934518607454301,-0.0119179322587281
3.0874788761138916,-0.003551952540874481,-0.0163690447807312,0.019213497638702393,-0.02363230288028717,0.012053130194544792,-0.02649557963013649,-0.9651866651337677,0.09324779166945503,-0.012305716222507075
3.0976898670196533,-0.0032299458980560303,-0.009443581104278564,0.012649178504943848,-0.03343992680311203,0.01463346742093563,-0.022129327058792114,-0.9656997680725431,0.09315273620302782,-0.01262533501422929
3.1078248023986816,-0.002022404223680496,-0.01148843765258789,0.008306503295898438,-0.027216117829084396,0.013331713154911995,-0.020881103351712227,-0.9662367560166734,0.09308683985651536,-0.012903641177659563
3.1176319122314453,-0.0023865848779678345,-0.01299816370010376,0.008034944534301758,-0.010817821137607098,0.006429288070648909,-0.01656198874115944,-0.9666110928056226,0.09299898378846451,-0.013160037124724095
3.127581834793091,-0.0037776418030261993,-0.006026744842529297,0.00712507963180542,0.006313495337963104,-0.002944506239145994,-0.017425386235117912,-0.9668023257799618,0.09281339458864149,-0.01341234527309316
3.1375527381896973,-0.004548132419586182,-0.004734516143798828,0.006592154502868652,0.025540601462125778,-0.008530441671609879,-0.01673290878534317,-0.9667300958131753,0.09246625975547795,-0.013755418518514877
3.1477279663085938,-0.006311845034360886,-0.011363804340362549,0.010195136070251465,0.042247142642736435,-0.013473001308739185,-0.013260680250823498,-0.9664739658686552,0.0920700958860317,-0.014080102307755023
3.159625768661499,-0.007570970803499222,-0.010597050189971924,0.009129106998443604,0.04957737773656845,-0.007289453875273466,-0.00863769929856062,-0.966064414352569,0.09173287676876868,-0.014345059647349986
3.1680867671966553,-0.010952599346637726,-0.008349180221557617,0.0058779120445251465,0.0325603112578392,0.0021953945979475975,-0.007631823420524597,-0.9657071119290772,0.09151345542840032,-0.014564196454270296
3.1777257919311523,-0.014907103031873703,-0.012803733348846436,0.0025287270545959473,0.01579323224723339,0.009765652008354664,-0.007196343503892422,-0.9655176545462659,0.09141191209868944,-0.014759470446434058
3.1876158714294434,-0.014594446867704391,-0.015085279941558838,-0.000889122486114502,0.007599751930683851,0.013388083316385746,-0.006697000935673714,-0.965424265859297,0.09141326625383603,-0.014900597907818933
3.197889804840088,-0.011223278939723969,-0.01364123821258545,0.0016244053840637207,0.007214675657451153,0.009648073464632034,-0.0027566938661038876,-0.9653536546958966,0.09143263110408678,-0.01500924104570592
3.2079787254333496,-0.008838173002004623,-0.006941497325897217,0.003003716468811035,0.014007067307829857,0.005822442937642336,-0.0012544047785922885,-0.9652713130312364,0.09144029124043851,-0.01508521979359124
3.2177658081054688,-0.007110469043254852,-0.0008716583251953125,0.002437293529510498,0.019381161779165268,0.007211991585791111,0.001956142485141754,-0.9651429178758815,0.09144410070322359,-0.015141132534944476
3.227775812149048,-0.006152212619781494,-0.0004678964614868164,0.0012136101722717285,0.025329330936074257,0.0038132653571665287,0.0014594628009945154,-0.9649428425587327,0.09142299093084827,-0.015210756809046265
3.237668991088867,-0.005373399704694748,-0.0011809468269348145,0.0022732019424438477,0.026456130668520927,-0.004010258708149195,-0.005320039577782154,-0.9647213807051838,0.09125812231568843,-0.015369281030619717
3.2478158473968506,-0.0036353208124637604,0.0023810267448425293,0.008446574211120605,0.023615071550011635,-0.007405789103358984,-0.013916457071900368,-0.9644954173394066,0.09082746699052392,-0.015744747929990633
3.2585787773132324,-0.001344919204711914,-0.00024193525314331055,0.013644218444824219,0.02803575061261654,-0.014500272460281849,-0.01607031561434269,-0.9642249611348559,0.09019786700126371,-0.01626940208212986
3.267849922180176,-0.0013061389327049255,-0.001483142375946045,0.015993595123291016,0.031021153554320335,-0.016368214040994644,-0.017435718327760696,-0.9638594748194286,0.08949102898882927,-0.016827272572118846
3.2779979705810547,-0.0029162541031837463,0.007901966571807861,0.012878119945526123,0.020338132977485657,-0.005916771478950977,-0.018682504072785378,-0.96356350612855,0.08890296563719108,-0.017343676745796247
3.287789821624756,-0.004094522446393967,0.006184518337249756,0.008153676986694336,0.002104802057147026,0.0072155422531068325,-0.020410628989338875,-0.9634714154055807,0.08846754210579318,-0.017821279181059527
3.297797679901123,-0.008030440658330917,-0.0033184289932250977,0.005972683429718018,-0.014697064645588398,0.015270494855940342,-0.021561965346336365,-0.9635993138989608,0.08818705118811647,-0.018267535676523974
3.3078527450561523,-0.00835595652461052,-0.004986703395843506,0.01016455888748169,-0.02136695198714733,0.01859092339873314,-0.021313758566975594,-0.9638222494005648,0.08798266481631918,-0.01868460202619305
3.317929744720459,-0.008234646171331406,-0.0037640929222106934,0.013282477855682373,-0.021576374769210815,0.02129642851650715,-0.023631136864423752,-0.9640864116504007,0.08782951146293942,-0.019091584214889597
3.327831745147705,-0.009051453322172165,-0.006992936134338379,0.015946388244628906,-0.006554815918207169,0.02232733927667141,-0.021966127678751945,-0.9643435532698368,0.08771515832937905,-0.019491954700375277
3.337772846221924,-0.008900362998247147,-0.007912695407867432,0.015740633010864258,0.01523398607969284,0.019591784104704857,-0.020548740401864052,-0.9644313594750886,0.08764828669952263,-0.01983618263293986
3.3479719161987305,-0.008976411074399948,-0.0039130449295043945,0.011344075202941895,0.02924381196498871,0.01960296928882599,-0.019251249730587006,-0.9643478041816141,0.08752976494706843,-0.020211763380408625
3.3582658767700195,-0.006750777363777161,-0.0016862750053405762,0.010355114936828613,0.036474213004112244,0.012278610840439796,-0.020450469106435776,-0.9641890382405714,0.08732538809173865,-0.02064589928199746
3.368043899536133,-0.003736458718776703,-0.0030084848403930664,0.012399673461914062,0.029799796640872955,0.0040441169403493404,-0.023143459111452103,-0.9639656522272344,0.08701395627184731,-0.02111208766368487
3.378049850463867,-0.0019078515470027924,-0.0016866326332092285,0.011350631713867188,0.004814584739506245,0.004720116499811411,-0.030305122956633568,-0.9638417134145817,0.08651932050263858,-0.021721195228253755
3.3879547119140625,0.0022734664380550385,0.0006439089775085449,0.009964168071746826,-0.025298576802015305,0.008946020156145096,-0.03353234380483627,-0.9640361869520314,0.08603255133709599,-0.022356855576315338
3.3980188369750977,0.002862997353076935,-0.0053285956382751465,0.0069544315338134766,-0.04001924768090248,0.002146304352208972,-0.0426299124956131,-0.96450230235466,0.08548216523215675,-0.023063518973192858
3.409852981567383,0.004986613988876343,-0.00868135690689087,0.005421757698059082,-0.04219957813620567,-0.009931131266057491,-0.04674343019723892,-0.965057503925853,0.08473927100043341,-0.023875199095531905
3.418024778366089,0.006414793431758881,-0.005905270576477051,0.009386241436004639,-0.02952258288860321,-0.023193450644612312,-0.04716617986559868,-0.9655418318986146,0.08384067243079113,-0.024728006312062695
3.4282028675079346,0.009446606040000916,-0.0019835233688354492,0.012419164180755615,-0.012355313636362553,-0.023752715438604355,-0.04343429207801819,-0.9658632724910999,0.08286488006338047,-0.025584131159595864
3.4381299018859863,0.008638370782136917,0.0006129741668701172,0.010121703147888184,-0.01302300114184618,-0.01959463208913803,-0.04298368841409683,-0.9660736387869767,0.08197368843113688,-0.026372586060652584
3.4479568004608154,0.005936160683631897,-0.003898322582244873,0.005747675895690918,-0.01889154314994812,-0.007481245324015617,-0.043193280696868896,-0.9663327752056076,0.08122576749094272,-0.02710758344120656
3.4582419395446777,0.0020431652665138245,-0.011095523834228516,0.005478203296661377,-0.020873717963695526,-0.0005829925648868084,-0.03987082839012146,-0.9666195772916951,0.08064330749036042,-0.027783754643509503
3.4680588245391846,0.001392405480146408,-0.013661026954650879,0.006989538669586182,-0.011483678594231606,0.0053526610136032104,-0.038641247898340225,-0.966864681476941,0.08023124606874825,-0.028362167817148114
3.4782156944274902,-0.002081777900457382,-0.011809945106506348,0.00854027271270752,-0.0027916026301681995,0.012443993240594864,-0.03441299870610237,-0.9669638596888407,0.07991075915423373,-0.028896932986220883
3.4880928993225098,-0.006881512701511383,-0.013685822486877441,0.011158764362335205,0.005109729710966349,0.015830202028155327,-0.028731143102049828,-0.9669620905480695,0.07973682721705869,-0.02932864054025213
3.498048782348633,-0.008630525320768356,-0.01548624038696289,0.011379718780517578,0.018513884395360947,0.019478200003504753,-0.022413166239857674,-0.966881365898221,0.07969035924017673,-0.02965555723913438
3.508230686187744,-0.009124010801315308,-0.011519193649291992,0.01106727123260498,0.01962282508611679,0.026098020374774933,-0.019890619441866875,-0.9667743369246472,0.0797680080968892,-0.029912032111387713
3.5182409286499023,-0.008437499403953552,-0.011217176914215088,0.008533656597137451,0.015949660912156105,0.034944865852594376,-0.01677168533205986,-0.9666724026471812,0.07994507324358545,-0.030128428927961682
3.5285208225250244,-0.011880744248628616,-0.014209985733032227,0.007274270057678223,0.002996311988681555,0.03795556724071503,-0.012353234924376011,-0.9665954649668818,0.08016940646700615,-0.03033545092651896
3.53830885887146,-0.012342188507318497,-0.015286147594451904,0.007456779479980469,-0.013338436372578144,0.04362805560231209,-0.009612096473574638,-0.9666365029548369,0.08045014906686292,-0.030500245222838698
3.5495128631591797,-0.01046767458319664,-0.010117828845977783,0.005783557891845703,-0.03731008246541023,0.044448573142290115,-0.004325721878558397,-0.9668860438907376,0.08086083819127483,-0.03055421296936791
3.5593228340148926,-0.010922901332378387,-0.00964885950088501,0.001659989356994629,-0.05052102357149124,0.044687725603580475,-0.0021830489858984947,-0.9673501716021976,0.08128858572382935,-0.03056883520820414
3.568105697631836,-0.005487695336341858,-0.006795048713684082,0.00043839216232299805,-0.04129636660218239,0.033328279852867126,2.790719736367464e-05,-0.9678335737991358,0.08163729466697162,-0.03058104629335409
3.578202724456787,-0.002568323165178299,0.002138376235961914,0.00018858909606933594,-0.01929401233792305,0.024465857073664665,0.0023603038862347603,-0.9681441227328725,0.08185454554546041,-0.03062724019712769
3.588080883026123,0.0003000684082508087,0.012199103832244873,-0.0018707513809204102,0.007646257057785988,0.010558297857642174,-0.0025644139386713505,-0.9682156956496111,0.0818905685672829,-0.03074365618410478
3.598306655883789,0.0037322193384170532,0.017577707767486572,-0.00544208288192749,0.025585027411580086,0.006567062344402075,-0.011960525996983051,-0.9680410282390787,0.08170959288918303,-0.031012447260619903
3.6083507537841797,0.0036668144166469574,0.018327176570892334,-0.009311556816101074,0.032674893736839294,0.0030799193773418665,-0.021355625241994858,-0.9677417776920507,0.0812768267587438,-0.03150888251449224
3.6181607246398926,0.004626616835594177,0.014611005783081055,-0.008933842182159424,0.03197314962744713,-0.0018161246553063393,-0.02634868025779724,-0.9674068440236355,0.08070031015453831,-0.032143834300973624
