timestamp,accel_x,accel_y,accel_z,rotation_x,rotation_y,rotation_z, pitch,roll,yaw
0.046350955963134766,0.0038150865584611893,-0.013872316107153893,0.011605679988861084,0.011129448190331459,0.00629652664065361,-0.0038683153688907623,0.018445827690400634,-0.002823593641256444,2.6042519658907067e-05
0.06548190116882324,0.005895914975553751,-0.015443358570337296,0.011923789978027344,0.013702777214348316,0.009852779097855091,-0.0006331071490421891,0.018583792949129686,-0.002737666178259855,2.2444028564003982e-06
0.06696271896362305,0.00716039165854454,-0.015553217381238937,0.011845588684082031,0.009012417867779732,0.011689028702676296,-0.00046053429832682014,0.018702835895329537,-0.0026288376599977316,-6.326648126828559e-06
0.07392692565917969,0.00900382362306118,-0.01717662625014782,0.013629794120788574,0.004145624116063118,0.009279045276343822,-0.0025781202130019665,0.01877316651667386,-0.0025191288916826746,-2.4927687477847027e-05
0.08226299285888672,0.010182713158428669,-0.01785694807767868,0.014041602611541748,0.001328798709437251,0.008371972478926182,-0.0011461384128779173,0.018794752861418622,-0.002431524336711663,-3.958118581102488e-05
0.08888769149780273,0.011958703398704529,-0.015082402154803276,0.013477146625518799,-0.0022524704691022635,0.0011555603705346584,-0.004821300506591797,0.01879219895071463,-0.0023917122791118047,-7.041226585461093e-05
0.09889483451843262,0.014132478274405003,-0.014646900817751884,0.011723101139068604,-0.006800883449614048,-0.0025294553488492966,-0.006073785480111837,0.01875467055926438,-0.0023987375209425016,-0.00012379025732446876
0.10890388488769531,0.013798383064568043,-0.01734231784939766,0.012929856777191162,-0.008656873367726803,0.00023011211305856705,-0.0056208353489637375,0.01868375335946201,-0.0024155953253225423,-0.0001819375635228032
0.11894488334655762,0.010576781816780567,-0.017283206805586815,0.011756181716918945,-0.00603685574606061,0.005080527625977993,-0.002219179179519415,0.018620782922620954,-0.0023830722290372856,-0.00022460252058993058
0.1289668083190918,0.008884016424417496,-0.012974413111805916,0.0106276273727417,0.0008645597845315933,0.006841941736638546,0.0023650797083973885,0.018596076536427246,-0.0023229856254213463,-0.00021007489551694923
0.13918590545654297,0.008291587233543396,-0.01208232156932354,0.01248866319656372,0.005545065738260746,0.008031575940549374,0.0019490938866510987,0.018633681140172262,-0.002249343458264409,-0.00018796900887767113
0.1492748260498047,0.006581570021808147,-0.013535074889659882,0.011755108833312988,0.006777659524232149,0.013639705255627632,0.0013522261288017035,0.018706821065110336,-0.0021414835583785197,-0.0001674421121744291
0.15933990478515625,0.00419298280030489,-0.015152961015701294,0.009939372539520264,-0.004052617587149143,0.0198826864361763,0.0006350369658321142,0.018721627527484005,-0.0019653899343953546,-0.00016636659320907546
0.16918587684631348,0.005076253786683083,-0.018747767433524132,0.010292291641235352,-0.01331600733101368,0.019323911517858505,-0.0008637900464236736,0.01863632747712009,-0.0017652485904210413,-0.000163902921390378
0.17918682098388672,0.006432670634239912,-0.019739678129553795,0.015070855617523193,-0.011796407401561737,0.01845172606408596,-0.001903221826069057,0.018514147291701897,-0.0015804917688571271,-0.00017751160315262714
0.18931984901428223,0.007086178287863731,-0.018596384674310684,0.013424932956695557,-0.007033576723188162,0.015028676949441433,-0.005785577930510044,0.01842146148243258,-0.001409992850626307,-0.0002216327238408503
0.1992788314819336,0.007009318098425865,-0.015908557921648026,0.010961413383483887,-0.0018537286669015884,0.018161620944738388,-0.006250832229852676,0.018805277824070838,-0.001165252810987136,-0.00028101066925534417
0.20909976959228516,0.007498466409742832,-0.01635024882853031,0.010650992393493652,-0.0028177928179502487,0.019244017079472542,-0.004232635721564293,0.019096062677386203,-0.0009219409712937505,-0.00033286295779839324
0.21935081481933594,0.008513583801686764,-0.018134675920009613,0.010555505752563477,-0.010028301738202572,0.021923955529928207,-0.0021242110524326563,0.019310575695145268,-0.0006552742817442564,-0.0003667471897756273
0.22916078567504883,0.007128874771296978,-0.020320869982242584,0.008842885494232178,-0.01348140649497509,0.027510955929756165,-0.002215983346104622,0.01950478807811413,-0.000369146103978632,-0.0003914524361386025
0.239210844039917,0.00531214801594615,-0.019113149493932724,0.0050389766693115234,-0.012076056562364101,0.031194906681776047,4.557287320494652e-05,0.01973599214488746,-4.772033994298518e-05,-0.00040720828420903206
0.2491769790649414,0.005120407789945602,-0.013881545513868332,0.0009878277778625488,-0.0040136356838047504,0.031198102980852127,0.0021659282501786947,0.020115375822674385,0.0002966775899765562,-0.00038693876182638195
0.25908470153808594,0.005564311519265175,-0.011946471408009529,-0.00030362606048583984,0.0010953727178275585,0.027502700686454773,-0.0005068200989626348,0.020585703625389886,0.0006310460038343766,-0.0003742091634622511
0.26919984817504883,0.005375632084906101,-0.013866804540157318,0.000861823558807373,6.286520510911942e-05,0.023204803466796875,0.00195255596190691,0.021030576870090457,0.0009266084523642075,-0.0003696157290799556
0.27940797805786133,0.007600716315209866,-0.017387017607688904,0.0005955696105957031,-0.007312493398785591,0.01859700307250023,0.0030146243516355753,0.021340391951143945,0.001173510232768479,-0.0003505123014437645
0.2896769046783447,0.009897937998175621,-0.019710134714841843,-0.000813603401184082,-0.01567348837852478,0.008026649244129658,-0.0003076688735745847,0.021580805968829934,0.0013482588425276635,-0.000339941862100383
0.2994978427886963,0.010301906615495682,-0.02085987851023674,0.0011650323867797852,-0.018468473106622696,0.0017067017033696175,0.0014582732692360878,0.021804406455982327,0.001447860907532215,-0.00033343847217252317
0.30928468704223633,0.0069763860665261745,-0.020582284778356552,0.0026396512985229492,-0.017311330884695053,-0.0017185676842927933,0.00608636811375618,0.022051542608542456,0.0014927605528836443,-0.0002997606610478704
0.31946682929992676,0.005007167346775532,-0.018788296729326248,0.0038089752197265625,-0.01193334348499775,-0.0036099450662732124,0.01047445833683014,0.022304455084150472,0.0014936042090216573,-0.00021249670067566468
0.3293800354003906,0.0010178536176681519,-0.018152285367250443,0.006825506687164307,-0.0034108455292880535,0.0004834672436118126,0.014084532856941223,0.02251327230409214,0.0015003832386399735,-9.576467491364266e-05
0.33939385414123535,-0.001575543312355876,-0.01807579956948757,0.007552683353424072,0.004654803778976202,0.0068910326808691025,0.013905568048357964,0.02274240495838175,0.0015608443723846145,4.761512357003276e-05
0.3498220443725586,-0.0030952608212828636,-0.016683334484696388,0.005865514278411865,0.014676278457045555,0.012964727357029915,0.01647903397679329,0.02311262875741682,0.0016920610378475054,0.00019859312425145635
0.3617897033691406,-0.0039536901749670506,-0.015326466411352158,0.005608499050140381,0.020588763058185577,0.019059371203184128,0.020800013095140457,0.023645666440994126,0.0019097035758518077,0.0003764661133079882
0.369661808013916,-0.0022495475132018328,-0.010711774230003357,0.003793001174926758,0.023315157741308212,0.021402020007371902,0.020022956654429436,0.024247470000630676,0.002189313397215019,0.0005794785368186586
0.3796558380126953,0.000804306473582983,-0.011678235605359077,0.0034566521644592285,0.021061323583126068,0.020706936717033386,0.021481303498148918,0.024868110438409977,0.002477257685935906,0.0007857963860686717
0.3894538879394531,0.005386737175285816,-0.010952681303024292,0.002846956253051758,0.013458382338285446,0.012484913691878319,0.021131310611963272,0.025425993768387882,0.0026861899646041854,0.0009936964615336668
0.39957189559936523,0.01020764745771885,-0.0060005709528923035,0.002438783645629883,0.005175418686121702,0.002873565535992384,0.019808251410722733,0.025861647382815302,0.002793935326157457,0.0011974984876423009
0.41177988052368164,0.011200882494449615,-0.0020119361579418182,0.0022925734519958496,-0.0005288226529955864,-0.0023128073662519455,0.012680408544838428,0.026203547050999827,0.002792546552857669,0.0013744260197930199
0.4196357727050781,0.009468300268054008,-0.0012232717126607895,0.0025908946990966797,-0.007773153483867645,-0.00892703328281641,0.005646466743201017,0.02647350393173912,0.002709322840997251,0.0014679307661566228
0.4296848773956299,0.005897475406527519,0.001722218468785286,0.002265453338623047,-0.008617192506790161,-0.007795502431690693,0.00046320969704538584,0.026672485064077964,0.002587491813110336,0.0014993175156419486
0.4395480155944824,0.0018613871652632952,0.0015263613313436508,0.0028104782104492188,-0.006522083654999733,-0.005004508420825005,-0.0065345121547579765,0.026842899153434074,0.002488423586471143,0.001475368059288259
0.4496450424194336,-0.0002327656839042902,0.0006040520966053009,0.0036913156509399414,0.005757252685725689,-0.001895090565085411,-0.010456815361976624,0.027004020202714276,0.0024310772496649678,0.001389677568062296
0.4598360061645508,-0.0018405916634947062,-0.001171901822090149,0.005178868770599365,0.009753325954079628,0.005006491206586361,-0.010968941263854504,0.027288108855514758,0.0024520152850921366,0.0012757082220430807
0.46988773345947266,-0.0017144216690212488,-0.0036287307739257812,0.005232095718383789,0.007833519950509071,0.007707647513598204,-0.012484227307140827,0.027562706226527473,0.0025700498318047705,0.0011572315351817354
0.47960472106933594,0.00019695633091032505,-0.011236796155571938,0.00888979434967041,0.004746383521705866,0.008080489933490753,-0.008990692906081676,0.02770616099259649,0.0027339405660551813,0.001045461350180367
0.4897327423095703,0.0025066060479730368,-0.01202898658812046,0.011374413967132568,0.008480018936097622,0.003826666623353958,-0.0051756612956523895,0.02778375184529352,0.0028810194388057078,0.0009844671163213878
0.4996190071105957,0.004845088347792625,-0.010208744555711746,0.010975122451782227,0.0079870680347085,0.002227704506367445,-2.1378975361585617e-05,0.02786452261355874,0.0029839895804628968,0.0009545266496203954
0.5112338066101074,0.005202705971896648,-0.011451156809926033,0.008517205715179443,0.01016212161630392,-0.0004892079159617424,0.0012033021776005626,0.027903863339708755,0.0030383843318399976,0.0009625644703334112
0.5197048187255859,0.0060205115005373955,-0.011276666074991226,0.008867084980010986,0.008903778158128262,-0.0008442066609859467,0.006002318579703569,0.027941040676532195,0.003044558741793705,0.0009878435008666433
0.5296249389648438,0.006143547128885984,-0.01345190778374672,0.006027102470397949,0.009971155785024166,0.0030286950059235096,0.008874377235770226,0.028008864668968136,0.003043598312002348,0.0010695864699574633
0.5395970344543457,0.005799439270049334,-0.011933812871575356,0.0022395849227905273,0.009941861033439636,0.0049392469227313995,0.00826930720359087,0.02812319794038642,0.0030672920934919578,0.0011578827451937724
0.5497007369995117,0.005339372903108597,-0.010459326207637787,0.00386810302734375,0.007320079021155834,0.0012607108801603317,0.012219095602631569,0.02827022848155332,0.0030848727283704193,0.0012563572289842255
0.5611488819122314,0.004753922577947378,-0.01189679466187954,0.005966067314147949,0.005226568318903446,-0.00010389275848865509,0.012777825817465782,0.02854185422316597,0.0030905156670116324,0.0013888460579909998
0.569739818572998,0.0050946748815476894,-0.01102987490594387,0.0060811638832092285,0.0003605899401009083,0.0025772443041205406,0.013888737186789513,0.02878326182228464,0.003116006197614238,0.0015343263476675262
0.5797057151794434,0.003214570926502347,-0.010056538507342339,0.00561755895614624,0.0035598452668637037,0.0039791325107216835,0.011397616937756538,0.02897848228838775,0.0031803596308494944,0.0016606670449240398
0.5897078514099121,0.002239280380308628,-0.007170088589191437,0.005381286144256592,0.0058965859934687614,0.0045806970447301865,0.010773798450827599,0.02922526483202203,0.003255436457085615,0.0017739120198342873
0.5997138023376465,0.0007096831686794758,-0.005903789773583412,0.0054645538330078125,0.009790128096938133,0.002221135888248682,0.008306911215186119,0.029499859964156952,0.003320244564193047,0.0018681610313311427
0.6112048625946045,0.00017183576710522175,-0.006947925314307213,0.005149781703948975,0.00915151834487915,0.0050311703234910965,0.00816645659506321,0.029813897698514974,0.0034003965329697326,0.001946846321907638
0.6197688579559326,-0.000624197069555521,-0.006471719592809677,0.00245511531829834,0.01186235062777996,0.00753693887963891,0.009511885233223438,0.030107129612969952,0.0034945976196096608,0.002033601870544501
0.6297407150268555,-5.097128450870514e-05,-0.0069688428193330765,0.0031943917274475098,0.008702259510755539,0.006460355594754219,0.00519692525267601,0.030373066238750704,0.0035928329289588476,0.002108877589909517
0.6398499011993408,0.0003998011816293001,-0.008619768545031548,0.005108475685119629,0.009437824599444866,0.002588386181741953,0.006921587977558374,0.03064487405904863,0.0036609215091875096,0.0021682761772271364
0.6498348712921143,0.0003785432782024145,-0.008939266204833984,0.005939006805419922,0.011275505647063255,0.00386430649086833,0.008028024807572365,0.03092059932992365,0.0037280189593779578,0.0022509429627398277
0.6612730026245117,-0.0011405246332287788,-0.007468819618225098,0.006723463535308838,0.015086223371326923,0.0063820588402450085,0.013532512821257114,0.031200996363368858,0.0037975698924040194,0.002357750152661343
0.6698527336120605,-0.0008100091945379972,-0.008555717766284943,0.008790910243988037,0.01525072380900383,0.004843151196837425,0.01589074172079563,0.03144172856390912,0.0038638441597638007,0.002497147444530024
0.6798858642578125,0.0005032829940319061,-0.007633324712514877,0.011148929595947266,0.014844590798020363,0.0007304316386580467,0.019395994022488594,0.031662326741419486,0.003893367606529889,0.002671014092888162
0.6898128986358643,0.0013117443304508924,-0.0090312659740448,0.014544665813446045,0.009101949632167816,0.0028370805084705353,0.02212887816131115,0.03188192573841584,0.0038936491932787367,0.002873355390371686
0.6998577117919922,-0.0019353218376636505,-0.01104569062590599,0.016127049922943115,1.977197825908661e-05,0.006171358283609152,0.024937979876995087,0.03201906612765299,0.003921143144287385,0.003110160658622961
0.7111458778381348,-0.004313832614570856,-0.013094913214445114,0.01887059211730957,-0.0016148430295288563,0.009802223183214664,0.028838446363806725,0.03210611846677236,0.003980359645849895,0.003373408153633157
0.7198758125305176,-0.006042038090527058,-0.012125935405492783,0.022665441036224365,0.000827808165922761,0.015441733412444592,0.03440418466925621,0.03223593234724333,0.0040912086026400766,0.0036866517210564914
0.7298927307128906,-0.005869860760867596,-0.007630690932273865,0.021881282329559326,0.006416302174329758,0.023769836872816086,0.0374160073697567,0.032397764187026674,0.0042701007118435726,0.004052535689511592
0.7398667335510254,-0.006662068888545036,-0.005341898649930954,0.020531296730041504,0.010079213418066502,0.036692291498184204,0.04029994457960129,0.03258093757357068,0.004558950589661809,0.00443801039669927
0.7499358654022217,-0.0069063929840922356,-0.00205819308757782,0.019955694675445557,0.019841479137539864,0.04640071466565132,0.040885042399168015,0.03285881045642351,0.00495612430480453,0.004849482094505254
0.7613739967346191,-0.004953529220074415,0.0010886788368225098,0.017136037349700928,0.018289921805262566,0.04868943244218826,0.036664996296167374,0.03315244981300332,0.005414455138023672,0.005239313783973533
0.7700419425964355,-0.0012217694893479347,0.0015621781349182129,0.0147438645362854,0.012818275019526482,0.046530719846487045,0.02760327234864235,0.033427737332619556,0.005879180028177976,0.005564441207749874
0.7799696922302246,0.0009361617267131805,0.004158526659011841,0.013726472854614258,0.007148405071347952,0.0429045595228672,0.020048150792717934,0.033659105755112356,0.006300276033179694,0.005811222809483102
0.7900838851928711,0.0018039033748209476,0.006392713636159897,0.009536564350128174,0.0012941111344844103,0.043134212493896484,0.010370329022407532,0.03384872105293768,0.0066992919886998984,0.005957732241031922
0.8002109527587891,0.003073614090681076,0.011258125305175781,0.003334939479827881,-0.006296164356172085,0.03828113526105881,0.0012743021361529827,0.03396871752595147,0.007062515918230463,0.006020275807598856
0.8114488124847412,0.006729389075189829,0.01310139149427414,0.0009821057319641113,-0.005968312732875347,0.027267232537269592,-0.005714471451938152,0.033996203827664016,0.007343685236895529,0.006006354368589544
0.8200018405914307,0.006931533571332693,0.010956116020679474,0.0009952187538146973,-0.0024164544884115458,0.020733434706926346,-0.013660279102623463,0.03401768955403668,0.007538393155410864,0.005903546070962149
0.8300638198852539,0.0032047871500253677,0.008511316031217575,0.0005816221237182617,0.0017473646439611912,0.02028309367597103,-0.015291784889996052,0.03402956180901545,0.007694679350938899,0.005752489140197922
0.8399689197540283,0.00026331283152103424,0.006588783115148544,-0.0018611550331115723,0.001787844579666853,0.02160269021987915,-0.017874784767627716,0.03402963383111286,0.00787442173072046,0.005587020941077978
0.8500738143920898,-0.0006325691938400269,0.0025122836232185364,-0.005540013313293457,0.002957754535600543,0.019585832953453064,-0.022156987339258194,0.03402723394977575,0.00806851845286141,0.005382257821389974
0.8613288402557373,0.00043034832924604416,-0.0048611462116241455,-0.0069280266761779785,-0.0008495004149153829,0.02003750577569008,-0.021690934896469116,0.03396272660839768,0.008272186579387199,0.005164610358390543
0.8700969219207764,0.0007625594735145569,-0.00669199600815773,-0.007810473442077637,-0.001575161935761571,0.015676889568567276,-0.01637617126107216,0.03384078791562188,0.008458853852473093,0.0049731765492036385
0.880112886428833,0.003254392184317112,-0.008078549057245255,-0.006674408912658691,-0.008836537599563599,0.00908237136900425,-0.011073817498981953,0.03359850748057743,0.008606810167487803,0.0048288218845530485
0.8899989128112793,0.003725777380168438,-0.011638015508651733,-0.006496906280517578,-0.007921491749584675,0.0005170674994587898,-0.003247425891458988,0.03328899244863097,0.008684699229479396,0.004764091241666099
0.9001216888427734,0.004317205399274826,-0.013539005070924759,-0.0053594112396240234,-0.00852283276617527,-0.007238590158522129,0.0016160389641299844,0.03303581086908192,0.008688293369289892,0.004752341657659346
0.9114370346069336,0.0035413075238466263,-0.01445101946592331,-0.00541234016418457,-0.010481138713657856,-0.011711680330336094,0.007081164978444576,0.03281032127329533,0.008609590107301834,0.004791162733389732
0.9202957153320312,0.005420618690550327,-0.0145561583340168,-0.002306520938873291,-0.014958977699279785,-0.017716575413942337,0.011087624356150627,0.032598256512215235,0.00845437433757736,0.004886149992373451
0.9303150177001953,0.004147804342210293,-0.01737760752439499,0.004248142242431641,-0.02296435832977295,-0.021504700183868408,0.0147541593760252,0.03238594821554135,0.008246911608961722,0.005010159738300265
0.9402379989624023,0.003395383246243,-0.018844246864318848,0.007717728614807129,-0.023546524345874786,-0.02193613164126873,0.020512178540229797,0.0322620150259903,0.008022611990134411,0.005186806585541234
0.9502668380737305,0.0017651291564106941,-0.013915300369262695,0.011750578880310059,-0.023099346086382866,-0.019429298117756844,0.023032646626234055,0.032170771646147074,0.007821676552605315,0.005409543449596589
0.9624388217926025,-0.0013786917552351952,-0.010738149285316467,0.012516021728515625,-0.015744760632514954,-0.014640135690569878,0.024734407663345337,0.032128301243157575,0.007669506402300013,0.005653070695274826
0.9706778526306152,0.00047520874068140984,-0.006092585623264313,0.012330293655395508,-0.008118964731693268,-0.0032078074291348457,0.027340684086084366,0.03222679483067136,0.007600870892384318,0.00592144493213538
0.980247974395752,-0.0015239096246659756,-0.0005038529634475708,0.010691702365875244,-0.005102402530610561,0.007442972622811794,0.027230164036154747,0.03239874906441718,0.0076469324420828455,0.006203449902077812
0.9905269145965576,-0.0006087138317525387,0.0010331012308597565,0.013416886329650879,-0.012367123737931252,0.009371412917971611,0.026443731039762497,0.03256249753637604,0.007754177687128429,0.006473105426683425
1.0002238750457764,0.0016120001673698425,-0.00023540109395980835,0.018494248390197754,-0.01795496791601181,0.007636895403265953,0.02477339655160904,0.03265207374738745,0.007868144784713526,0.006730768253082313
1.0114879608154297,0.0021936343982815742,-0.0008952803909778595,0.023801207542419434,-0.026535190641880035,0.007748881820589304,0.020066045224666595,0.032724657563899154,0.007957968579578235,0.006952738779234702
1.0202958583831787,0.0018037697300314903,5.6415796279907227e-05,0.02373957633972168,-0.039100248366594315,0.01186053641140461,0.010354562662541866,0.03271504193918755,0.00807323740104144,0.007104462170346403
1.0302538871765137,0.001539073884487152,0.0015276633203029633,0.019487738609313965,-0.04579693451523781,0.010215146467089653,0.007297359872609377,0.03252297945571879,0.008185357731275149,0.007201451801751606
1.0402507781982422,0.004167813807725906,0.0026562437415122986,0.019021809101104736,-0.0410730205476284,0.015767037868499756,0.01203059684485197,0.03227813878212988,0.008287933027424133,0.007300336109114089
1.0503478050231934,0.002615838311612606,0.005613990128040314,0.01922839879989624,-0.0367409884929657,0.024578463286161423,0.007430092431604862,0.03197034832162961,0.008481900932820013,0.007403834824258128
1.0613007545471191,-0.00010730884969234467,0.004375863820314407,0.016080200672149658,-0.04835769534111023,0.0319112092256546,0.009034646674990654,0.03157125427548268,0.008748417177476327,0.007475241843151073
1.070295810699463,0.0020569823682308197,0.0011730212718248367,0.012980282306671143,-0.05581330135464668,0.032355647534132004,0.008482360281050205,0.031068971079514802,0.009071339137791703,0.007569731886062125
1.080312728881836,0.004583391360938549,0.0001622214913368225,0.011897087097167969,-0.07062579691410065,0.03153486177325249,0.004986961837857962,0.030469873087247832,0.009398322744113282,0.0076261642166933425
1.0903429985046387,0.005890677683055401,-0.003399098291993141,0.01435941457748413,-0.09385313838720322,0.025990381836891174,0.004860834218561649,0.029685299472305058,0.009677864595082202,0.007684720637478732
1.1003358364105225,0.0068536605685949326,-0.011399086564779282,0.016035377979278564,-0.12357109040021896,0.02182013727724552,0.008267018012702465,0.028642876281664037,0.00992014369584693,0.007764058117189862
1.1113409996032715,0.007418032735586166,-0.01594925858080387,0.02041870355606079,-0.14342200756072998,0.013506148010492325,0.01200066227465868,0.02734231743989534,0.010103169053505098,0.00787661821155835
1.1204638481140137,0.00852873083204031,-0.016366273164749146,0.01848965883255005,-0.16831110417842865,0.005586706101894379,0.014822015538811684,0.025826133075735884,0.010197543440610395,0.008018506148464048
1.1304097175598145,0.008036024868488312,-0.019386878237128258,0.0185968279838562,-0.20679691433906555,0.0009904000908136368,0.019332293421030045,0.023964619789354474,0.010216761921221904,0.008207979033980914
1.140354871749878,0.004126286134123802,-0.027195921167731285,0.019258856773376465,-0.26197654008865356,0.0052999272011220455,0.02717743255198002,0.021693923437980066,0.010234984337367055,0.00846739608695113
1.1504778861999512,0.00024428684264421463,-0.03735943138599396,0.01397770643234253,-0.352189302444458,0.009577585384249687,0.02048911526799202,0.018716695302148412,0.010301687089485367,0.00873507718791204
1.1619288921356201,-0.0036545200273394585,-0.05403725057840347,0.01747596263885498,-0.46872231364250183,0.01206364668905735,0.012076189741492271,0.014764150712090031,0.010415650400931415,0.00893470279741177
1.1704788208007812,-0.007860831916332245,-0.06777523458003998,0.025657176971435547,-0.6444726586341858,0.009285125881433487,0.0022557834163308144,0.009387580909953645,0.01054720232134866,0.009072879356449322
1.1804149150848389,-0.007774904370307922,-0.08156876266002655,0.03537189960479736,-0.837146520614624,-0.0027273278683423996,-0.014248890802264214,0.002323046040638895,0.010613430810807038,0.009093917994630512
1.1904797554016113,-0.004238152876496315,-0.09747888147830963,0.036635756492614746,-0.9987748861312866,-0.01632227748632431,-0.03502996265888214,-0.006537560429060011,0.010540617319512592,0.008949981679117952
1.200577735900879,-0.00010088551789522171,-0.09783676266670227,0.031183958053588867,-1.161112666130066,-0.02812301181256771,-0.048350296914577484,-0.017333276033944977,0.010310910754545525,0.008636065797188069
1.2119717597961426,0.005158617161214352,-0.07622306793928146,0.022981643676757812,-1.2850908041000366,-0.06887465715408325,-0.0575995072722435,-0.029597542275348217,0.009845406533380065,0.008228458953100377
1.2206618785858154,0.014625469222664833,-0.0701640397310257,0.013280987739562988,-1.3411558866500854,-0.1028832197189331,-0.06610910594463348,-0.04278857585490848,0.008973114011119786,0.007729515209223028
1.2306127548217773,0.019744060933589935,-0.04537873715162277,-0.0055969953536987305,-1.345736026763916,-0.11933271586894989,-0.028655633330345154,-0.05628898327843851,0.007841230608202002,0.007322582548314071
1.2404608726501465,0.01767526939511299,0.0019010454416275024,-0.010380923748016357,-1.2687493562698364,-0.15273381769657135,0.022371066734194756,-0.06944482858022596,0.006464665140281069,0.007407417072131201
1.250701904296875,0.013494187965989113,-0.004387073218822479,-0.00816810131072998,-1.1822069883346558,-0.17721138894557953,0.03749973699450493,-0.08168837344333577,0.00486327683134093,0.00781487616883818
1.2615938186645508,0.0058832839131355286,-0.022257991135120392,-0.006643772125244141,-1.1300177574157715,-0.18941159546375275,0.02594667859375477,-0.09314864426088121,0.00304120322033092,0.008160623298966456
1.270617961883545,0.002361278049647808,-0.025807835161685944,-0.0014382004737854004,-1.258216142654419,-0.21772082149982452,-0.00045355682959780097,-0.10504242963537569,0.001001339138519797,0.008321312743024972
1.280716896057129,-0.0012961045140400529,-0.05847669392824173,0.018815934658050537,-1.5464797019958496,-0.22472307085990906,0.00491457711905241,-0.11904616206181748,-0.0011840355025968803,0.008318963086800212
1.2906270027160645,-0.0011977031826972961,-0.1073538213968277,0.023740172386169434,-1.8574512004852295,-0.26054275035858154,-0.021663503721356392,-0.13595624623511193,-0.0035960645981194593,0.008254395498746913
1.3006267547607422,-8.581485599279404e-05,-0.1358676552772522,0.04787057638168335,-2.1563100814819336,-0.2869836688041687,-0.0738912895321846,-0.1561558255813274,-0.006462424611026937,0.00764697138503958
1.3114268779754639,-0.0025292225182056427,-0.13908876478672028,0.0430791974067688,-2.403183698654175,-0.2888585925102234,-0.1116672158241272,-0.1790618076531116,-0.009540408711784569,0.006517567133529397
1.3207528591156006,-0.0041812388226389885,-0.11886011064052582,0.019337177276611328,-2.4715495109558105,-0.29236385226249695,-0.14502596855163574,-0.2035150155392414,-0.012744553911888968,0.0049118950805455055
1.3306338787078857,0.0017802529036998749,-0.0695677250623703,0.0008882284164428711,-2.5341053009033203,-0.33364465832710266,-0.18550905585289001,-0.22842559676528593,-0.01627207418526398,0.00287043892679341
1.340590000152588,0.012915614992380142,-0.018247336149215698,0.02455592155456543,-2.6229686737060547,-0.40236514806747437,-0.2268620878458023,-0.25433407429397176,-0.020630077994918485,0.00022357351713186247
1.350705862045288,0.014389822259545326,-0.05092605948448181,0.038185715675354004,-2.6828901767730713,-0.41257229447364807,-0.2521241307258606,-0.2807512035805699,-0.025571116169612926,-0.002877838345283664
1.3619709014892578,0.0049035195261240005,-0.05500653386116028,0.022100508213043213,-2.7130022048950195,-0.4139573872089386,-0.3004645109176636,-0.30775201692439547,-0.03076760785739681,-0.006582467695562021
1.3707358837127686,-0.006459664553403854,-0.01288604736328125,0.00691986083984375,-2.7257962226867676,-0.41472503542900085,-0.32423141598701477,-0.33489245076978724,-0.03627326673337974,-0.010869183233555181
1.3807199001312256,-0.005033407360315323,-0.00524100661277771,-0.025409162044525146,-2.6633365154266357,-0.4176363945007324,-0.33425554633140564,-0.36177593978043476,-0.042008753345435905,-0.01549101271869388
1.390690803527832,-0.002394050359725952,0.002372056245803833,-0.03862893581390381,-2.57144832611084,-0.43052440881729126,-0.36574429273605347,-0.38779982371163946,-0.0480837488373246,-0.02052125106020544
1.4006929397583008,-0.014759473502635956,0.031292885541915894,-0.03309035301208496,-2.3344573974609375,-0.3890901505947113,-0.37656229734420776,-0.4122303465109764,-0.05434697102330868,-0.025945440082595903
1.4115519523620605,-0.03577128052711487,0.0594695508480072,-0.04885995388031006,-2.0273313522338867,-0.32391485571861267,-0.4075249135494232,-0.4338748241488498,-0.0602190800310587,-0.031566297906901575
1.42085599899292,-0.06396658718585968,0.09527906775474548,-0.05333656072616577,-1.3146677017211914,-0.1817297488451004,-0.41255056858062744,-0.45060924750310893,-0.06532181055853904,-0.03735629599317592
1.4310216903686523,-0.0976141095161438,0.18565839529037476,-0.09582078456878662,-0.09389472752809525,0.04837513715028763,-0.3746896982192993,-0.45792637523206053,-0.06819653913135583,-0.04229652059130433
1.441159725189209,-0.12982580065727234,0.3310014605522156,-0.15876328945159912,2.10860276222229,0.4035359025001526,-0.24891257286071777,-0.44813080213002676,-0.06727727611090249,-0.045133879158261454
1.4510128498077393,-0.16632215678691864,0.5647553205490112,-0.23536080121994019,4.688681125640869,0.7561315894126892,-0.12277771532535553,-0.41414646228686514,-0.06117434879551696,-0.0447323747644852
1.4615478515625,-0.19100600481033325,0.8902695178985596,-0.2124425172805786,7.122928142547607,0.9677658081054688,-0.017021453008055687,-0.3550760728657319,-0.05151719658217311,-0.0419176087090353
1.4708046913146973,-0.18803885579109192,0.8306275010108948,-0.15890508890151978,9.290068626403809,1.382035493850708,0.0801503136754036,-0.2727804126761845,-0.03853858352488784,-0.03758095544370088
1.480818748474121,-0.17985408008098602,0.7003933191299438,-0.18816334009170532,10.984040260314941,1.7357059717178345,-0.04430665820837021,-0.171092428990596,-0.021991462426703495,-0.03415556520287345
1.4908878803253174,-0.19722627103328705,0.8446507453918457,-0.03369337320327759,12.196587562561035,1.8278173208236694,-0.19664517045021057,-0.05486815857959471,-0.003951442730295555,-0.03384469940155981
1.5009548664093018,-0.19098180532455444,0.8590788245201111,0.17363512516021729,12.658679008483887,1.9100778102874756,-0.43230295181274414,0.07043977059093273,0.014764796771987719,-0.037615398892313086
1.5119268894195557,-0.1772170066833496,0.7932299375534058,0.2397952675819397,12.147051811218262,1.9751969575881958,-0.6166813373565674,0.1946324527070149,0.035437448255296815,-0.04615729046418921
1.5208559036254883,-0.15754224359989166,0.7451682090759277,0.18951356410980225,10.944293022155762,1.9448697566986084,-0.8039519190788269,0.3099351628759724,0.058413198452833257,-0.059011437674150256
1.5310719013214111,-0.1370583176612854,0.6166222095489502,0.11531424522399902,9.266389846801758,1.9044166803359985,-1.2314285039901733,0.4103099384615585,0.08403511110821396,-0.07739692884847607
1.540949821472168,-0.1968611627817154,0.46670472621917725,0.1260109543800354,7.666110038757324,2.152245044708252,-1.7507880926132202,0.49302817848345143,0.11564640661337187,-0.10287061127281648
1.5511448383331299,-0.31465840339660645,0.407201886177063,0.15298724174499512,6.484224319458008,2.31339693069458,-2.2092506885528564,0.5599190203853063,0.1550721451986479,-0.13680127867053088
1.5618939399719238,-0.32949119806289673,0.2830435633659363,0.34848731756210327,5.6906023025512695,2.624413013458252,-2.7518460750579834,0.6155031668347686,0.20316519193203783,-0.17890398376730943
1.5709500312805176,-0.24195943772792816,0.1766933798789978,0.6123580932617188,5.340646743774414,2.6990671157836914,-3.197030782699585,0.6620005308042256,0.261240057127377,-0.23102252920831295
1.5809588432312012,-0.043114691972732544,0.3015574812889099,0.8988129496574402,5.371903419494629,2.470503091812134,-3.459726095199585,0.7035237438407758,0.3257373276291452,-0.29209744829396445
1.59092378616333,0.2385033369064331,0.36417603492736816,0.9982214570045471,5.321145057678223,2.0188369750976562,-3.6011064052581787,0.7412705922825158,0.39436773685919146,-0.3616304202010626
1.6009838581085205,0.4245151877403259,0.25123584270477295,0.9624427556991577,5.225790977478027,1.7803703546524048,-3.7495527267456055,0.7738760878096355,0.4654437636920785,-0.4376439058503166
1.6115598678588867,0.42720577120780945,0.08168447017669678,0.7535874247550964,5.055314540863037,1.7737414836883545,-3.845303535461426,0.8005165319955031,0.541763901625813,-0.5202474578215376
1.6212077140808105,0.29703348875045776,-0.02120310068130493,0.5219786167144775,4.766993045806885,1.7510044574737549,-3.7102982997894287,0.8208730281727377,0.6212334191137435,-0.6054877071641779
1.6310467720031738,0.26664847135543823,-0.02526998519897461,0.4125952124595642,4.386651039123535,1.6843082904815674,-3.550182342529297,0.834801227130879,0.7003552119027211,-0.6895677453129995
1.6409878730773926,0.2834063768386841,-0.1685662865638733,0.3417976498603821,3.929365634918213,1.6143776178359985,-3.3919894695281982,0.8421943112877432,0.7766729152519267,-0.7699537757654772
1.6511406898498535,0.25487667322158813,-0.29592597484588623,0.3052378296852112,3.458982229232788,1.5436025857925415,-3.1680166721343994,0.8437393055244532,0.8480051703789304,-0.8443022798666937
1.6619298458099365,0.19829124212265015,-0.36398398876190186,0.23377740383148193,2.9949870109558105,1.4481666088104248,-2.873276948928833,0.8409372900424527,0.9126061453266958,-0.9106917040913367
1.671116828918457,0.15975338220596313,-0.4193482995033264,0.12444144487380981,2.5309133529663086,1.3195515871047974,-2.4214158058166504,0.8357948354264848,0.9688172961002885,-0.9676422626512241
1.6810808181762695,0.11752939224243164,-0.4422139525413513,0.06849020719528198,2.037487506866455,1.1760109663009644,-1.948001503944397,0.8300218256307028,1.0156048198455137,-1.0139108510167125
1.6910898685455322,0.07318115234375,-0.545222282409668,0.04770296812057495,1.5319792032241821,1.0394930839538574,-1.4650695323944092,0.8244595232730468,1.0528620539320115,-1.0494917195713998
1.7011947631835938,0.03330498933792114,-0.6364582180976868,0.02628156542778015,1.098272681236267,0.866491973400116,-0.9659169912338257,0.8201267793695722,1.0810598166998284,-1.0749309101809397
1.712035894393921,0.0026454925537109375,-0.6173145771026611,-0.03524485230445862,0.7293570637702942,0.729525625705719,-0.4895995259284973,0.8178835357718087,1.1012516450095753,-1.0916966919574076
1.7212400436401367,-0.02953195571899414,-0.5495929718017578,-0.10351341962814331,0.4193100035190582,0.6498430371284485,-0.06697718799114227,0.8179328090614857,1.114843565576886,-1.1009130934843312
1.7313079833984375,-0.06507760286331177,-0.4307141900062561,-0.15765386819839478,0.2412176877260208,0.6070187091827393,0.2643154561519623,0.820297782527902,1.1238270213424015,-1.1045362160013983
1.7411127090454102,-0.07762432098388672,-0.27529650926589966,-0.16600829362869263,0.11372311413288116,0.5297214984893799,0.48422491550445557,0.8245237233304707,1.1295962942706517,-1.1045521467733068
1.7513718605041504,-0.062083661556243896,-0.15373611450195312,-0.12272259593009949,0.028011642396450043,0.4771449565887451,0.5462520718574524,0.8295626849431338,1.132903919583682,-1.1021929834637672
1.7631728649139404,-0.06447428464889526,-0.06170433759689331,-0.09222203493118286,-0.05307655408978462,0.4410040080547333,0.5253837704658508,0.8344433432876004,1.1348811830556818,-1.0986389916196992
1.7713978290557861,-0.05391889810562134,0.02565711736679077,-0.08769840002059937,-0.12208951264619827,0.4085121154785156,0.4855015277862549,0.8386409091476511,1.1358205031132462,-1.0941845092596996
1.781268835067749,-0.015057563781738281,0.12051081657409668,-0.10762226581573486,-0.11246351152658463,0.329734206199646,0.41132795810699463,0.8422394329677583,1.1360656351354692,-1.0895213412262283
1.7911629676818848,0.02987849712371826,0.2471679449081421,-0.14057284593582153,0.005458262749016285,0.26404938101768494,0.2607685625553131,0.8450536290756216,1.136887208964749,-1.0866423466433024
1.8013038635253906,0.056799113750457764,0.2879657745361328,-0.16777443885803223,0.08915609121322632,0.16982434689998627,0.12691888213157654,0.8470498213766469,1.1386771148953077,-1.0861244145141786
1.8115739822387695,0.07130837440490723,0.2851247191429138,-0.15266910195350647,0.07835973799228668,0.08706749975681305,-0.03743351995944977,0.8478291139998312,1.140657757328737,-1.0870575313869961
1.8213188648223877,0.08462315797805786,0.21395164728164673,-0.14189371466636658,0.03751190006732941,0.023847512900829315,-0.18154887855052948,0.8470592415422044,1.1423201492294843,-1.0885669472235788
1.8313570022583008,0.08851873874664307,0.15965670347213745,-0.13568341732025146,-0.019703350961208344,-0.03365164250135422,-0.2600630819797516,0.845050572222033,1.1434307576375624,-1.0901030252750017
1.8413209915161133,0.08853363990783691,0.12851691246032715,-0.1123877763748169,-0.04478313773870468,-0.09669212996959686,-0.3215661346912384,0.8422551504116899,1.143733558738173,-1.0913830255217207
1.8514080047607422,0.08890396356582642,0.09919506311416626,-0.08941590785980225,0.002385857282206416,-0.1579788774251938,-0.3385479748249054,0.8390834688826856,1.1437753182746282,-1.0931331123673471
1.8621199131011963,0.08458393812179565,0.08446609973907471,-0.06336823105812073,0.06845328956842422,-0.2585310637950897,-0.3050243556499481,0.8362951604358416,1.143529604378308,-1.0955766271684253
1.8713228702545166,0.08639872074127197,0.06916719675064087,-0.02089613676071167,0.14739421010017395,-0.34054017066955566,-0.3135746717453003,0.8339390560390133,1.1430301979407445,-1.0989826898413346
1.8812017440795898,0.07579725980758667,0.014915883541107178,-0.006806880235671997,0.18602868914604187,-0.3880576193332672,-0.2718786299228668,0.8319561422294524,1.1424457423595105,-1.1031456861549493
1.891273021697998,0.06270009279251099,-0.020247042179107666,-0.019807159900665283,0.13630427420139313,-0.3803568184375763,-0.23812144994735718,0.8303389987804055,1.1413639744782142,-1.1069720338525957
1.9012138843536377,0.04112476110458374,-0.08284050226211548,-0.02903422713279724,-0.01239758264273405,-0.30575981736183167,-0.19735831022262573,0.8286413002932438,1.1395971850315312,-1.1092085924870885
1.9112176895141602,0.013310432434082031,-0.13526666164398193,-0.01770073175430298,-0.15259996056556702,-0.24943315982818604,-0.17142045497894287,0.82659352966042,1.136806977769451,-1.1092010132276366
1.9213800430297852,0.006469070911407471,-0.14386701583862305,0.024751365184783936,-0.2116057574748993,-0.21994425356388092,-0.14399787783622742,0.8243521561696564,1.1333678672712184,-1.1076520276783888
1.9313969612121582,-0.003762483596801758,-0.10371410846710205,0.07909539341926575,-0.148582324385643,-0.2366926074028015,-0.1301896572113037,0.8223421848347828,1.1298359590187625,-1.1059692516696347
1.9416499137878418,-0.0056847333908081055,-0.053589701652526855,0.11489400267601013,-0.045496515929698944,-0.2331310659646988,-0.12443654239177704,0.8207728263143018,1.127162104422286,-1.105539903999246
1.951596736907959,-0.027567505836486816,-0.04343116283416748,0.1200810968875885,-0.0060605076141655445,-0.21209444105625153,-0.10410000383853912,0.8196486676584808,1.1252101004567974,-1.1059534860385776
1.961568832397461,-0.04622703790664673,-0.06796979904174805,0.12932074069976807,-0.0010945112444460392,-0.16666489839553833,-0.08466638624668121,0.818773509499122,1.1237126713167458,-1.1065196807479727
1.971571922302246,-0.05504405498504639,-0.09011012315750122,0.12561213970184326,0.006942625157535076,-0.13663017749786377,-0.0828942134976387,0.8180370075162555,1.1225808263631047,-1.1070384604789902
1.98152494430542,-0.0460585355758667,-0.0925111174583435,0.11096814274787903,0.012634865939617157,-0.10856792330741882,-0.07305463403463364,0.8173597044657932,1.121806957363681,-1.1076712070625288
1.991419792175293,-0.029129505157470703,-0.0878380537033081,0.07623717188835144,0.010824749246239662,-0.06087851524353027,-0.06333941966295242,0.8167856715540077,1.121387233681251,-1.1082757675423358
2.001527786254883,-0.01981985569000244,-0.09083646535873413,0.03355610370635986,-0.002754176501184702,-0.023624619469046593,-0.03300468251109123,0.8163511452594734,1.1212429768067178,-1.1086393732414594
2.0116729736328125,-0.0078965425491333,-0.08325207233428955,0.009123772382736206,-0.0276111401617527,0.006678911857306957,-0.016213132068514824,0.8160627386440806,1.1210990092503679,-1.1085671109655908
2.0215539932250977,0.0008172392845153809,-0.07881909608840942,0.015541672706604004,-0.03308180719614029,0.008747123181819916,0.00682773906737566,0.8158737754455004,1.1208842950868338,-1.1081390061540113
2.031559944152832,0.006489157676696777,-0.05713158845901489,0.028598517179489136,-0.009907394647598267,-0.004755325615406036,0.015144258737564087,0.8161924541408682,1.121396098045804,-1.1083297464174904
2.041533946990967,0.0113753080368042,-0.03273493051528931,0.035179466009140015,0.020722687244415283,-0.026453163474798203,0.039315640926361084,0.8168132810599683,1.1219857943316662,-1.1088555452122189
2.051553726196289,0.007579326629638672,-0.01784271001815796,0.034885942935943604,0.04418821632862091,-0.04435240477323532,0.032329849898815155,0.8177271823172423,1.122661370287117,-1.1096874154945535
2.061933994293213,0.004357695579528809,-0.014873027801513672,0.007239699363708496,0.0708690956234932,-0.033777523785829544,0.043220046907663345,0.8187009489047037,1.1235444774058079,-1.1108855425401356
2.0715768337249756,0.007052600383758545,-0.0009995698928833008,-0.029960215091705322,0.08618959784507751,-0.04732697457075119,0.04774651676416397,0.8197560341832744,1.1242655695393986,-1.1120427198207954
2.081861972808838,0.018542826175689697,0.0030440688133239746,-0.0427585244178772,0.06147679314017296,-0.05049746856093407,0.024895261973142624,0.8205614062698374,1.1245654533530638,-1.1129982207055278
2.0916688442230225,0.02660137414932251,-0.027889907360076904,-0.05648806691169739,0.015821555629372597,-0.04573778063058853,0.01316361129283905,0.8209355708231201,1.1245166965058342,-1.1135082655494657
2.1026487350463867,0.021984875202178955,-0.022713422775268555,-0.06654563546180725,-0.023407073691487312,-0.042997654527425766,0.01630214788019657,0.8211200447182854,1.1240775435603934,-1.1134555365563055
2.111931800842285,0.021935582160949707,-0.003104686737060547,-0.05599677562713623,-0.03662402555346489,-0.059305205941200256,0.009835619479417801,0.8211890787619046,1.1233632873042108,-1.1130404296956096
2.1217899322509766,0.018315494060516357,0.012411952018737793,-0.03519129753112793,-0.03625011816620827,-0.08211944252252579,0.006692556664347649,0.8211644044658295,1.1224937844231777,-1.1126902657340196
2.1316537857055664,0.011198103427886963,0.021853208541870117,-0.021804988384246826,-0.08995451033115387,-0.11071020364761353,0.005386861972510815,0.8210690089280699,1.1211688662555843,-1.1120310068379653
2.1416540145874023,0.00685429573059082,0.001978933811187744,-0.009974479675292969,-0.17073458433151245,-0.11932792514562607,-0.010127915069460869,0.8205210464301297,1.1189089073122278,-1.1104542126791992
2.1518468856811523,-0.0019884109497070312,-0.029071331024169922,-0.01151275634765625,-0.23905536532402039,-0.11067492514848709,-0.0008486099541187286,0.8194495075518556,1.1155078748274656,-1.107545433581024
2.1629068851470947,-0.01315617561340332,-0.012291789054870605,-0.01735973358154297,-0.2262178510427475,-0.10516271740198135,0.018002577126026154,0.8182803215780907,1.111696000628907,-1.1040605319120376
2.171708822250366,-0.012558579444885254,0.033483028411865234,-0.022140324115753174,-0.1572420597076416,-0.12593741714954376,0.04647384583950043,0.8175193051965608,1.1079955433204163,-1.1009078372873822
2.181687831878662,-0.007967472076416016,0.07160800695419312,-0.02471521496772766,-0.1114167720079422,-0.14631858468055725,0.06666246801614761,0.8171748850054227,1.1044312855096294,-1.098336656892133
2.1917147636413574,-0.005309641361236572,0.051836371421813965,-0.02676752209663391,-0.15444305539131165,-0.16644182801246643,0.07781993597745895,0.8169796782331695,1.1007010478529788,-1.09573916734572
2.2017407417297363,0.0013065934181213379,0.001134634017944336,-0.02289465069770813,-0.2394000142812729,-0.1837603598833084,0.08050094544887543,0.8165833057649781,1.0963661453046234,-1.0924259808206707
2.212507724761963,0.007733166217803955,-0.02464759349822998,-0.026934951543807983,-0.30269619822502136,-0.1995234340429306,0.08351010084152222,0.8159223362571187,1.09135778367543,-1.088249963466402
2.2218658924102783,0.00685042142868042,-0.004797875881195068,-0.03569665551185608,-0.39147719740867615,-0.22734174132347107,0.07773104310035706,0.815118124852138,1.0858305404781485,-1.083420886863166
2.231799840927124,0.015630781650543213,-0.03192943334579468,-0.021397441625595093,-0.592806875705719,-0.27950888872146606,0.059034962207078934,0.81362639308203,1.0787619801888384,-1.0769730441008372
2.241741895675659,0.025853097438812256,-0.11123335361480713,0.0018078386783599854,-0.9061546921730042,-0.3306857943534851,0.061272017657756805,0.8106706354245525,1.0685990589220473,-1.067106499159395
2.251863956451416,0.03446638584136963,-0.1794741153717041,0.00992843508720398,-1.154218077659607,-0.34616637229919434,0.10248683393001556,0.8062466769999135,1.0552393634244344,-1.0534048505640636
2.2621288299560547,0.03874528408050537,-0.20686465501785278,0.00530049204826355,-1.3272463083267212,-0.3842191994190216,0.23438599705696106,0.8014297079186599,1.0395220907982956,-1.0365910461492978
2.271822929382324,0.04760885238647461,-0.16023403406143188,0.019052058458328247,-1.4245530366897583,-0.4897470474243164,0.36848363280296326,0.7969216996756208,1.0214221415047573,-1.0174075772868796
2.282425880432129,0.08192986249923706,-0.1768915057182312,0.05184328556060791,-1.583109736442566,-0.6589933037757874,0.5303217768669128,0.792767814984451,1.0003424906392466,-0.9958992829202122
2.2917699813842773,0.10453832149505615,-0.2540763020515442,0.10653325915336609,-1.9072930812835693,-0.8614876866340637,0.7045979499816895,0.7883776531940049,0.9746505770686688,-0.970458109430128
2.302021026611328,0.10276287794113159,-0.3482755422592163,0.15460407733917236,-2.4568920135498047,-1.0192077159881592,0.833898663520813,0.78224020195227,0.9429355601956089,-0.9389853983744447
2.312063694000244,0.0923464298248291,-0.45243245363235474,0.1808653473854065,-3.2818264961242676,-1.162232518196106,0.862727165222168,0.771838663516959,0.9046037654794657,-0.8998686970169653
2.321938991546631,0.09864753484725952,-0.6080855131149292,0.22849485278129578,-4.363398551940918,-1.3447128534317017,0.9062759280204773,0.7543377858560826,0.8584028707212287,-0.851225114543367
2.3319287300109863,0.10543268918991089,-0.7215051054954529,0.31326407194137573,-5.342338562011719,-1.5205522775650024,1.0165084600448608,0.7285763015440739,0.8052430524207659,-0.7937969572892578
2.341932773590088,0.09368467330932617,-0.6041374206542969,0.34369468688964844,-5.982568264007568,-1.6518065929412842,1.225095272064209,0.6957533012463429,0.7478132959252932,-0.7303176869025113
2.351956844329834,0.09642130136489868,-0.28804880380630493,0.27375245094299316,-6.147587299346924,-1.7821496725082397,1.3136723041534424,0.6582079893938966,0.6906192224318248,-0.6664309895240335
2.362226963043213,0.13018739223480225,-0.021605074405670166,0.162705659866333,-5.914273738861084,-2.0108253955841064,1.3956630229949951,0.6189002417067284,0.6360966384894978,-0.6067317662088658
2.371919870376587,0.19587832689285278,0.17873960733413696,0.10747134685516357,-5.701766014099121,-2.2932331562042236,1.518958330154419,0.5796995471670472,0.5836936686625172,-0.5520386619108105
2.382075786590576,0.2330320179462433,0.22592556476593018,0.11384409666061401,-5.731271266937256,-2.5564756393432617,1.5813357830047607,0.5395337279943845,0.5320963732062699,-0.5007552114648651
2.391921043395996,0.21397000551223755,0.07218515872955322,0.15174221992492676,-5.991268634796143,-2.7420578002929688,1.5161097049713135,0.4959018160799888,0.48165536512045193,-0.45243420350993546
2.4019227027893066,0.16950401663780212,-0.09000179171562195,0.22061359882354736,-6.464896202087402,-2.955112934112549,1.4683339595794678,0.4466082094184268,0.4323084393254729,-0.40659308804219735
2.4121389389038086,0.15189534425735474,-0.0531085729598999,0.3002893328666687,-6.977085113525391,-3.1250367164611816,1.4111202955245972,0.39056732588987586,0.3840251290807421,-0.36282759556706695
2.4220738410949707,0.1455889642238617,0.0022993087768554688,0.3068336248397827,-7.425635814666748,-3.164137601852417,1.2788951396942139,0.3278739802221302,0.3381289971381609,-0.3221372925238146
2.4320859909057617,0.1332637071609497,-0.024501442909240723,0.280936598777771,-7.774097919464111,-3.191150665283203,1.0485230684280396,0.25919762427377346,0.2958081437816966,-0.2857483281663647
2.4421048164367676,0.12324610352516174,-0.02361370623111725,0.2964909076690674,-8.077799797058105,-3.224526882171631,0.8264327049255371,0.1853301279178283,0.2567149757771151,-0.2543243625070362
2.452108860015869,0.112842857837677,0.007149890065193176,0.3222368359565735,-8.227540016174316,-3.283322811126709,0.5886126160621643,0.10766804557763668,0.22027753231259062,-0.22787050976806703
2.462435722351074,0.09026116132736206,0.04568425565958023,0.35491377115249634,-8.33255672454834,-3.3314735889434814,0.4994579553604126,0.02751347604301171,0.18563802722859227,-0.20593151959129433
2.4721949100494385,0.08333715796470642,0.13953518867492676,0.36604124307632446,-8.218140602111816,-3.2964577674865723,0.5271191596984863,-0.05349977956271952,0.15268720039605505,-0.18679444734704498
2.4823808670043945,0.08856608718633652,0.10135351121425629,0.3425559401512146,-7.983846187591553,-3.2189724445343018,0.2563665211200714,-0.13315623789979664,0.12140688435803967,-0.1715816431288832
2.4920220375061035,0.051355548202991486,-0.04343037307262421,0.3580132722854614,-8.13736343383789,-3.178967237472534,-0.10678846389055252,-0.2132257869722278,0.09101074015366709,-0.16227506989553364
2.502178907394409,0.006659232079982758,-0.01845911145210266,0.4263700246810913,-8.040153503417969,-3.114346504211426,-0.22871996462345123,-0.2944557886030651,0.06050981643118355,-0.15779004674504263
2.5129778385162354,-0.004868794232606888,0.04015126824378967,0.408270001411438,-7.910045146942139,-3.0101144313812256,-0.3996458053588867,-0.37391256556827196,0.03000197924728204,-0.1571881899962929
2.5221798419952393,-0.024494176730513573,0.04786890745162964,0.35999858379364014,-7.58742618560791,-2.905028820037842,-0.4609469771385193,-0.45303588226873437,-0.0012855371310928954,-0.16109258332981782
2.532238006591797,0.001949923112988472,0.02632427215576172,0.2657288908958435,-7.3305253982543945,-2.6886773109436035,-0.5242418050765991,-0.5270002943010258,-0.03269750322853216,-0.16803719617432464
2.5421488285064697,0.009887591004371643,-0.06339949369430542,0.16401880979537964,-7.1533894538879395,-2.4338529109954834,-0.6255918741226196,-0.5989944111556195,-0.06413456978239805,-0.17890873710097915
2.5520849227905273,-0.040030524134635925,-0.07345044612884521,0.17760056257247925,-7.228154182434082,-2.199542999267578,-0.7083234190940857,-0.6703458162749779,-0.09656926456684926,-0.19444232538966108
2.562798023223877,-0.04782269895076752,-0.11804282665252686,0.14232277870178223,-7.178515434265137,-1.9712111949920654,-0.7168463468551636,-0.7411983788551729,-0.13049965047591447,-0.21452071924653884
2.5721869468688965,-0.026587381958961487,-0.16185396909713745,0.13184648752212524,-7.2005438804626465,-1.8099387884140015,-0.7544097900390625,-0.8111829572325808,-0.16690358555979726,-0.23956838161795954
2.5824098587036133,-0.012871533632278442,-0.18817955255508423,0.18038654327392578,-7.16991662979126,-1.716282606124878,-0.797703742980957,-0.8806092768938585,-0.20851388378822192,-0.271532454635593
2.592197895050049,-0.016494765877723694,-0.1434534192085266,0.21413660049438477,-6.819825172424316,-1.6093060970306396,-0.7059149146080017,-0.9472090816129419,-0.25569168418599025,-0.31005179006263567
2.6036767959594727,-0.008345365524291992,-0.03322213888168335,0.18420565128326416,-6.279303550720215,-1.4754587411880493,-0.6069452166557312,-1.0083470447495466,-0.3075363130201969,-0.3538784739108073
2.612362861633301,-0.012053132057189941,0.051273465156555176,0.1440439224243164,-5.676058292388916,-1.3558415174484253,-0.5531178116798401,-1.0631324986845765,-0.36435702706153983,-0.40345288606546265
2.6223278045654297,-0.027252376079559326,0.059254467487335205,0.06415188312530518,-4.984740257263184,-1.201797604560852,-0.44030603766441345,-1.1104195856280776,-0.4250209713912789,-0.45743503548551245
2.6324477195739746,-0.02638337016105652,0.05739486217498779,-0.019002646207809448,-4.305269241333008,-1.032569408416748,-0.3298244774341583,-1.150549082993178,-0.48705398047661275,-0.5136409645681752
2.6423397064208984,-0.023215338587760925,0.07708340883255005,-0.038195639848709106,-3.59319806098938,-0.8905478715896606,-0.23197247087955475,-1.1835119323191223,-0.5481695908773031,-0.569622385964916
2.6522839069366455,-0.021094873547554016,0.09815001487731934,-0.028510868549346924,-2.8406598567962646,-0.7559840083122253,-0.11000747978687286,-1.2096600068976562,-0.6048992585767623,-0.6217277963847525
2.6627838611602783,-0.013308420777320862,0.1494477391242981,-0.03157350420951843,-2.0235860347747803,-0.66057950258255,-0.0019494544249027967,-1.2290367013016614,-0.6521428409966548,-0.6645027867958985
2.672339916229248,-0.004991129040718079,0.16281169652938843,-0.036954209208488464,-1.2871851921081543,-0.5736211538314819,0.05417969822883606,-1.2421719457420868,-0.6871461194344519,-0.695029556225785
2.682762861251831,-0.0056269168853759766,0.15605896711349487,-0.033878445625305176,-0.6336449384689331,-0.47039592266082764,0.11928760260343552,-1.2500423595385832,-0.708649883586972,-0.7121859588620925
2.6923868656158447,-0.0019632279872894287,0.14153629541397095,-0.033553361892700195,-0.03207215294241905,-0.3755834698677063,0.17284801602363586,-1.2535337776735695,-0.7161140949046096,-0.7155938059975874
2.702605724334717,-0.002336174249649048,0.11644357442855835,-0.009232819080352783,0.5175513029098511,-0.2751138508319855,0.22475115954875946,-1.2529705708086583,-0.7098871815075956,-0.7055935058634542
2.712747812271118,-0.012157335877418518,0.12156283855438232,0.008308172225952148,0.900550901889801,-0.1741131991147995,0.25056126713752747,-1.2489668851347042,-0.6923378104157851,-0.6847532616201716
2.7226529121398926,-0.026894167065620422,0.15136486291885376,0.0014688372611999512,1.0623825788497925,-0.08689893037080765,0.22938485443592072,-1.2427483436366442,-0.6695818972145625,-0.6593575361602843
2.7324509620666504,-0.03188683092594147,0.115500807762146,-0.009623557329177856,0.9723309874534607,0.002470141276717186,0.23435623943805695,-1.2359670259315698,-0.6462246852377442,-0.6342303816468761
2.742588996887207,-0.026035115122795105,0.04561448097229004,0.00025326013565063477,0.672011137008667,0.058017291128635406,0.2141585499048233,-1.2306250440270259,-0.6266374845233522,-0.6138095953133591
2.752573013305664,-0.024873927235603333,-0.0021822452545166016,0.02403026819229126,0.33598029613494873,0.10129228234291077,0.198306143283844,-1.2277286895839834,-0.6129409058964902,-0.6001112178514664
2.7628250122070312,-0.027519240975379944,-0.013210058212280273,0.02701205015182495,0.08632436394691467,0.13287577033042908,0.20423540472984314,-1.227217201243759,-0.603858793938471,-0.5917197265527391
2.772418975830078,-0.02899785339832306,0.011164724826812744,0.019668012857437134,0.017391039058566093,0.15015488862991333,0.2027873396873474,-1.2280598734680686,-0.5970690732812202,-0.5860336767792943
2.7827188968658447,-0.035213157534599304,0.034272074699401855,0.0298498272895813,0.11784680932760239,0.16093216836452484,0.191945880651474,-1.2286791902856,-0.5900010972473941,-0.580183237569646
2.7923898696899414,-0.0446481853723526,0.06148630380630493,0.04057541489601135,0.3473573327064514,0.16721239686012268,0.1897636353969574,-1.2278380236735587,-0.5804088063672234,-0.5717447464135205
2.802696704864502,-0.04824845492839813,0.09839177131652832,0.03595322370529175,0.5917233824729919,0.17471584677696228,0.19491471350193024,-1.2249174089869612,-0.5670247417285456,-0.5593437017396825
2.8127779960632324,-0.04699826240539551,0.12204486131668091,0.029674768447875977,0.8130319118499756,0.17114374041557312,0.19359074532985687,-1.219949882248435,-0.550405031315877,-0.5435073873195977
2.8226778507232666,-0.046961426734924316,0.10503721237182617,0.024276375770568848,0.8178719282150269,0.17097756266593933,0.16560758650302887,-1.2136819399214502,-0.5327229461512435,-0.5264857379111897
2.832512855529785,-0.051367759704589844,0.06401360034942627,0.01700073480606079,0.5421851277351379,0.1503162384033203,0.08980267494916916,-1.2083737046676508,-0.5190311582182606,-0.5135813136016066
2.8426289558410645,-0.044914960861206055,-0.007934749126434326,0.008166909217834473,0.13484854996204376,0.12641623616218567,0.0648168995976448,-1.2057235441770877,-0.5113873771774807,-0.5068736586375228
2.854435920715332,-0.031136363744735718,-0.0661507248878479,-0.0036262869834899902,-0.28698423504829407,0.10564707964658737,0.04213518276810646,-1.2067180794753622,-0.5100516383549113,-0.5066917834408504
2.8629488945007324,-0.02859857678413391,-0.05822467803955078,-0.00021317601203918457,-0.5126309394836426,0.07968845218420029,0.023886671289801598,-1.2104886207339043,-0.513731667866291,-0.5116129343797321
2.8725438117980957,-0.031730592250823975,-0.02487349510192871,-0.0020249485969543457,-0.5374905467033386,0.0631938949227333,0.013693048618733883,-1.2152492526922336,-0.5196980539509326,-0.5187462102125331
2.882633924484253,-0.036116257309913635,0.02143537998199463,-0.010131597518920898,-0.37913578748703003,0.04810016602277756,0.002506706863641739,-1.2193527926259518,-0.5253185609747862,-0.5253286101999988
2.892516851425171,-0.04237133264541626,0.0487060546875,-0.01793268322944641,-0.11745548993349075,0.04094664752483368,-0.00011336460011079907,-1.2215216628370094,-0.528311362227979,-0.5289786957070357
2.902573823928833,-0.04443033039569855,0.06190592050552368,-0.025611072778701782,0.1392926722764969,0.04422233626246452,0.003166318405419588,-1.2214294775474326,-0.5277022906397492,-0.5287787088558124
2.9132189750671387,-0.04456178843975067,0.06989318132400513,-0.02534937858581543,0.38866913318634033,0.05138939246535301,0.02051713317632675,-1.2191875467930857,-0.5232927443694434,-0.5246007126117956
2.922762870788574,-0.0411376953125,0.06616812944412231,-0.023373574018478394,0.5643259286880493,0.053510598838329315,0.03210987150669098,-1.2151391444862711,-0.51562092057739,-0.5169870197263902
2.9326138496398926,-0.03492313623428345,0.043704330921173096,-0.016231805086135864,0.6384938955307007,0.053731195628643036,0.03079592064023018,-1.2099686312387632,-0.5063452811923553,-0.5076503529787698
2.942767858505249,-0.03125655651092529,0.013956308364868164,-0.006303280591964722,0.5929107069969177,0.05498501658439636,0.01344729121774435,-1.2046284671739589,-0.4974321195541106,-0.49869155803036336
2.9527859687805176,-0.029429763555526733,-0.007819831371307373,0.0037202537059783936,0.47647833824157715,0.05991550162434578,0.007970714010298252,-1.1999318761045705,-0.4900074478879597,-0.49134821801824646
2.9629807472229004,-0.02553395926952362,-0.02187967300415039,0.011704981327056885,0.31663620471954346,0.06308253109455109,-0.00039374211337417364,-1.196429157684661,-0.48451485460773525,-0.4861199867999354
2.9728879928588867,-0.020579606294631958,-0.02486330270767212,0.017836689949035645,0.16816535592079163,0.060418751090765,-0.007019580341875553,-1.1942875704400204,-0.4811816040637692,-0.48320012448649435
2.982800006866455,-0.015348672866821289,-0.021421372890472412,0.0247572660446167,0.06802117824554443,0.057492733001708984,-0.011679580435156822,-1.193227725491472,-0.4794516356237053,-0.4819743994024792
2.9928407669067383,-0.014990881085395813,-0.012367665767669678,0.02770364284515381,0.03337534889578819,0.06539007276296616,-0.012515758164227009,-1.192758527193016,-0.4785786437522028,-0.4816889426297936
3.0026888847351074,-0.017804473638534546,0.0023034214973449707,0.024935275316238403,0.056796520948410034,0.08158768713474274,-0.007876532152295113,-1.1923257237894225,-0.4775770289867522,-0.4814055874990423
3.012819766998291,-0.017624571919441223,0.009131848812103271,0.026295840740203857,0.10946087539196014,0.09304589033126831,-0.012797095812857151,-1.1915617686384032,-0.47597251103564886,-0.48061474634436463
3.02274489402771,-0.01611548662185669,0.00428241491317749,0.03918859362602234,0.18910537660121918,0.09620226919651031,-0.024302484467625618,-1.1901550753828336,-0.4737407435874023,-0.47923309318732266
3.033414840698242,-0.012580141425132751,-0.001361846923828125,0.04934379458427429,0.2864242494106293,0.10973139107227325,-0.025588205084204674,-1.1879393552039876,-0.47063189501672764,-0.47698258578291347
3.0427536964416504,-0.004724383354187012,0.020408570766448975,0.039799630641937256,0.40269091725349426,0.1269087791442871,-0.01392009761184454,-1.1847763050776088,-0.46603096367293884,-0.47329263997103715
3.0527877807617188,0.0018467158079147339,0.040231168270111084,0.027681082487106323,0.4998174011707306,0.13898763060569763,-0.01547197438776493,-1.1806593766787759,-0.46004084024993497,-0.46825804097768015
3.0629289150238037,0.005567535758018494,0.03328460454940796,0.025007784366607666,0.5479386448860168,0.1576787680387497,-0.015386753715574741,-1.1758426545545682,-0.4532524119807665,-0.46251088134424817
3.0728158950805664,0.004768475890159607,0.013571977615356445,0.027758687734603882,0.5297874808311462,0.17331281304359436,-0.01659444347023964,-1.1708716101821566,-0.4462931483439802,-0.456760351081587
3.082787036895752,0.0038662105798721313,0.0001717209815979004,0.029786616563796997,0.39431193470954895,0.17458179593086243,-0.03860999643802643,-1.1665513734809398,-0.44042686259865355,-0.45226866010247274
3.092984914779663,0.0028030425310134888,-0.026748478412628174,0.034127771854400635,0.18580274283885956,0.17435906827449799,-0.03919211030006409,-1.1636991476184197,-0.43660069790898504,-0.45000619374475653
3.1057047843933105,0.007006630301475525,-0.057365596294403076,0.04007744789123535,-0.05857744440436363,0.16210827231407166,-0.03799368813633919,-1.1629877954041672,-0.43513146201832464,-0.45024396618867
3.1163687705993652,0.008849918842315674,-0.062247514724731445,0.043670654296875,-0.2241208851337433,0.14791268110275269,-0.031515710055828094,-1.1641798924101483,-0.43581408661303017,-0.4526644012952083
3.123347759246826,0.008305802941322327,-0.0511665940284729,0.03645327687263489,-0.282868891954422,0.13958337903022766,-0.015155910514295101,-1.1664547936862555,-0.4374478428127748,-0.4560055301222773
3.133063793182373,0.00837792456150055,-0.03077453374862671,0.03006577491760254,-0.2434135377407074,0.12757471203804016,-0.005322507582604885,-1.168849814527844,-0.43899394058547037,-0.4591452773655449
3.1429977416992188,0.00838036835193634,-0.008748352527618408,0.02284395694732666,-0.12162452191114426,0.11481603235006332,0.013022943399846554,-1.17054958373889,-0.4395887723421881,-0.46109891042512435
3.152966022491455,0.005130380392074585,0.005151629447937012,0.011683613061904907,0.02019699476659298,0.11419667303562164,0.02770489640533924,-1.1710999674962286,-0.43851229980026524,-0.46116034247427506
3.1631548404693604,-0.0008148401975631714,0.005689859390258789,0.0035820305347442627,0.13324099779129028,0.11704625189304352,0.04032961279153824,-1.1705406783502703,-0.4358772700415172,-0.459545193346412
3.1729297637939453,-0.0024403780698776245,4.798173904418945e-05,0.0024687349796295166,0.22495388984680176,0.1197512298822403,0.05598931759595871,-1.1690842324023585,-0.43185009544877023,-0.4564626930337254
3.183039903640747,-0.004375427961349487,-0.005590975284576416,-0.00023317337036132812,0.2571994662284851,0.12237683683633804,0.06049591675400734,-1.167120406928033,-0.42696314198147634,-0.4524773952346234
3.1929209232330322,-0.005154326558113098,-0.013682305812835693,0.0014999210834503174,0.2575637102127075,0.12224732339382172,0.06128394976258278,-1.1649996316331526,-0.4219600470940187,-0.44836449164807934
3.2030067443847656,-0.004893183708190918,-0.02103358507156372,0.003065645694732666,0.21715663373470306,0.12206622958183289,0.058783505111932755,-1.1630626060078173,-0.41721400961867344,-0.44451943523574233
3.2130117416381836,-0.005194857716560364,-0.017151296138763428,0.004358530044555664,0.17207705974578857,0.1120663657784462,0.05790397524833679,-1.1615096264737823,-0.41299797274331057,-0.4412010345438101
3.2230398654937744,-0.0022513866424560547,-0.008921623229980469,0.004821956157684326,0.10964909940958023,0.1014358252286911,0.05300801992416382,-1.1604243421576077,-0.4093979865081771,-0.43844663092840347
3.2335000038146973,0.0013935714960098267,-0.005427956581115723,0.00751766562461853,0.026447035372257233,0.08045193552970886,0.04005972668528557,-1.1603875311353216,-0.4073142688446761,-0.43709741176322026
3.242969036102295,0.003300487995147705,-0.008188605308532715,0.010499686002731323,-0.05702868476510048,0.0634886622428894,0.03791561722755432,-1.1609589791886628,-0.4062541073168523,-0.4366662889603559
3.2530198097229004,0.002348780632019043,-0.003399789333343506,0.005956411361694336,-0.11459921300411224,0.05054228752851486,0.030773233622312546,-1.1621152199829299,-0.40604918736917905,-0.4370060332150026
3.2630457878112793,-0.00033149123191833496,0.0050536394119262695,0.0004915595054626465,-0.12033672630786896,0.045449256896972656,0.029102100059390068,-1.1634225243486493,-0.40623399886355915,-0.43769609973551865
3.2730660438537598,-0.0034133046865463257,0.01425868272781372,-0.005467534065246582,-0.0845402330160141,0.045306287705898285,0.022753708064556122,-1.1644535063773602,-0.4063832440417595,-0.4383268265863432
3.283005714416504,-0.004859119653701782,0.028647243976593018,-0.009743601083755493,-0.019840870052576065,0.043097466230392456,0.0190093033015728,-1.1648026030259158,-0.4059860016827545,-0.438374094769737
3.293015956878662,-0.0036120861768722534,0.03677630424499512,-0.014149367809295654,0.035868480801582336,0.04057451710104942,0.01077976357191801,-1.1645803558054177,-0.40520593187651227,-0.43797738719976015
3.303180694580078,-0.003733232617378235,0.031185626983642578,-0.014634430408477783,0.05762571096420288,0.04129037633538246,-0.0013895513257011771,-1.1640551325061461,-0.4043081758814025,-0.43743044897571964
3.3130617141723633,-0.004225671291351318,0.024611055850982666,-0.012494564056396484,0.06469811499118805,0.03979922831058502,-0.00482295174151659,-1.1635490149443848,-0.4035014364240648,-0.4369786585034834
3.3231287002563477,-0.004829078912734985,0.018536031246185303,-0.008734822273254395,0.06513301283121109,0.03610222414135933,-0.011452890932559967,-1.1630921273790689,-0.40290149233862066,-0.4367070463993605
3.3331499099731445,-0.004761680960655212,0.011650800704956055,-0.006333529949188232,0.05881819128990173,0.03469066321849823,-0.01428484357893467,-1.162600954267832,-0.40239297801348656,-0.4365141324846708
3.3431220054626465,-0.006112262606620789,0.005062103271484375,-0.007179141044616699,0.05579443648457527,0.03638656437397003,-0.021227704361081123,-1.1621321281463801,-0.40203608812837477,-0.4364896363800557
3.353065013885498,-0.00904102623462677,0.002732515335083008,-0.006010115146636963,0.05322052538394928,0.03383525460958481,-0.015616903081536293,-1.1616590184032574,-0.4016996464860805,-0.4364825506568515
3.363363742828369,-0.00978882610797882,0.004743695259094238,-0.0014054179191589355,0.0560956746339798,0.03234388679265976,-0.019220691174268723,-1.1612448352672233,-0.4014189730457933,-0.4365054414969688
3.373167037963867,-0.008456915616989136,0.0029956698417663574,9.968876838684082e-05,0.06727687269449234,0.032618679106235504,-0.017648309469223022,-1.1607302906686283,-0.401011483899045,-0.43640384100844587
3.383234977722168,-0.007776468992233276,0.005087494850158691,-0.0037892162799835205,0.08431258052587509,0.03042689710855484,-0.020745299756526947,-1.1599998721053175,-0.4004497425558401,-0.436129341286339
3.3932299613952637,-0.003303155303001404,0.007903575897216797,-0.004867196083068848,0.1089407280087471,0.026752978563308716,-0.01666799932718277,-1.159062727259034,-0.39971379098185894,-0.43563225078330853
3.403286933898926,-0.00013116002082824707,0.008691608905792236,-0.007928729057312012,0.13769541680812836,0.026859503239393234,-0.014238931238651276,-1.157933948789706,-0.3987438421136739,-0.43485712771005924
3.414928913116455,0.0029461532831192017,0.006179451942443848,-0.006626635789871216,0.15979182720184326,0.02437921240925789,-0.020010318607091904,-1.1565535250195262,-0.3975718979673712,-0.43384403286794193
3.423374891281128,0.003674417734146118,-0.0003923177719116211,0.002184450626373291,0.16396233439445496,0.01943931356072426,-0.019894473254680634,-1.1549898038973274,-0.39640121725006167,-0.43279262414672126
3.4333958625793457,0.0035921335220336914,-0.0015077590942382812,0.008549362421035767,0.15705707669258118,0.015278169885277748,-0.016751782968640327,-1.1534851023906565,-0.3953318883673456,-0.4317778372882105
3.4433648586273193,0.0033505409955978394,-0.0059754252433776855,0.00870668888092041,0.12833595275878906,0.014975901693105698,-0.016069747507572174,-1.1523118577092768,-0.3946039329265226,-0.43108539472649454
3.4534318447113037,0.001437067985534668,-0.016565561294555664,0.008505940437316895,0.08904468268156052,0.01982431858778,-0.018055347725749016,-1.1514881602808504,-0.3941832134046859,-0.43074997027953044
3.4636178016662598,0.000978708267211914,-0.024774014949798584,0.008420586585998535,0.042278509587049484,0.023186827078461647,-0.019747519865632057,-1.1509990608564964,-0.3940500161654712,-0.43079397059400676
3.4734277725219727,0.0005386322736740112,-0.026692688465118408,0.01304006576538086,0.009448294527828693,0.02595607191324234,-0.015950491651892662,-1.1508770210615356,-0.3941457167000568,-0.4311313136048999
3.4843196868896484,0.0023052245378494263,-0.02520853281021118,0.016426026821136475,-0.0036459360271692276,0.02829299494624138,-0.01166386716067791,-1.1509045375856488,-0.39420267455288915,-0.431482826604721
3.493520736694336,0.005379706621170044,-0.016285419464111328,0.015714287757873535,0.012713496573269367,0.027251342311501503,-0.004726918414235115,-1.1509125631863253,-0.3940273826481794,-0.43160578999788934
3.5036587715148926,0.007816135883331299,-0.011757850646972656,0.016892611980438232,0.040593598037958145,0.025716297328472137,0.00035226240288466215,-1.150810876720531,-0.3936762330498811,-0.43148755504060593
3.513439893722534,0.00802108645439148,-0.011876583099365234,0.017603814601898193,0.059894341975450516,0.025807421654462814,0.007265668828040361,-1.1506158209791872,-0.39310737269215573,-0.4311058593356714
3.5235090255737305,0.00416797399520874,-0.012068212032318115,0.018151164054870605,0.06576474756002426,0.032366521656513214,0.014863134361803532,-1.1502627953468854,-0.3921928115114328,-0.4304018633845656
3.533390998840332,0.003935039043426514,-0.009373366832733154,0.01972353458404541,0.07029701769351959,0.029424794018268585,0.017050815746188164,-1.1497541940793796,-0.3910256998023943,-0.4294588502205953
3.5435729026794434,0.004825234413146973,-0.013051927089691162,0.022339701652526855,0.06102308630943298,0.027744073420763016,0.01419803686439991,-1.1491974577910813,-0.38988250117173257,-0.4285071954472247
3.5534987449645996,0.002859443426132202,-0.017833471298217773,0.0209922194480896,0.04945549741387367,0.0279629398137331,0.017272071912884712,-1.1488012507022851,-0.3889227800176407,-0.42773632221094166
3.5641849040985107,0.0004225224256515503,-0.017611324787139893,0.018776655197143555,0.029899105429649353,0.031590431928634644,0.011817916296422482,-1.1485942902271933,-0.38810195031939204,-0.42714578668306874
3.573516845703125,-0.0002611130475997925,-0.01499873399734497,0.018709272146224976,0.014627210795879364,0.029007164761424065,0.009369672276079655,-1.1485484795421865,-0.38750537181457495,-0.426812785206508
3.58353590965271,0.0033348500728607178,-0.01173555850982666,0.019860923290252686,-0.0004710486391559243,0.020150290802121162,0.008332371711730957,-1.1486656831824986,-0.3871155563207115,-0.42664819305962365
3.593573808670044,0.005770981311798096,-0.00972682237625122,0.01933467388153076,-0.006789165548980236,0.0137979406863451,0.004983978811651468,-1.1488651684062505,-0.3869610427164732,-0.42663967426141414
3.603585720062256,0.0034042447805404663,-0.009389340877532959,0.01770097017288208,-0.007180383428931236,0.010805347003042698,0.003466509748250246,-1.1490844397314202,-0.38695449801157183,-0.4267315207475989
3.6133790016174316,-0.0026910752058029175,-0.007247984409332275,0.015222758054733276,0.004703356884419918,0.008234997279942036,0.006604512222111225,-1.14925824008373,-0.3869329396101624,-0.42677369065636733
3.6236367225646973,-0.0034233182668685913,-0.002756178379058838,0.012279689311981201,0.01594668999314308,0.00403412664309144,0.007679896429181099,-1.1493562340214032,-0.3867805547336055,-0.42664496105687993
3.6340737342834473,-0.0029256045818328857,-0.0027332305908203125,0.008181184530258179,0.018894076347351074,0.0016236994415521622,0.011750911362469196,-1.149374615733048,-0.38654038280861547,-0.4263810812554176
3.645176887512207,-0.0037692487239837646,-0.004887700080871582,0.01098102331161499,0.024494703859090805,-0.0037111444398760796,0.014292099513113499,-1.1493447475993261,-0.3862600559550148,-0.426035806135739
3.6535887718200684,-0.003834635019302368,-0.00843954086303711,0.011522889137268066,0.028027603402733803,-0.004285099916160107,0.0136021813377738,-1.1492990406871242,-0.38596540299826665,-0.42563185733318193
3.6634538173675537,-0.0053962767124176025,-0.008637487888336182,0.00827646255493164,0.013859321363270283,0.00035412702709436417,0.01095526572316885,-1.1493352324888322,-0.38574281564089175,-0.42533242940097155
3.6736338138580322,-0.004791006445884705,-0.0076315999031066895,0.008492320775985718,0.0016988783609122038,0.0006286543793976307,0.011971686966717243,-1.1494873155295753,-0.38558558816893945,-0.425144811407228
3.683568000793457,-0.0035132765769958496,-0.008684873580932617,0.0112571120262146,-0.02310660295188427,0.001053428277373314,0.011675277724862099,-1.1498243505982324,-0.3855983897937107,-0.42513813544500817
3.693805694580078,-0.004968404769897461,-0.011039376258850098,0.009863823652267456,-0.04181872308254242,0.005448132753372192,0.004388336092233658,-1.1503213172215967,-0.38587331815984643,-0.4254429164909145
3.7036008834838867,-0.006550043821334839,-0.011564671993255615,0.011859983205795288,-0.04044639691710472,0.008051373064517975,0.0012191747082397342,-1.1508608974179657,-0.38629751917742655,-0.42595227008626935
3.7136218547821045,-0.009855255484580994,-0.003604292869567871,0.01090964674949646,-0.024565216153860092,0.01042331662029028,0.003668803721666336,-1.1512468645352658,-0.3865842019732797,-0.42634639865332613
3.724043846130371,-0.008929416537284851,0.005264997482299805,0.006835997104644775,-0.00143006956204772,0.010595622472465038,0.004698648117482662,-1.151499612374293,-0.38668038818433226,-0.42653656772669624
3.733747959136963,-0.008492708206176758,0.007800042629241943,0.007648825645446777,0.011440156027674675,0.011670474894344807,0.005797681398689747,-1.1515694798797498,-0.38656700169686087,-0.426509054769768
3.7435007095336914,-0.008686378598213196,0.005568146705627441,0.008864879608154297,0.013774415478110313,0.011966351419687271,0.004110834561288357,-1.1515046448966026,-0.38635830387249503,-0.4263854183677373
3.753757953643799,-0.00975923240184784,0.0017879605293273926,0.00898057222366333,0.004093376453965902,0.013522481545805931,-0.002911441493779421,-1.1514574004760096,-0.386262186938453,-0.4263923656009426
3.76352596282959,-0.010322913527488708,0.0005494952201843262,0.011172890663146973,-0.013797473162412643,0.013301705941557884,-0.011570177040994167,-1.151575932815494,-0.38653481368618836,-0.42680494765398164
3.77364182472229,-0.009380817413330078,0.001852273941040039,0.010358661413192749,-0.028273584321141243,0.01852567493915558,-0.017060816287994385,-1.1517865577300028,-0.38700030845883804,-0.42745624637037394
3.783596992492676,-0.007822081446647644,0.0020003318786621094,0.007125973701477051,-0.030767900869250298,0.01967269740998745,-0.01794551871716976,-1.1520976576052546,-0.3876564488268464,-0.4283379796870275
3.7936878204345703,-0.006766065955162048,0.005042433738708496,0.00578799843788147,-0.009574215859174728,0.023617859929800034,-0.023447182029485703,-1.1523467419462388,-0.3883396310633941,-0.4292665175717121
3.8045358657836914,-0.005388543009757996,0.009859204292297363,0.004417479038238525,0.018260078504681587,0.024418137967586517,-0.03066434897482395,-1.1523217691151024,-0.388855444172633,-0.43005217876194013
3.813663959503174,-0.002382636070251465,0.012020766735076904,0.003330916166305542,0.03073127754032612,0.022354410961270332,-0.038753967732191086,-1.152109134419533,-0.3893490036402662,-0.43081152929140926
3.823758840560913,0.001024782657623291,0.0072650909423828125,0.0042410194873809814,0.02887825109064579,0.01926621049642563,-0.04387655854225159,-1.1518340842109158,-0.3900000710823325,-0.4317012521464056
