timestamp,accel_x,accel_y,accel_z,rotation_x,rotation_y,rotation_z, pitch,roll,yaw
0.04137897491455078,-0.05094292014837265,0.0282028429210186,0.0037883520126342773,-0.004748836159706116,0.007779913954436779,0.004127064719796181,-0.04943867983008556,0.12176535920969746,0.003014295588185319
0.05746912956237793,-0.048875294625759125,0.025670092552900314,0.0031978487968444824,-0.005239390302449465,0.0066530415788292885,0.0017344277584925294,-0.04948430623260899,0.12183484158615056,0.0030509819649629814
0.05879998207092285,-0.04864811897277832,0.02866123616695404,0.004286527633666992,-0.003585833590477705,0.006722017657011747,0.006910813506692648,-0.0495297161145446,0.12189840353268581,0.003099204296452026
0.06461310386657715,-0.04939094930887222,0.029692664742469788,0.004201531410217285,-0.005723669193685055,0.004570316523313522,0.008064867928624153,-0.04956644299126767,0.12195529230347796,0.003184408933078884
0.06983208656311035,-0.048925742506980896,0.026973649859428406,0.0023633241653442383,-0.0055170077830553055,0.0029101017862558365,0.006485879886895418,-0.049615234489040844,0.12199426212007343,0.0032646301389803304
0.07990193367004395,-0.048985257744789124,0.026724644005298615,0.0026776790618896484,-0.006294734310358763,0.004498278256505728,0.004024319816380739,-0.04966593786577042,0.12202382418695404,0.0033214521195769633
0.08720612525939941,-0.051421716809272766,0.025919035077095032,0.0021643638610839844,-0.0069283004850149155,0.0074293529614806175,0.006771903019398451,-0.04972393512855042,0.12208074903300796,0.0033802847544868436
0.09717607498168945,-0.05256704241037369,0.02671271562576294,0.001282036304473877,-0.006508519873023033,0.007606453262269497,0.008808262646198273,-0.04978482390487641,0.12215901680241122,0.0034517812850647068
0.10721206665039062,-0.05089518427848816,0.028210729360580444,0.0029679536819458008,1.0366085916757584e-05,0.0037395432591438293,0.0075613707304000854,-0.04981272668009705,0.12221202903901222,0.003526397430065903
0.11727595329284668,-0.04800702631473541,0.02886209264397621,0.0034093260765075684,0.0064718942157924175,0.003624051110818982,0.0055484469048678875,-0.049771659926296716,0.12223827302763786,0.003578428256223556
0.12730097770690918,-0.04950140416622162,0.02850499004125595,0.0011501312255859375,0.002551987301558256,0.0024067203048616648,0.003762531094253063,-0.04971671126749748,0.12226774020250372,0.0036157200323460384
0.13719820976257324,-0.047992683947086334,0.02906365692615509,-0.00011533498764038086,0.0023381521459668875,-0.0032069124281406403,0.0045828912407159805,-0.04969206770224231,0.1222694978096772,0.003652046001128722
0.1474301815032959,-0.04510620981454849,0.028402645140886307,-0.001203000545501709,0.002177031012251973,-0.011305319145321846,0.0012968169758096337,-0.04966640254987706,0.12218979141182136,0.0036760424612743443
0.15745902061462402,-0.04710133373737335,0.030670884996652603,-0.0021949410438537598,-0.0023957332596182823,-0.012069867923855782,0.0004334734985604882,-0.049671730054401564,0.12206287871466005,0.0036812947022069045
0.16755008697509766,-0.048975877463817596,0.02835967019200325,-0.003708183765411377,-0.006415775045752525,-0.011709276586771011,0.0015999381430447102,-0.04972470835781517,0.12193776077809458,0.0036981823336491894
0.17758488655090332,-0.04880129545927048,0.025834139436483383,-0.003268599510192871,-0.005861654412001371,-0.012699661776423454,0.0014876591740176082,-0.04979365820094995,0.12180824245428779,0.003724060973086383
0.1874849796295166,-0.04880393296480179,0.028761819005012512,-0.001705944538116455,-0.004002235364168882,-0.014654155820608139,0.005162821616977453,-0.050085949506339905,0.121258604436911,0.003753669529796285
0.1974799633026123,-0.0472247377038002,0.027243461459875107,0.0014573335647583008,-0.0028523653745651245,-0.014068393036723137,0.008100554347038269,-0.050353419805006856,0.12072935486004402,0.003812383279805506
0.207489013671875,-0.04766441136598587,0.02511013299226761,0.003109574317932129,-0.0055112652480602264,-0.012980492785573006,0.00792531855404377,-0.050610248050650126,0.12020481671726961,0.003877758716312976
0.21737217903137207,-0.04644567519426346,0.025556761771440506,0.006589710712432861,-0.008145048283040524,-0.017054729163646698,0.005097574088722467,-0.05091168542646737,0.1196854158011147,0.003942245068335442
0.227492094039917,-0.04532216489315033,0.02377086505293846,0.011534392833709717,-0.007400695234537125,-0.019504036754369736,0.002746269106864929,-0.051202604913898685,0.11916969496191832,0.003966699625305492
0.23748087882995605,-0.044902585446834564,0.02337854728102684,0.013886034488677979,-0.010659455321729183,-0.020402899011969566,-0.0012061282759532332,-0.051534321197565326,0.11862549905103342,0.003956715256664685
0.2475290298461914,-0.045591771602630615,0.02325347065925598,0.013967335224151611,-0.00852972548455,-0.0195325780659914,-0.007440854795277119,-0.05184291493661477,0.11806064802562984,0.003909864178068415
0.25748705863952637,-0.04550326615571976,0.02391507476568222,0.012324750423431396,0.003808633191511035,-0.015079505741596222,-0.010270304046571255,-0.05206662386616828,0.11752659037364992,0.003796815227654672
0.2675211429595947,-0.04609878361225128,0.028921756893396378,0.009038388729095459,0.02659197710454464,-0.013368425890803337,-0.01057017594575882,-0.052141222660491454,0.11701977246298283,0.0036538151903341954
0.2775609493255615,-0.04264805465936661,0.03746674954891205,0.005550265312194824,0.054389484226703644,-0.016606740653514862,-0.012186980806291103,-0.05195779546286836,0.11652408976076922,0.0034789631191457244
0.2875559329986572,-0.04127472639083862,0.03886210545897484,0.0055419206619262695,0.07266143709421158,-0.01852821186184883,-0.012976874597370625,-0.051523163522474595,0.11599840159640701,0.0032596765417555614
0.2975609302520752,-0.0421464741230011,0.03594697266817093,0.0034577250480651855,0.0683327317237854,-0.013677883893251419,-0.01557350903749466,-0.05101966227686941,0.11550518268425194,0.0030131588768452493
0.3075129985809326,-0.043508484959602356,0.028865590691566467,0.0033761262893676758,0.07074342668056488,-0.010869581252336502,-0.023680437356233597,-0.050623730001574774,0.115060834658367,0.002742898973018873
0.3176591396331787,-0.048456043004989624,0.0063752345740795135,0.009654462337493896,0.06412404030561447,0.003237360157072544,-0.031078219413757324,-0.050072615832458124,0.11470763599180517,0.0023593385958831413
0.3279869556427002,-0.04906414449214935,0.024450890719890594,0.009584784507751465,0.044646210968494415,-0.009638490155339241,-0.02568664960563183,-0.04980363225400126,0.11436549413226726,0.001989359297495573
0.33777499198913574,-0.038992129266262054,0.05897711217403412,0.01631563901901245,0.026474546641111374,-0.02165525034070015,-0.014883005060255527,-0.049670556151317824,0.11387142637700563,0.001742401364214616
0.34771203994750977,-0.037637852132320404,0.02257690578699112,0.018798649311065674,-0.0012489595683291554,0.00020504090934991837,-0.017303019762039185,-0.04977022483236242,0.11346060278811418,0.0015647019446473486
0.3576500415802002,-0.05033652484416962,0.004599560052156448,0.010674595832824707,-0.02707865834236145,0.02006227895617485,-0.015878228470683098,-0.050200500348625984,0.1133280515643976,0.0014013844716347656
0.36766695976257324,-0.05100280046463013,0.015024196356534958,0.007474541664123535,-0.028427284210920334,0.018156787380576134,-0.007478351704776287,-0.05076290927681018,0.11331075515979812,0.0013109118758606257
0.37786006927490234,-0.038968317210674286,0.028476014733314514,0.010148465633392334,-0.008918380364775658,0.009134397841989994,0.0004264427116140723,-0.051181875887336574,0.1132256605034821,0.001287746723025071
0.38766908645629883,-0.03669875115156174,0.03291018307209015,0.007196307182312012,0.003202464198693633,0.008333851583302021,0.00826732162386179,-0.0513866475225375,0.11306173092071901,0.0013235545086743101
0.3976919651031494,-0.039515770971775055,0.026874680072069168,4.571676254272461e-05,-0.0008704410865902901,0.014562896452844143,0.01122598722577095,-0.05139493613034473,0.11287134154204391,0.0014056335146956627
0.40770411491394043,-0.04118822515010834,0.01898191124200821,-0.0015938282012939453,-0.011107898317277431,0.014049438759684563,0.012503504753112793,-0.05161282217073664,0.11269741321390071,0.0015082641949035987
0.4177591800689697,-0.03928501158952713,0.018506258726119995,0.001732468605041504,-0.016426097601652145,0.009256459772586823,0.012926042079925537,-0.05219607402389468,0.11256662017918631,0.001630617789142454
0.4277031421661377,-0.03716716915369034,0.023373082280158997,0.004255950450897217,-0.011803649365901947,0.0028611444868147373,0.015635011717677116,-0.05247184302766662,0.11238688855021521,0.0017747611192231525
0.43773698806762695,-0.035536617040634155,0.02618531882762909,0.0034531354904174805,-0.006739948410540819,-0.007279285229742527,0.013177178800106049,-0.05255889424273802,0.11202052266366953,0.001912363017144064
0.4478909969329834,-0.033610932528972626,0.02603410929441452,0.003545105457305908,-0.0004005597438663244,-0.015728697180747986,0.012201929464936256,-0.052664470686282085,0.11155676027401273,0.0020196157781569475
0.4577920436859131,-0.034583382308483124,0.026930954307317734,0.004557430744171143,-0.001954530831426382,-0.017987722530961037,0.009151384234428406,-0.05286654244370197,0.11113868403213469,0.0021135960411000927
0.46782898902893066,-0.03960444778203964,0.02671203762292862,0.005820035934448242,-0.013136877678334713,-0.012152204290032387,0.010240084491670132,-0.05316216850086946,0.11075699137587539,0.002217801296374844
0.47798705101013184,-0.04335685074329376,0.021753322333097458,0.0042380690574646,-0.016923410817980766,-0.00711630005389452,0.00832106452435255,-0.05348267038823535,0.11041938487798415,0.0023155138880705597
0.4878060817718506,-0.043426163494586945,0.01977475732564926,0.006473958492279053,-0.009248180314898491,-0.006206830032169819,0.004305549897253513,-0.053722076929869994,0.11009091841204484,0.0023700565951915308
0.4978601932525635,-0.04201437532901764,0.022463694214820862,0.0068209171295166016,-0.004073807969689369,-0.00929232407361269,0.005011021159589291,-0.05390204671836452,0.10976109256881116,0.002408203607426909
0.5078151226043701,-0.03972886502742767,0.02437404915690422,0.006024539470672607,-0.00018106517381966114,-0.01133869681507349,0.008913351222872734,-0.054067131975742456,0.10942720447539542,0.00246848966851706
0.5178611278533936,-0.0388932004570961,0.021502356976270676,0.00573122501373291,-0.0020253208931535482,-0.011506875976920128,0.010462884791195393,-0.05423826484733351,0.10909360881395329,0.0025508311256927704
0.5280160903930664,-0.0410575270652771,0.01997152343392372,0.006838798522949219,-0.0003826830070465803,-0.011382238939404488,0.01312711089849472,-0.054411321855569655,0.10878474721278267,0.002658662536887743
0.537891149520874,-0.039329975843429565,0.018605582416057587,0.007611274719238281,0.002849611919373274,-0.010068635456264019,0.013266555033624172,-0.054572061461930166,0.1084749339922033,0.002773856234533536
0.548022985458374,-0.036811500787734985,0.020195163786411285,0.005720376968383789,0.005948999430984259,-0.012954170815646648,0.012478259392082691,-0.054691641057544954,0.10812131322717194,0.0028937573113277156
0.5579240322113037,-0.03537145256996155,0.025069747120141983,0.00383836030960083,0.00883907824754715,-0.01408597081899643,0.012744148261845112,-0.05474572976597752,0.10771622679478311,0.0029978651059317744
0.5679929256439209,-0.03465477377176285,0.025266386568546295,0.0017423033714294434,0.010437240824103355,-0.010806819424033165,0.011820031329989433,-0.05476273776621191,0.1073325500546383,0.0030991133983081613
0.5781919956207275,-0.0368829146027565,0.024361152201890945,-0.00029712915420532227,0.008607249706983566,-0.008647440001368523,0.010243546217679977,-0.05479827452220159,0.10697961572056539,0.0031803715016583346
0.5884311199188232,-0.036234550178050995,0.026161637157201767,0.0010765790939331055,0.005702007561922073,-0.011386767029762268,0.011029180139303207,-0.05487473808881561,0.1066497643033571,0.003266899485955871
0.5979669094085693,-0.035217493772506714,0.02688712254166603,0.003140866756439209,0.00679450249299407,-0.01684136688709259,0.006059880834072828,-0.0549428074543519,0.10628662172612803,0.003327729727629537
0.6080160140991211,-0.03391923010349274,0.023542232811450958,0.003899991512298584,-0.0029659827705472708,-0.023894213140010834,0.0027343914844095707,-0.05503772161382922,0.10584023679181168,0.0033554166783738657
0.6181020736694336,-0.033749230206012726,0.022073108702898026,0.00615239143371582,-0.015121715143322945,-0.027862681075930595,0.0021412521600723267,-0.05525595852901919,0.10534757787611689,0.0033765275927991707
0.628154993057251,-0.03538195788860321,0.018391408026218414,0.008625626564025879,-0.023534640669822693,-0.02416195161640644,0.0032683019526302814,-0.055581218470497955,0.10487312789433295,0.003402824306440466
0.6381008625030518,-0.036093100905418396,0.017561770975589752,0.010858595371246338,-0.02923768386244774,-0.02147974818944931,0.004663851577788591,-0.05599952491203065,0.10445462830405121,0.0034597783451628624
0.64805006980896,-0.03487052023410797,0.019563399255275726,0.009763121604919434,-0.028364965692162514,-0.020653903484344482,0.008370972238481045,-0.05643999931231522,0.10404044229229044,0.003548134868671995
0.6580898761749268,-0.032917700707912445,0.0168851837515831,0.01274329423904419,-0.020498303696513176,-0.014954870566725731,0.008494595997035503,-0.05681473568867247,0.10364344250517915,0.0036400361119664007
0.6684539318084717,-0.03706531226634979,0.017130635678768158,0.013563215732574463,-0.015923526138067245,-0.005263893865048885,0.011861896142363548,-0.05714966441742092,0.10335067930232734,0.003752168761720561
0.6782000064849854,-0.0401526615023613,0.019476689398288727,0.01510763168334961,-0.00731525756418705,0.0066865975968539715,0.010942946188151836,-0.057413296351661404,0.10317296276554809,0.003871822598897976
0.6881580352783203,-0.04000459611415863,0.020349904894828796,0.0167543888092041,0.0045350100845098495,0.01505318470299244,0.005906109698116779,-0.05756266605014716,0.10310157916338206,0.003945138645454716
0.698314905166626,-0.04004139453172684,0.02250179648399353,0.012568652629852295,0.010060153901576996,0.026728704571723938,0.005600644741207361,-0.05760811344398702,0.10312354075137255,0.003984102950684755
0.7079770565032959,-0.04019632935523987,0.02349419891834259,0.006441950798034668,0.01723790541291237,0.033084604889154434,0.0034445496276021004,-0.057576963871773065,0.10321791471791507,0.004004270847253823
0.7181499004364014,-0.037784986197948456,0.020959526300430298,0.005701243877410889,0.018873203545808792,0.0342344231903553,-0.0014513521455228329,-0.057502258311886295,0.10333993994427268,0.0039795910218215795
0.7281968593597412,-0.03702613711357117,0.02258411794900894,0.005006849765777588,0.012775097042322159,0.027341630309820175,-0.0025730757042765617,-0.05746451882936819,0.10343602549645702,0.003935729241157842
0.7382009029388428,-0.03358461707830429,0.022749625146389008,0.003231227397918701,0.007612359244376421,0.02167326956987381,-0.001284052268601954,-0.05746686426971801,0.10348916423475703,0.003896074262000234
0.7482631206512451,-0.030127093195915222,0.019203968346118927,-0.0015003681182861328,0.0017741774208843708,0.01842980645596981,-0.0017146854661405087,-0.05753362538837801,0.10346509255865902,0.003866794235077783
0.7582671642303467,-0.03137647360563278,0.022008828818798065,-0.00558316707611084,0.0008000433444976807,0.005725595634430647,0.0004552049795165658,-0.05764337481079355,0.10334096215422564,0.0038476230384696616
0.7682931423187256,-0.02710697054862976,0.023378267884254456,-0.009592950344085693,0.0027148560620844364,-0.006581670604646206,0.005068066529929638,-0.05775422484738866,0.10309874982451496,0.003872484987727547
0.7782599925994873,-0.02624843269586563,0.02072244882583618,-0.009442925453186035,0.0008018743246793747,-0.015410847961902618,0.009047042578458786,-0.057877290879975264,0.10275736882969236,0.003920468932287659
0.7887508869171143,-0.030210129916667938,0.01853610947728157,-0.005807340145111084,-0.008996694348752499,-0.0248099435120821,0.011610867455601692,-0.05804975593364044,0.10232253923540552,0.004009493061832232
0.8002331256866455,-0.03090016543865204,0.01740514487028122,-0.002689838409423828,-0.018979020416736603,-0.030486203730106354,0.01261594332754612,-0.05829613194034844,0.10183575464049112,0.004133448244126981
0.8121490478515625,-0.030727945268154144,0.014336522668600082,-0.0001996755599975586,-0.024105604737997055,-0.03299437090754509,0.01279916986823082,-0.05863400889783636,0.10131099445528524,0.0042661453768430176
0.8214800357818604,-0.03385123610496521,0.014015376567840576,0.002713441848754883,-0.02147485315799713,-0.03169283643364906,0.016192516312003136,-0.05898627679135654,0.1008166553723285,0.0044094823090877495
0.8296401500701904,-0.033563271164894104,0.016483288258314133,0.004681646823883057,-0.013850487768650055,-0.0314885750412941,0.01699332892894745,-0.05925014965888355,0.10035930820981058,0.004578301223198525
0.8382198810577393,-0.03262730687856674,0.021154850721359253,0.006184637546539307,0.0017126752063632011,-0.031090475618839264,0.016938786953687668,-0.05941591893749364,0.09987885386247841,0.0047445285196625105
0.8483099937438965,-0.033332355320453644,0.02271013706922531,0.008635759353637695,0.005486107897013426,-0.0291983000934124,0.016779528930783272,-0.05947817022297653,0.09943688129044667,0.004892935004809147
0.858288049697876,-0.036422811448574066,0.022544898092746735,0.007905542850494385,-0.002025038003921509,-0.020632775500416756,0.014350514858961105,-0.05955198946152592,0.09906153132959272,0.005036568665469344
0.8683199882507324,-0.035648517310619354,0.018382005393505096,0.010982751846313477,-0.01120735052973032,-0.01830756850540638,0.00965642649680376,-0.059702088898483864,0.09871303844601549,0.005161613615019229
0.8782360553741455,-0.03371410816907883,0.019244372844696045,0.015229582786560059,-0.02081703394651413,-0.02090468257665634,0.006207846105098724,-0.05993877694775489,0.0983646321654577,0.0052556024557352254
0.8883020877838135,-0.028924472630023956,0.02068789303302765,0.01918494701385498,-0.02731274999678135,-0.022626683115959167,0.001439455896615982,-0.06025057600523685,0.09798410102129336,0.005301263327516853
0.898331880569458,-0.026960104703903198,0.020276609808206558,0.01822376251220703,-0.03382863849401474,-0.02006658725440502,0.00022729160264134407,-0.06063203845974017,0.09759104092309878,0.005325475612039434
0.9082980155944824,-0.028284698724746704,0.02443542703986168,0.013730406761169434,-0.03532160818576813,-0.017428725957870483,0.0032856655307114124,-0.06106692501176308,0.09723742066050517,0.005367039652244404
0.9183330535888672,-0.02860931307077408,0.024582888931035995,0.012772321701049805,-0.030597010627388954,-0.013936210423707962,0.004118755459785461,-0.06151539549673019,0.09692174440884119,0.00542483193651774
0.9283649921417236,-0.029842548072338104,0.023921262472867966,0.013644039630889893,-0.025909846648573875,-0.0076303789392113686,0.00025956914760172367,-0.06191838882598564,0.0966449402058929,0.0054621096934039885
0.938391923904419,-0.03151898831129074,0.02488165721297264,0.013765513896942139,-0.024794531986117363,-0.002154786139726639,0.0003310482716187835,-0.06228622322947761,0.09641472075913911,0.005481832168362058
0.948383092880249,-0.03333878517150879,0.025733627378940582,0.013622760772705078,-0.02554900571703911,0.002274849684908986,5.7009048759937286e-05,-0.06262509676831747,0.09625184175320428,0.005501823284318225
0.9584250450134277,-0.03405816853046417,0.022483982145786285,0.01583653688430786,-0.02644454501569271,0.009759530425071716,-0.004607517272233963,-0.06296096598008133,0.09617931373437028,0.00550509961086917
0.9684200286865234,-0.03462500870227814,0.02236022800207138,0.014910221099853516,-0.03299645334482193,0.014460009522736073,-0.005429368931800127,-0.06334489608651238,0.09619930050067599,0.005479884219896435
0.978503942489624,-0.034552738070487976,0.02016063779592514,0.013399779796600342,-0.031239349395036697,0.016457512974739075,-0.005477785132825375,-0.06374475311343207,0.09625188563260545,0.0054513484847449325
0.9884569644927979,-0.0312616303563118,0.01807178556919098,0.014908671379089355,-0.03642825037240982,0.012964777648448944,-0.004538488574326038,-0.0641712733695455,0.09630542980275711,0.005426867696092535
0.9984118938446045,-0.029095850884914398,0.0225650817155838,0.012791872024536133,-0.03765442222356796,0.0010022581554949284,-0.001230256399139762,-0.06462275706718738,0.09627849386835222,0.00542668729949908
1.0084900856018066,-0.023745886981487274,0.01917377859354019,0.010362029075622559,-0.04642341285943985,-0.009330274537205696,0.0003822875441983342,-0.0651312185213404,0.09613396991468307,0.005453580232878744
1.0185210704803467,-0.022795751690864563,0.015526920557022095,0.007720768451690674,-0.05747511610388756,-0.016883399337530136,0.001349654165096581,-0.06572759653937246,0.09590318536269363,0.0054947549996880885
1.0284788608551025,-0.026973195374011993,0.015290334820747375,0.005809426307678223,-0.08565349131822586,-0.030064448714256287,-0.00017820147331804037,-0.06653051120974145,0.09555146233947884,0.005558730982248434
1.0385191440582275,-0.02554536610841751,0.01010829210281372,0.008227527141571045,-0.11719856411218643,-0.050290271639823914,-0.004834738560020924,-0.0676256578302938,0.09502732638228652,0.005616600742125822
1.0485179424285889,-0.025049664080142975,0.00229480117559433,0.012277483940124512,-0.15493343770503998,-0.08397765457630157,-0.010292887687683105,-0.06906434092132273,0.09424569009021651,0.005655117798073136
1.0601489543914795,-0.02454330027103424,0.004138834774494171,0.02259880304336548,-0.20164240896701813,-0.11658424884080887,-0.01966194063425064,-0.07090217555322859,0.0931334079455299,0.005675338898043216
1.0685460567474365,-0.023221053183078766,0.004834264516830444,0.03164559602737427,-0.30604442954063416,-0.1552557498216629,-0.04204501211643219,-0.07346353822682704,0.09165018353982779,0.00560411600544916
1.0786139965057373,-0.021318547427654266,-0.005687586963176727,0.03308373689651489,-0.508400022983551,-0.21277527511119843,-0.07093887031078339,-0.07751192782406624,0.08976220482037428,0.00539512380738948
1.0886390209197998,-0.01799185574054718,-0.03568338602781296,0.04533666372299194,-0.8541603684425354,-0.3109753429889679,-0.1458248347043991,-0.08433670929718208,0.08698307655445896,0.004945977752504267
1.09877610206604,-0.007733799517154694,-0.07497983425855637,0.07548052072525024,-1.2511003017425537,-0.3556855618953705,-0.20182423293590546,-0.09489752408958062,0.08352344617523927,0.004050919537161786
1.1108958721160889,-0.01155620813369751,-0.0847025141119957,0.07684588432312012,-1.9233248233795166,-0.4184916913509369,-0.30182433128356934,-0.11086936925792622,0.07944862787623914,0.0028817848617462808
1.1186330318450928,-0.01802249252796173,-0.11696608364582062,0.10152673721313477,-2.528473138809204,-0.4603768587112427,-0.37399813532829285,-0.13338288677224114,0.0749248776884841,0.001141659136534759
1.1286160945892334,-0.017547160387039185,-0.18517717719078064,0.0697670578956604,-3.2423274517059326,-0.5696300864219666,-0.46763861179351807,-0.16246867795445002,0.06940399469542581,-0.000947286110601236
1.1386520862579346,-0.0021355897188186646,-0.19711458683013916,0.09145617485046387,-3.8263514041900635,-0.6072492003440857,-0.5306628346443176,-0.19822703745004838,0.06312019949191994,-0.0035774297465159762
1.1486179828643799,0.015990637242794037,-0.1659272164106369,0.06719052791595459,-4.19227409362793,-0.7124848365783691,-0.6169431209564209,-0.23874538136500054,0.05568498131936631,-0.007059693020326576
1.1601521968841553,0.0025227628648281097,-0.09723320603370667,0.03869503736495972,-4.558445930480957,-0.8108257055282593,-0.6314703822135925,-0.28268470915451593,0.047155980635369736,-0.011147449389283916
1.16880202293396,0.004339724779129028,-0.06397891044616699,0.022924304008483887,-4.992656707763672,-0.9176467061042786,-0.7120946645736694,-0.3307167496332592,0.036913999819579234,-0.01614547205820291
1.1786339282989502,4.0512531995773315e-05,-0.09069252014160156,0.015096008777618408,-5.554528713226318,-1.013446569442749,-0.7567933201789856,-0.38366640907659766,0.02506922832936477,-0.022247169924101643
1.188689947128296,-0.008873938582837582,-0.0930027961730957,0.013917028903961182,-6.227791786193848,-1.109147548675537,-0.7994534373283386,-0.44274503655752545,0.011458972520826284,-0.029593932251936312
1.1989948749542236,-0.013066541403532028,-0.1008651852607727,0.029694437980651855,-6.827695369720459,-1.1579777002334595,-0.8033047914505005,-0.5082369800403983,-0.003924425728860273,-0.038369874913528765
1.210299015045166,-0.022331442683935165,-0.08392560482025146,0.026939809322357178,-7.315847873687744,-1.2870246171951294,-0.8027969598770142,-0.5789213184886257,-0.021430003446180915,-0.0487668900220687
1.218796968460083,-0.023711662739515305,0.008563876152038574,0.04020822048187256,-7.630658149719238,-1.4030728340148926,-0.815780520439148,-0.6536518159220828,-0.042453128003603735,-0.0616670711506095
1.2287299633026123,-0.029632870107889175,0.07996797561645508,0.02964925765991211,-7.590025901794434,-1.4404065608978271,-0.7914983630180359,-0.7295750068729001,-0.06688102287754623,-0.07750167056436325
1.238753080368042,-0.06540057063102722,0.0963943600654602,-0.02774912118911743,-7.157658576965332,-1.4287242889404297,-0.7627500295639038,-0.8027424510986209,-0.09442742721397698,-0.09655181959883048
1.2488110065460205,-0.09215798228979111,0.12879550457000732,-0.08929914236068726,-6.575058460235596,-1.4656673669815063,-0.7432796359062195,-0.8703358520139043,-0.12561485879122442,-0.11897479005056792
1.2623779773712158,-0.08654149621725082,0.1558067798614502,-0.14409101009368896,-5.762391090393066,-1.3351190090179443,-0.657151997089386,-0.9305892460601671,-0.15964630251211293,-0.14439401988760128
1.269110918045044,-0.08299550414085388,0.1341778039932251,-0.2151520848274231,-4.798924446105957,-1.1528501510620117,-0.5719558596611023,-0.9816742507934143,-0.1938533233105057,-0.17099925130121774
1.2786881923675537,-0.10011550784111023,0.10368990898132324,-0.2253807783126831,-3.7276008129119873,-0.9479143023490906,-0.5171117782592773,-1.022302352918452,-0.22668608630745785,-0.1974792329891566
1.2888000011444092,-0.10908359289169312,0.06829369068145752,-0.19297927618026733,-2.6317992210388184,-0.723793089389801,-0.42000046372413635,-1.0521153748348373,-0.2557327649786623,-0.2214286308902238
1.2988231182098389,-0.09285326302051544,0.06575465202331543,-0.15729030966758728,-1.431452751159668,-0.3950228691101074,-0.3148684501647949,-1.0708104187944323,-0.2773850743877106,-0.23975842212143172
1.3101470470428467,-0.08191019296646118,0.07644432783126831,-0.12862339615821838,-0.27197960019111633,-0.05081730708479881,-0.2047688364982605,-1.0782273198160113,-0.28861598362890456,-0.24997639135477884
1.3188421726226807,-0.07437658309936523,0.10215884447097778,-0.11087286472320557,0.7823504209518433,0.30807745456695557,-0.06923098862171173,-1.0752919335519475,-0.2883988266200932,-0.25117202227667557
1.3288791179656982,-0.05050280690193176,0.09676331281661987,-0.10477223992347717,1.9015240669250488,0.7652848362922668,0.03259705379605293,-1.0624970071515256,-0.2766955319810972,-0.24382638572574178
1.3388631343841553,-0.05107469856739044,0.08670490980148315,-0.07480797171592712,3.4029436111450195,1.307194471359253,0.13517281413078308,-1.0373887056730264,-0.2529901816343315,-0.22842298133375735
1.3489758968353271,-0.09676225483417511,0.17253702878952026,-0.04963243007659912,5.2232794761657715,1.7448453903198242,0.25585660338401794,-0.9959731466880878,-0.21818438567248377,-0.2056570658298943
1.360666036605835,-0.1185813769698143,0.3900905251502991,-0.02942490577697754,7.441866397857666,2.1406636238098145,0.31312236189842224,-0.9347127829000635,-0.17696575930988268,-0.17901524479614309
1.3689420223236084,-0.12209884077310562,0.5917928814888,0.004984080791473389,9.85754680633545,2.564309597015381,0.3287109136581421,-0.8495456683310718,-0.1326856676339041,-0.15256439511847453
1.3790180683135986,-0.17946083843708038,0.747154712677002,0.04669904708862305,12.1412935256958,3.017688512802124,0.2941139340400696,-0.7403581627004308,-0.08934631335689337,-0.1308357870713861
1.3889200687408447,-0.2360844910144806,0.8649102449417114,0.1598111391067505,14.16420841217041,3.4169552326202393,0.34970608353614807,-0.6091400535662882,-0.04738588605260069,-0.11526208677036565
1.3990590572357178,-0.27772900462150574,1.0456631183624268,0.28972285985946655,16.12989044189453,3.7525441646575928,0.5706885457038879,-0.45749549674025364,-0.006118815184866239,-0.1053406441115454
1.4104020595550537,-0.3090071976184845,1.2908103466033936,0.4114838242530823,17.89536476135254,3.7818825244903564,0.8072161078453064,-0.28694845661756296,0.033544424538706256,-0.10044081422452882
1.419862985610962,-0.29663506150245667,1.453977108001709,0.5923502445220947,18.66626739501953,3.47800350189209,0.8870198726654053,-0.10285993559401382,0.06993413759375917,-0.10140309596796315
1.4299981594085693,-0.23940587043762207,1.4582382440567017,0.8023643493652344,17.76361846923828,2.9969348907470703,0.771160900592804,0.08068608416778597,0.10252806860659683,-0.10865678055206156
1.4390509128570557,-0.17082400619983673,1.2093861103057861,1.026806116104126,15.302190780639648,2.706129550933838,0.08857963234186172,0.24629253105829868,0.1332659323022804,-0.12381926054652288
1.4489660263061523,-0.2157442420721054,0.7060998678207397,1.1118121147155762,11.454044342041016,2.9407401084899902,-0.5618575215339661,0.37905247978523526,0.16879208533114637,-0.14768083908333746
1.4608960151672363,-0.2809392511844635,0.27101778984069824,1.1032652854919434,7.701331615447998,3.2676265239715576,-1.198404312133789,0.47106264606180775,0.21210026932598205,-0.17676244955156764
1.469115972518921,-0.26086753606796265,-0.28632116317749023,1.0791796445846558,4.93048095703125,3.474431037902832,-2.0804591178894043,0.5278089259208228,0.26248601778658925,-0.21137052618614058
1.479099988937378,-0.23772934079170227,-0.6511837840080261,0.8762152791023254,3.9160103797912598,3.9019668102264404,-2.609753131866455,0.5621482783173685,0.3208142397625015,-0.25264639741875156
1.4891700744628906,-0.1851034164428711,-0.14867979288101196,0.5680383443832397,4.358520984649658,4.015780448913574,-2.471712827682495,0.5916618713704999,0.3857353193710931,-0.2983395098678929
1.499169111251831,0.07610762119293213,0.47858524322509766,0.3631248474121094,4.950033664703369,3.45632004737854,-2.282515048980713,0.6248237760929725,0.45179813223954907,-0.34785972503101875
1.5106761455535889,0.4691973030567169,0.46960878372192383,0.5011196136474609,5.1053690910339355,2.5748701095581055,-2.5340538024902344,0.6585148125530373,0.5153178591882093,-0.40348047205812243
1.5192539691925049,0.5664557218551636,0.09650158882141113,0.6268410086631775,4.932807922363281,2.204033851623535,-2.9843921661376953,0.687139322062235,0.5783946285728044,-0.46740832844818025
1.5292000770568848,0.23739784955978394,-0.10644817352294922,0.6177676320075989,4.620482921600342,2.4217007160186768,-2.9107561111450195,0.7093813108267675,0.6453129339102414,-0.5352890851596154
1.5392749309539795,-0.10285148024559021,-0.1850982904434204,0.5900816321372986,4.018596649169922,2.7612833976745605,-2.6151466369628906,0.7257374887692168,0.7141373032400076,-0.6001511982967225
1.5493559837341309,-0.15511780977249146,-0.3493584990501404,0.6053845882415771,3.165010690689087,2.637805700302124,-2.223576068878174,0.7357170668976863,0.7789551196855928,-0.6568064108086473
1.5608031749725342,-0.03922051191329956,-0.6089115738868713,0.5769200921058655,2.426969051361084,2.545219898223877,-1.890340805053711,0.7400258071026292,0.8360225694225265,-0.7032989041480359
1.5692570209503174,-0.058608829975128174,-0.7688131928443909,0.43000486493110657,1.850036382675171,2.568998336791992,-1.4073560237884521,0.7414045286347583,0.8863551106491283,-0.7398842852911959
1.5792419910430908,-0.10637474060058594,-0.8034389615058899,0.22670042514801025,1.367368459701538,2.456737518310547,-0.8048111200332642,0.7425589205145069,0.9295400729871567,-0.7662533607691369
1.589205026626587,-0.005904853343963623,-0.8291954398155212,0.07570293545722961,1.0655430555343628,2.1340830326080322,-0.18925736844539642,0.745587486660933,0.9642510854802674,-0.783512626034729
1.5993139743804932,0.11373299360275269,-0.8159629106521606,-0.05687263607978821,0.9506698250770569,1.834599256515503,0.3104225993156433,0.7518614184899608,0.9914058412987696,-0.7943116920081976
1.6107070446014404,0.1275954246520996,-0.8023040890693665,-0.17369860410690308,0.8405864834785461,1.5211552381515503,0.7053254246711731,0.7610120278692102,1.012886225406904,-0.8010197534370006
1.6193969249725342,0.14070802927017212,-0.7661839127540588,-0.2593320608139038,0.6628624200820923,1.162995457649231,1.0175927877426147,0.7723717709053359,1.0280735990812226,-0.8036376672085448
1.6293141841888428,0.19372648000717163,-0.6493003368377686,-0.3414982557296753,0.4053981304168701,0.8725554347038269,1.233871340751648,0.7848698877908922,1.03716034481965,-0.8020783461717036
1.6392791271209717,0.2146146297454834,-0.5269431471824646,-0.43434467911720276,0.012320611625909805,0.6292800307273865,1.438806176185608,0.7975634731690711,1.0395902966784818,-0.7949815589892278
1.6492900848388672,0.20833122730255127,-0.39406126737594604,-0.4302102327346802,-0.3270145654678345,0.39225226640701294,1.368651270866394,0.8089809565935704,1.0357213078662764,-0.7824844754490905
1.660170078277588,0.1904987096786499,-0.24531352519989014,-0.42063480615615845,-0.3516342043876648,0.17557215690612793,1.1193974018096924,0.817805467468982,1.0284213304780032,-0.768609200478617
1.6694049835205078,0.17789560556411743,0.04566192626953125,-0.48100581765174866,-0.11337130516767502,0.012423712760210037,0.971472978591919,0.8254764720587435,1.0213256077035893,-0.7576583245683888
1.6793501377105713,0.14110267162322998,0.37750643491744995,-0.500659704208374,0.14464089274406433,-0.08117356896400452,0.796052098274231,0.8331298621244699,1.0159925800309324,-0.7509530311596163
1.6893069744110107,0.11595118045806885,0.485080361366272,-0.4433996081352234,0.3538159430027008,-0.21860440075397491,0.5776132345199585,0.840349861504739,1.012958545816782,-0.7487547743492593
1.6995000839233398,0.12036097049713135,0.4671677350997925,-0.33438223600387573,0.429187148809433,-0.3885136544704437,0.3320574462413788,0.8463637830044991,1.0109929192417757,-0.7502126557798842
1.71083402633667,0.12413746118545532,0.39941710233688354,-0.22548291087150574,0.41010719537734985,-0.5018647313117981,0.08763303607702255,0.8503769584521499,1.0092832714599809,-0.7539292468982152
1.7194411754608154,0.08545482158660889,0.3349093794822693,-0.17801028490066528,0.39880096912384033,-0.5647087693214417,-0.12189419567584991,0.8524011784815083,1.0079597501665196,-0.7592943267048695
1.7293331623077393,0.05568265914916992,0.303382933139801,-0.168949156999588,0.3793870508670807,-0.5558719038963318,-0.26292189955711365,0.8527694170212003,1.0072870744945701,-0.7659570199919528
1.739332914352417,0.02482771873474121,0.2716071605682373,-0.1745329201221466,0.32714763283729553,-0.5143859386444092,-0.34014758467674255,0.8521328390630837,1.0072244808698483,-0.7729913735729319
1.7494549751281738,-0.0005143880844116211,0.21565276384353638,-0.13791221380233765,0.22573712468147278,-0.4852304756641388,-0.4040330946445465,0.8504651449715858,1.007195415303983,-0.7796011083096418
1.7605669498443604,-0.0016644597053527832,0.1017998456954956,-0.07559967041015625,0.11172550171613693,-0.4929020404815674,-0.4041455388069153,0.8479136161038826,1.0063863531167159,-0.785021985967961
1.7695350646972656,-0.006567537784576416,0.051966190338134766,-0.0178983211517334,0.039872344583272934,-0.5027427077293396,-0.40085068345069885,0.8448995621025349,1.0044702134006247,-0.7891712896314246
1.7796618938446045,-0.022569596767425537,0.03174179792404175,0.02090516686439514,-0.007812170311808586,-0.4761819541454315,-0.3589814603328705,0.8417231915502069,1.0020632858082335,-0.7925099957420311
1.7895700931549072,-0.05090498924255371,0.019901275634765625,0.037136584520339966,-0.02402069978415966,-0.4701842665672302,-0.23363527655601501,0.8391163326903159,0.9989647918159732,-0.7946844293733935
1.799842119216919,-0.05374038219451904,0.053518712520599365,0.056231945753097534,0.060771238058805466,-0.4329908788204193,-0.19195690751075745,0.8373857910336483,0.9957681479418641,-0.7965355680949653
1.8103621006011963,-0.06963640451431274,0.07733923196792603,0.050071120262145996,0.12483356893062592,-0.39497530460357666,-0.12109445035457611,0.8366133528934702,0.9935194344691499,-0.7990649977435496
1.8195359706878662,-0.0845608115196228,0.07429075241088867,0.058699995279312134,0.07974113523960114,-0.3309515118598938,-0.08526673167943954,0.8363905865319474,0.991436936011128,-0.8011995186390707
1.8295040130615234,-0.08934801816940308,0.013228654861450195,0.06400364637374878,-0.02344517596065998,-0.2682396471500397,-0.09851915389299393,0.8357585079390695,0.9893213535842353,-0.80235450114306
1.8395249843597412,-0.08823508024215698,-0.04807943105697632,0.06644922494888306,-0.18368056416511536,-0.23419392108917236,-0.10960109531879425,0.8343060350873155,0.986477545036939,-0.8019146754363146
1.8495349884033203,-0.07315832376480103,-0.04611384868621826,0.08440971374511719,-0.24467894434928894,-0.20767363905906677,-0.0876486599445343,0.8322369950569245,0.9828399835597698,-0.7999447331530671
1.860400915145874,-0.057886481285095215,0.01885092258453369,0.07263413071632385,-0.17098908126354218,-0.22682416439056396,-0.07067457586526871,0.8303697458689285,0.9792167603833735,-0.7979609642795773
1.869621992111206,-0.022311270236968994,0.08388686180114746,0.05487304925918579,-0.06689942628145218,-0.269490122795105,-0.04318010061979294,0.8292665063149748,0.9759945553991164,-0.7969566160114043
1.879634141921997,-0.0024638772010803223,0.09892481565475464,0.041591644287109375,0.031265873461961746,-0.3032148480415344,-0.04351518303155899,0.82882670349724,0.9732470450404973,-0.7970989730916141
1.8897120952606201,0.004405081272125244,0.07207781076431274,0.008168667554855347,0.06978290528059006,-0.3179115056991577,-0.03748418763279915,0.8287939804513301,0.9709044206388578,-0.7981701780184549
1.9003100395202637,-0.00642925500869751,0.03386414051055908,-0.009881258010864258,0.020723983645439148,-0.3041902780532837,-0.04729394242167473,0.8287631239752484,0.9684612618130164,-0.7991266978940255
1.9120891094207764,-0.029481112957000732,-0.02437514066696167,-0.016624748706817627,-0.07824680209159851,-0.24070477485656738,-0.08838997781276703,0.8280460457098325,0.965845765018895,-0.7993565189834791
1.9206690788269043,-0.06127607822418213,-0.06883728504180908,-0.0283050537109375,-0.22361601889133453,-0.13215318322181702,-0.077605240046978,0.8264710185541229,0.9632060913214107,-0.7982860522660783
1.930279016494751,-0.08113282918930054,-0.074840247631073,-0.03352636098861694,-0.2980324625968933,-0.04297137260437012,-0.03260954096913338,0.8244818419470805,0.9603255918093738,-0.7955094993468459
1.9397389888763428,-0.0635254979133606,-0.04155665636062622,-0.035808026790618896,-0.28635719418525696,-0.002174360677599907,-0.03845618665218353,0.8225124663845469,0.9576902003749443,-0.7921942798172306
1.9498169422149658,-0.03997904062271118,-0.03460037708282471,-0.008373856544494629,-0.20837396383285522,-0.015057401731610298,-0.004995167255401611,0.820829411838524,0.9556235273956103,-0.7894275356597666
1.960839033126831,-0.015328824520111084,-0.0152474045753479,0.015309453010559082,-0.10260032117366791,-0.08891595900058746,-0.011582176201045513,0.8199413642785521,0.953717770294648,-0.78754586593115
1.9696550369262695,0.00890207290649414,-0.010927975177764893,0.02245756983757019,-0.02304743230342865,-0.12837548553943634,-0.07522586733102798,0.8192277322948167,0.952410746312897,-0.7872595006484228
1.9796600341796875,0.010632336139678955,-0.07802450656890869,-0.0001424849033355713,-0.0925118625164032,-0.16358478367328644,-0.07035376876592636,0.8183288798787229,0.9509317637569578,-0.7872687906200948
1.9896550178527832,0.015867769718170166,-0.11108475923538208,-0.022105544805526733,-0.15621307492256165,-0.17187786102294922,-0.061968278139829636,0.8170206625507929,0.9485936050679701,-0.7863405141940039
1.9998738765716553,0.009759068489074707,-0.11179101467132568,-0.039187610149383545,-0.15833984315395355,-0.18671788275241852,-0.08090148866176605,0.8155441253147577,0.9458125968733357,-0.785030654256715
2.0107691287994385,-0.003645956516265869,-0.0961032509803772,-0.027287602424621582,-0.1818462312221527,-0.17769350111484528,-0.10686971247196198,0.8138562685190062,0.9431304785608845,-0.7838712701751233
2.019749879837036,-0.020217537879943848,-0.12148255109786987,-0.022990703582763672,-0.2793322205543518,-0.16183379292488098,-0.11478228121995926,0.8116532829881629,0.9400859760295006,-0.7820928467150653
2.0297529697418213,-0.026575565338134766,-0.15935200452804565,-0.013644635677337646,-0.40440624952316284,-0.12129463255405426,-0.12005453556776047,0.8086692859951549,0.9364701484895902,-0.779051261652329
2.040024995803833,-0.036421239376068115,-0.1736314296722412,-0.006380558013916016,-0.4414430558681488,-0.10210974514484406,-0.0712113156914711,0.8053201172711246,0.9324145842067374,-0.7749355615141642
2.0498950481414795,-0.022211134433746338,-0.10793095827102661,0.007591366767883301,-0.38933324813842773,-0.13695001602172852,-0.02553064376115799,0.8024340028345013,0.9280189934870302,-0.7704876386231715
2.060688018798828,0.005584657192230225,-0.04513484239578247,0.013115078210830688,-0.37179362773895264,-0.1719994843006134,0.004368347115814686,0.8000963687843182,0.923439936703934,-0.7662902188680563
2.0698049068450928,0.012885987758636475,-0.07453960180282593,0.021236538887023926,-0.532101571559906,-0.2112390398979187,0.05458730831742287,0.7976666317292292,0.9177185545746577,-0.7610053233110667
2.0798299312591553,0.010182738304138184,-0.14810395240783691,0.0476689338684082,-0.8792169094085693,-0.20788539946079254,0.049352601170539856,0.7938698086510539,0.9096296351702594,-0.7526506855283844
2.0897791385650635,-0.0027739405632019043,-0.2590453028678894,0.06224048137664795,-1.444117784500122,-0.20997172594070435,0.011657951399683952,0.7870019972453661,0.89822646018721,-0.7395472159604672
2.0998520851135254,-0.016956210136413574,-0.3971771001815796,0.10014879703521729,-2.151082754135132,-0.24632790684700012,0.004424646496772766,0.7757267793879923,0.882106119723481,-0.7198515747242972
2.1106631755828857,-0.02839869260787964,-0.4770536422729492,0.15909099578857422,-2.843747138977051,-0.34394848346710205,-0.007057572714984417,0.7596350605092019,0.8606440393810706,-0.6931704717302686
2.119860887527466,-0.029256761074066162,-0.4887707233428955,0.21627578139305115,-3.394376039505005,-0.4720799922943115,-0.02827306091785431,0.7387153718291524,0.8348252754096449,-0.6612298196918317
2.1299450397491455,-0.025626718997955322,-0.46926015615463257,0.259027898311615,-3.6468913555145264,-0.6100512146949768,0.11407529562711716,0.7147581847117717,0.806140321765993,-0.6262394895856886
2.139878988265991,-0.006776750087738037,-0.3079541325569153,0.26646745204925537,-3.666407585144043,-0.7515230178833008,0.3154487907886505,0.6904912422084875,0.775879662694666,-0.5899908702579523
2.150007963180542,0.021425604820251465,-0.12772250175476074,0.22677159309387207,-3.5082666873931885,-0.9201799631118774,0.4429377615451813,0.6670765218998217,0.7453145967329299,-0.5545477664253617
2.1602890491485596,0.06834238767623901,-0.06161445379257202,0.1747206449508667,-3.364333391189575,-1.1699455976486206,0.562796413898468,0.6448453969205385,0.7143062357294553,-0.5209217133246019
2.169901132583618,0.1265818476676941,-0.033909499645233154,0.13311833143234253,-3.510310173034668,-1.3624376058578491,0.6701787710189819,0.6226270867196892,0.6819234536382903,-0.48777057589912187
2.179939031600952,0.14456695318222046,-0.11037218570709229,0.06257843971252441,-4.08678674697876,-1.4635354280471802,0.6845141053199768,0.5971786111838319,0.6477199925299059,-0.4527820238476398
2.189913034439087,0.13746395707130432,-0.32388126850128174,0.03375899791717529,-4.908709526062012,-1.5068501234054565,0.6027079224586487,0.5646046144209141,0.6119282165948551,-0.41478932999156193
2.200032949447632,0.11053004860877991,-0.4120439887046814,0.08886092901229858,-5.80295467376709,-1.4566447734832764,0.4435940980911255,0.5231282553799599,0.5761781668054772,-0.37459125209515254
2.2120420932769775,0.06582891941070557,-0.3809170126914978,0.13148516416549683,-6.657533168792725,-1.3631105422973633,0.18712127208709717,0.47193271845405266,0.5426085789645418,-0.3338536123928541
2.2200429439544678,0.033484816551208496,-0.34461966156959534,0.19217228889465332,-7.326669692993164,-1.231923222541809,-0.07907386869192123,0.4115103926035999,0.5126575563642825,-0.29421000971177563
2.231132984161377,0.009343534708023071,-0.2625144422054291,0.2675861120223999,-7.764754295349121,-1.1962519884109497,-0.410844624042511,0.34402407551964603,0.4869888239125305,-0.2575325481933697
2.240208864212036,-0.03120887279510498,-0.11610016226768494,0.366005539894104,-8.15557861328125,-1.318097472190857,-0.6760321855545044,0.27059780697517866,0.4645543707710538,-0.22439285538522716
2.2510900497436523,-0.037472307682037354,0.04392436146736145,0.48996978998184204,-8.518001556396484,-1.4589643478393555,-0.9640485644340515,0.19184281454953583,0.44375735854079296,-0.19436255081685128
2.2616488933563232,-0.016568779945373535,0.19636836647987366,0.5128002762794495,-8.567420959472656,-1.7909270524978638,-1.0634503364562988,0.10976622831886698,0.423494289815851,-0.1673526098568518
2.270318031311035,0.01882171630859375,0.3328573405742645,0.5303177833557129,-8.5166597366333,-2.1985766887664795,-1.0526485443115234,0.027089884642930967,0.4018225943115957,-0.14270292098506374
2.2802889347076416,0.04922240972518921,0.4595172703266144,0.5786744952201843,-8.208295822143555,-2.5070629119873047,-0.9447909593582153,-0.05424213197624264,0.3784908336385137,-0.12010304840076805
2.2902848720550537,0.033374279737472534,0.5408153533935547,0.5246641635894775,-7.755339622497559,-2.7389273643493652,-0.777164101600647,-0.13196096170027857,0.35406674119717546,-0.09941632135707423
2.3003199100494385,-0.020255565643310547,0.5041708946228027,0.43224602937698364,-7.684054374694824,-2.6794209480285645,-0.563503086566925,-0.20661606421067089,0.32982959445046434,-0.07983853355364309
2.310460090637207,-0.06901988387107849,0.3882782459259033,0.3153126835823059,-7.123978137969971,-2.726614475250244,-0.381344735622406,-0.2788974609628229,0.3076586759703951,-0.060170478173077004
2.320141077041626,-0.09679257869720459,0.18764132261276245,0.16439485549926758,-7.116753101348877,-2.32924222946167,-0.39812207221984863,-0.34796350410976457,0.287838244276592,-0.042141853218745404
2.330151081085205,-0.11487950384616852,0.042004793882369995,0.08751624822616577,-6.952706813812256,-2.1010241508483887,-0.39907947182655334,-0.4168468091497619,0.2719757619362221,-0.025332750974135863
2.3400819301605225,-0.12099999189376831,0.031021445989608765,0.10359960794448853,-6.699686050415039,-1.888578176498413,-0.41613706946372986,-0.48385408428746923,0.25883759092679415,-0.009737085106170303
2.3502838611602783,-0.1079232394695282,-0.033674418926239014,0.1366795301437378,-6.337236404418945,-1.7255334854125977,-0.49610647559165955,-0.5482835350141031,0.24750224477709004,0.004002412784521855
2.360442876815796,-0.11141151189804077,-0.026442229747772217,0.15937232971191406,-5.904046535491943,-1.5591700077056885,-0.5228222608566284,-0.6090968950880589,0.23741235792862372,0.01565924092898962
2.369997978210449,-0.12144733965396881,0.05534583330154419,0.16906297206878662,-5.276019096374512,-1.3738595247268677,-0.5054382085800171,-0.6648112172399187,0.22855277994462286,0.025476979713902663
2.3804800510406494,-0.1299578994512558,0.12108904123306274,0.15503966808319092,-4.539287090301514,-1.1927528381347656,-0.435475617647171,-0.7138842886652613,0.2209349227706259,0.033689197014050314
2.3901960849761963,-0.12536369264125824,0.188398540019989,0.1329464316368103,-3.6825108528137207,-1.0398578643798828,-0.3143417239189148,-0.7548330435110732,0.2144763431125091,0.04070143317446686
2.4002749919891357,-0.10895761847496033,0.22924315929412842,0.10238099098205566,-2.7825589179992676,-0.8553985357284546,-0.16268108785152435,-0.7871771149586492,0.20932824876225786,0.04697897973262534
2.4104180335998535,-0.0909435898065567,0.22342199087142944,0.06053346395492554,-1.828079104423523,-0.7245454788208008,-0.02825084887444973,-0.8097772236209262,0.2054368963836794,0.052484271558049043
2.420192003250122,-0.07836225628852844,0.1743907928466797,0.03969740867614746,-1.0487288236618042,-0.6213274598121643,0.006731423083692789,-0.8238717999800764,0.20169491591207658,0.056637556034796
2.4302480220794678,-0.07365868985652924,0.10029333829879761,0.04570209980010986,-0.4377189874649048,-0.5008098483085632,0.05011831223964691,-0.830907127519742,0.19792501954350503,0.05913649269916217
2.44024920463562,-0.07051140069961548,0.06317371129989624,0.03347355127334595,-0.07162928581237793,-0.37914079427719116,0.08755958825349808,-0.8331883857143529,0.19478977475546683,0.06086862830336222
2.450277090072632,-0.0685063898563385,0.06647747755050659,0.04684603214263916,0.1104867234826088,-0.24256081879138947,0.11022282391786575,-0.8326776475242178,0.19265934580811706,0.062205915151086616
2.460402011871338,-0.06953409314155579,0.050720810890197754,0.04262745380401611,0.11580128222703934,-0.09883379191160202,0.14004260301589966,-0.8312417861128988,0.19203728823863078,0.0636831050840715
2.4703218936920166,-0.07465007901191711,0.05117940902709961,0.019235968589782715,0.03969133272767067,0.0345197394490242,0.1540452390909195,-0.8301996742971833,0.1931583670067213,0.06563294826581946
2.4803268909454346,-0.07640276849269867,0.03235745429992676,-0.010725617408752441,0.004657898563891649,0.17112299799919128,0.1555243581533432,-0.8296913924122289,0.19581096265391737,0.06782017912434896
2.490341901779175,-0.07466951012611389,0.02435213327407837,-0.04265010356903076,0.025245198979973793,0.28074881434440613,0.14790000021457672,-0.829299055796764,0.1996984863145238,0.0699946009824269
2.500415086746216,-0.07038925588130951,0.0552104115486145,-0.06068390607833862,0.15728983283042908,0.35945895314216614,0.13603636622428894,-0.8281626479118424,0.20427275257592747,0.07180399148621097
2.5109541416168213,-0.057314395904541016,0.06694096326828003,-0.0631554126739502,0.31079524755477905,0.3967842161655426,0.11343890428543091,-0.8256214820465888,0.20887711959449035,0.07290424742001171
2.5204432010650635,-0.04536506533622742,0.07830363512039185,-0.0712815523147583,0.46797966957092285,0.4331047236919403,0.10543110221624374,-0.8215874404004857,0.21329182462685478,0.07326133069470488
2.5304360389709473,-0.03568452596664429,0.09938782453536987,-0.08547943830490112,0.5986828207969666,0.4591802656650543,0.09837052971124649,-0.8161417849839521,0.21758763262735328,0.07302841308870366
2.5406038761138916,-0.031661808490753174,0.10940849781036377,-0.08680301904678345,0.6954094767570496,0.4513518214225769,0.07957777380943298,-0.8095999846290604,0.22162550914115567,0.07226625755889432
2.552480936050415,-0.03487539291381836,0.0950620174407959,-0.06834214925765991,0.8086247444152832,0.42710399627685547,0.028273839503526688,-0.8021348027033876,0.224844613974846,0.07062839429508823
2.561475992202759,-0.04193367063999176,0.06121683120727539,-0.052576661109924316,0.8702100515365601,0.3958568871021271,-0.02223934791982174,-0.7938964380988961,0.22704187758397765,0.06795041532013217
2.570472002029419,-0.042037174105644226,0.05947756767272949,-0.05567467212677002,0.8830960392951965,0.37243786454200745,-0.051385778933763504,-0.7854007983934593,0.22849917059565067,0.06459207055093213
2.5805881023406982,-0.03538350760936737,0.06883633136749268,-0.06181520223617554,0.8467570543289185,0.3533354103565216,-0.049149949103593826,-0.7770556085595147,0.2296795110733147,0.061096286451143726
2.590569019317627,-0.028016671538352966,0.07278656959533691,-0.06258511543273926,0.7743901610374451,0.33276090025901794,-0.03683895617723465,-0.7692337416940999,0.23089462293307145,0.05791232614844101
2.6006171703338623,-0.029419630765914917,0.0605473518371582,-0.0610576868057251,0.6503900289535522,0.314033180475235,-0.0236038975417614,-0.7623141744079847,0.23226063013179182,0.05522015438181115
2.6117520332336426,-0.03456823527812958,0.03066563606262207,-0.06305748224258423,0.45459097623825073,0.30845651030540466,-0.004740462638437748,-0.7569338951572868,0.23401949689853832,0.05325647333875978
2.620651960372925,-0.03949250280857086,0.0030306577682495117,-0.06536519527435303,0.21660315990447998,0.2950649559497833,0.013883022591471672,-0.7536661872690892,0.23635797761604366,0.05224594333567207
2.6306779384613037,-0.04234154522418976,-0.02635371685028076,-0.0541192889213562,0.04578321427106857,0.28994154930114746,0.024720225483179092,-0.7523849477630034,0.23918098741316376,0.05209290169659177
2.6405789852142334,-0.048978596925735474,-0.05085313320159912,-0.043165385723114014,-0.05971824750304222,0.27331891655921936,0.03194207698106766,-0.7524182119529574,0.24230855867719137,0.052506572643887334
2.650502920150757,-0.0538775771856308,-0.03817325830459595,-0.03755784034729004,-0.07978303730487823,0.22877967357635498,0.02708420529961586,-0.7530875323754435,0.24528821335510395,0.05317050746720293
2.6607720851898193,-0.05128759145736694,-0.02856135368347168,-0.030718326568603516,-0.03283211961388588,0.17676907777786255,0.025185106322169304,-0.7535911284846745,0.24767770674999154,0.053701319191261226
2.670525074005127,-0.047512397170066833,-0.022807836532592773,-0.03752809762954712,0.0385240837931633,0.1312580406665802,0.03034045360982418,-0.7535061754127822,0.24946191364830392,0.05406659427822142
2.680634021759033,-0.0444597452878952,-0.004974663257598877,-0.0465543270111084,0.09843306243419647,0.09314128011465073,0.03410392627120018,-0.7527591974908397,0.2507281093140938,0.0542711191897259
2.690553903579712,-0.04201112687587738,-0.00017410516738891602,-0.04489338397979736,0.16976024210453033,0.06929187476634979,0.03177046403288841,-0.7513674520166953,0.2515271437637435,0.054255502966924135
2.7006850242614746,-0.040943443775177,-0.005566239356994629,-0.03669118881225586,0.21662506461143494,0.046949245035648346,0.029611120000481606,-0.7493934407369127,0.2519375870735505,0.05399913257467427
2.710836172103882,-0.04234841465950012,0.003473520278930664,-0.02835822105407715,0.2392270416021347,0.0290346909314394,0.024194249883294106,-0.7470943003874627,0.2520347139961005,0.053586396590576645
2.720618963241577,-0.04226557910442352,0.004230678081512451,-0.014557123184204102,0.22314396500587463,0.016776029020547867,0.021321125328540802,-0.7447752865794706,0.2519029437707577,0.053082593423472754
2.7306439876556396,-0.041658103466033936,-0.0019350647926330566,-0.0033859610557556152,0.18402187526226044,0.008657647296786308,0.019310172647237778,-0.7427449353071808,0.25174751277808455,0.052667196038143294
2.7406160831451416,-0.0396847128868103,0.00026541948318481445,0.006024718284606934,0.14199963212013245,-0.005413918290287256,0.01327614113688469,-0.741105348004082,0.2515464875683686,0.052330862073971175
2.750643014907837,-0.04046773910522461,0.001809835433959961,0.014077067375183105,0.07537079602479935,-0.015201568603515625,0.006004380062222481,-0.7400259106689666,0.25125708507884115,0.052074852422329954
2.7607381343841553,-0.037188172340393066,0.002128422260284424,0.015064835548400879,0.020349591970443726,-0.012503786012530327,0.0017070503672584891,-0.7394706832538909,0.25051026705859647,0.05161059416881766
2.7707719802856445,-0.03410685062408447,0.0030826330184936523,0.012379884719848633,-0.001214288524352014,-0.007813692092895508,-0.0035079517401754856,-0.7393357007002677,0.24990461752142606,0.05125451126213194
2.780794858932495,-0.03611843287944794,0.012522518634796143,0.009930729866027832,0.01485284510999918,-0.001803870778530836,-0.010464235208928585,-0.7392189889944715,0.24927723718926084,0.05080830454291616
2.790747880935669,-0.03583703935146332,0.02180337905883789,0.005368232727050781,0.040671393275260925,0.001922158058732748,-0.014205177314579487,-0.738966423076903,0.24859155138404543,0.05021102732104065
2.800891160964966,-0.03351913392543793,0.02407968044281006,0.0056615471839904785,0.06759507209062576,0.007692296057939529,-0.026573536917567253,-0.7385293379817487,0.2478751830094311,0.04945035406569074
2.810934066772461,-0.03248593211174011,0.025356411933898926,0.008230328559875488,0.0868007242679596,0.017173947766423225,-0.04013115540146828,-0.7379172895482176,0.2471022819261455,0.048466841952349474
2.8207828998565674,-0.03213658928871155,0.027751028537750244,0.011157512664794922,0.08181198686361313,0.01545434445142746,-0.05432116985321045,-0.7373000634715074,0.24630415391925997,0.04731948905579705
2.830798864364624,-0.026929736137390137,0.027644813060760498,0.02106088399887085,0.08484053611755371,0.015263929963111877,-0.06951690465211868,-0.7367840290011526,0.2453742574477862,0.045990911156498365
2.8407480716705322,-0.022241994738578796,0.01905304193496704,0.030863523483276367,0.0702076107263565,0.013563456945121288,-0.08101706951856613,-0.7363735396539962,0.2443636839383518,0.04452571947850679
2.8507049083709717,-0.020712226629257202,0.03130084276199341,0.02984720468521118,0.06224129721522331,0.012934684753417969,-0.07915445417165756,-0.7360508655531899,0.24337308483182893,0.04307353738239614
2.860987901687622,-0.019183456897735596,0.03374350070953369,0.02373969554901123,0.051556963473558426,0.013196028769016266,-0.08001939952373505,-0.7358844733799151,0.2423773195492751,0.04165223634937789
2.8708510398864746,-0.01911798119544983,0.017788171768188477,0.022818148136138916,0.05845188722014427,0.023737352341413498,-0.0866280347108841,-0.7357537409692952,0.24143025850772704,0.040198932515250536
2.8809800148010254,-0.022900119423866272,0.014962077140808105,0.021503686904907227,0.08342799544334412,0.02960425242781639,-0.08675501495599747,-0.7355110298336087,0.24052570969990394,0.038655781425682566
2.8908910751342773,-0.023129627108573914,0.029687047004699707,0.016626060009002686,0.10790696740150452,0.032166481018066406,-0.08353764563798904,-0.7349963522590648,0.23962890633915282,0.03706718485059387
2.9018208980560303,-0.018163174390792847,0.02439701557159424,0.01420682668685913,0.1237119510769844,0.036258116364479065,-0.08322706818580627,-0.7343319036490301,0.23875272350299345,0.03545015459617838
2.9112770557403564,-0.015714719891548157,0.009873270988464355,0.013570189476013184,0.14223609864711761,0.04332002252340317,-0.084612175822258,-0.7335270473605444,0.2379744267990896,0.03382218961286246
2.9208459854125977,-0.01896074414253235,0.007255971431732178,0.014970719814300537,0.16204972565174103,0.045768264681100845,-0.08924213796854019,-0.7325316948754224,0.23724469406796847,0.03213151658250779
2.9309470653533936,-0.01938702166080475,0.00924527645111084,0.01765275001525879,0.17453409731388092,0.04470992460846901,-0.0913660079240799,-0.7314779869530728,0.23646615060444312,0.030358591028452158
2.940930128097534,-0.016558021306991577,-0.0002256631851196289,0.021549880504608154,0.19287672638893127,0.045843854546546936,-0.08516035974025726,-0.7302215549632597,0.23568085330292618,0.028560808870216055
2.950921058654785,-0.014619141817092896,-0.0033132433891296387,0.02359718084335327,0.18790674209594727,0.04308934509754181,-0.07939755171537399,-0.728816366580605,0.23493625478413468,0.02683328384773926
2.961618185043335,-0.014653280377388,0.0036886930465698242,0.024081826210021973,0.16606472432613373,0.042663149535655975,-0.07304063439369202,-0.7275104259819617,0.23420060137927967,0.025194635733302197
2.971079111099243,-0.014542415738105774,-0.011515498161315918,0.02012169361114502,0.12404350191354752,0.05352618545293808,-0.06255550682544708,-0.726559187459079,0.23365745453035558,0.02377671611282809
2.9811530113220215,-0.014983713626861572,-0.025904357433319092,0.01797318458557129,0.06736387312412262,0.059547148644924164,-0.05911374092102051,-0.7260283547432341,0.23341775104599452,0.022624327345718953
2.991050958633423,-0.01749683916568756,-0.02538442611694336,0.019347310066223145,0.020752429962158203,0.06747511029243469,-0.05185502767562866,-0.7258839821483264,0.23342293734043104,0.021719031762864473
3.001224994659424,-0.016669288277626038,-0.022505581378936768,0.017480194568634033,-0.008669325150549412,0.07171472907066345,-0.04145091399550438,-0.7260743237212701,0.2336260177402558,0.021046632838882393
3.0119431018829346,-0.012432128190994263,-0.026591479778289795,0.016826868057250977,-0.013669677078723907,0.07502877712249756,-0.032046493142843246,-0.7263962736994855,0.2339943856592444,0.020548227165386557
3.0210700035095215,-0.01087278127670288,-0.020882010459899902,0.013470888137817383,0.004317529499530792,0.07326935231685638,-0.021617766469717026,-0.7265968580875162,0.23447355196651753,0.020178678283704007
3.0310399532318115,-0.011174872517585754,-0.007987618446350098,0.007941007614135742,0.04035009816288948,0.06684474647045135,-0.006465445272624493,-0.7264733865169759,0.2349678308899846,0.01990926562324484
3.0410730838775635,-0.008650079369544983,-0.005646407604217529,0.004429876804351807,0.07015646994113922,0.06548377871513367,0.002665948122739792,-0.7260155081442387,0.23544823245008895,0.019671853751091203
3.0510261058807373,-0.006404995918273926,-0.00705331563949585,0.0027806758880615234,0.0800197497010231,0.06389999389648438,0.014981736429035664,-0.7252649561421133,0.23595676598259938,0.0195154752003755
3.061168909072876,-0.006142482161521912,-0.005077779293060303,0.004635751247406006,0.07522447407245636,0.06187745928764343,0.02321798726916313,-0.7244605089171411,0.23651479284719382,0.019485579506125297
3.0711071491241455,-0.009553685784339905,-0.012112200260162354,0.008254706859588623,0.0704110786318779,0.06642214208841324,0.030023427680134773,-0.7236661897886089,0.2371531698150533,0.019543670857533734
3.0810980796813965,-0.012301146984100342,-0.013856470584869385,0.006646454334259033,0.04633477330207825,0.06402920186519623,0.032596949487924576,-0.7230212795927119,0.23789613235696333,0.019723895184682913
3.091110944747925,-0.00929422676563263,0.0013995766639709473,0.0061699748039245605,0.03240484371781349,0.05513611063361168,0.03466729074716568,-0.7225569294672365,0.23865382444478453,0.020003131133932952
3.1011080741882324,-0.0038777142763137817,0.006069600582122803,0.0037056803703308105,0.03049350716173649,0.0446731299161911,0.03332489728927612,-0.7221694070348222,0.23932471135719555,0.020316436658291907
3.1114180088043213,-0.002889573574066162,0.004869282245635986,0.0017118453979492188,0.03140510991215706,0.038257040083408356,0.03127559274435043,-0.7218169094773553,0.23988182544995051,0.02059837017698088
3.1211321353912354,-0.007208898663520813,0.009657740592956543,-0.00023347139358520508,0.03274860233068466,0.032877277582883835,0.029976719990372658,-0.7214547851137277,0.24037028364959034,0.020848540632969172
3.131190061569214,-0.007872089743614197,0.019295573234558105,0.004515290260314941,0.0504266656935215,0.02310347557067871,0.02161386050283909,-0.7209950766311366,0.2407201437234458,0.02099941574393846
3.1411640644073486,-0.007141903042793274,0.02339351177215576,0.008043050765991211,0.06065996363759041,0.006583178415894508,0.015028714202344418,-0.7204352979407002,0.2408324986710809,0.02102383590255002
3.151236057281494,-0.007297903299331665,0.02185511589050293,0.007932722568511963,0.06732719391584396,-0.0028279004618525505,0.010478436946868896,-0.7197820603301912,0.24071738120979422,0.020915348463023484
3.1614890098571777,-0.013890966773033142,0.01562631130218506,0.007964611053466797,0.07323304563760757,-0.0020028529688715935,0.007144213188439608,-0.7190764484255437,0.24050478327005959,0.020736734239912822
3.171319007873535,-0.01880320906639099,0.01656132936477661,0.009781718254089355,0.09131910651922226,-0.003962939605116844,0.009933074936270714,-0.7183206776052425,0.24029950948293205,0.020543358474349738
3.181236982345581,-0.021541938185691833,0.018798530101776123,0.010723650455474854,0.10482329875230789,-0.011247395537793636,0.005713616497814655,-0.7174168413171265,0.24005374255348805,0.020307905804265187
3.191226005554199,-0.02234974503517151,0.013285160064697266,0.012694478034973145,0.10699537396430969,-0.015783824026584625,0.0051434338092803955,-0.71643151013358,0.23971738412991164,0.02002501733035995
3.2013981342315674,-0.024153903126716614,0.010143041610717773,0.011739373207092285,0.10003882646560669,-0.014855889603495598,0.0060975379310548306,-0.7154996113967552,0.2393369461599848,0.01973662939398905
3.2117180824279785,-0.02404700219631195,0.00989985466003418,0.009582936763763428,0.07595054060220718,-0.020375290885567665,0.005857853218913078,-0.71477074126893,0.23897446940024875,0.01950020530753195
3.2213051319122314,-0.021354451775550842,0.004719197750091553,0.009889364242553711,0.042400751262903214,-0.02467740699648857,0.003272776026278734,-0.714357024171371,0.23864887383329428,0.01936488529457319
3.231351137161255,-0.019439086318016052,-0.0018218159675598145,0.010764658451080322,0.005124484654515982,-0.023443032056093216,0.0024732952006161213,-0.7143100223544433,0.23835782849349493,0.01931478093107329
3.2413129806518555,-0.01906445622444153,-0.0030261874198913574,0.0119704008102417,-0.018911177292466164,-0.024968666955828667,0.0046609751880168915,-0.7145307982118547,0.2380811082889563,0.01933818395429604
3.2514731884002686,-0.016687467694282532,-0.00205838680267334,0.014853894710540771,-0.02491047978401184,-0.031282756477594376,0.003084384137764573,-0.7149060260018193,0.2377696531113667,0.019387293835819754
3.261702060699463,-0.013867124915122986,0.0019580721855163574,0.018804609775543213,-0.008765298873186111,-0.04289457947015762,0.0021481229923665524,-0.7152248476514725,0.23732031879187973,0.01938803067771818
3.271449089050293,-0.011244013905525208,0.008386492729187012,0.017959892749786377,0.010309591889381409,-0.04782622307538986,0.009889932349324226,-0.7153401786336615,0.23676422397112518,0.019362533531032892
3.2818238735198975,-0.01161472499370575,0.013170599937438965,0.013353884220123291,0.029956147074699402,-0.04426056146621704,0.015839166939258575,-0.7152283633351119,0.23620637416357523,0.019363733239820567
3.2915499210357666,-0.015169709920883179,0.007411837577819824,0.01119011640548706,0.040512651205062866,-0.039093226194381714,0.018650399520993233,-0.7149536644825418,0.23571207252595816,0.019375121301298405
3.303602933883667,-0.01886245608329773,0.004375815391540527,0.010395944118499756,0.049433909356594086,-0.03351852297782898,0.018255028873682022,-0.7145489580139349,0.23527476648217802,0.0193841716699096
3.3118770122528076,-0.020054608583450317,0.0046575069427490234,0.011826932430267334,0.05600392818450928,-0.027665961533784866,0.019958386197686195,-0.7140348560125195,0.23490071014719247,0.019385687733949022
3.321565866470337,-0.020137086510658264,0.0032588839530944824,0.013860762119293213,0.06057952344417572,-0.02214660495519638,0.026684945449233055,-0.7134628019927102,0.23460385400604078,0.019418043616965402
3.3316810131073,-0.018923550844192505,0.0017793774604797363,0.013014793395996094,0.06674500554800034,-0.020545244216918945,0.026732349768280983,-0.7128567135127929,0.23440536558179462,0.019501734859319324
3.3414809703826904,-0.018268048763275146,0.003816962242126465,0.011452198028564453,0.07062521576881409,-0.022029025480151176,0.027181729674339294,-0.7122409519833592,0.23423776484916436,0.019606147005438588
3.3517420291900635,-0.016222745180130005,0.0019292235374450684,0.01394510269165039,0.08897838741540909,-0.024492183700203896,0.024668771773576736,-0.711549998445299,0.23401184265500283,0.019663311062278904
3.3616421222686768,-0.01583079993724823,-0.0005568265914916992,0.01885002851486206,0.10082485526800156,-0.03249143064022064,0.017827589064836502,-0.7107227109810146,0.2336622356144364,0.019624339879360235
3.3715531826019287,-0.01822841167449951,0.0017792582511901855,0.01973569393157959,0.11086390912532806,-0.03982551023364067,0.015335404314100742,-0.7097548110764773,0.2331567478817738,0.019459456901992234
3.3813679218292236,-0.016308844089508057,0.008385896682739258,0.016213655471801758,0.12712804973125458,-0.04668718948960304,0.01838323287665844,-0.7086494735894516,0.2325226614710281,0.019238933746175444
3.391470193862915,-0.013188779354095459,0.01172405481338501,0.011851727962493896,0.1337079256772995,-0.054711028933525085,0.020534001290798187,-0.7074488269717442,0.23179500936984773,0.01901456757929979
3.401496171951294,-0.015002444386482239,0.010560989379882812,0.006207883358001709,0.1352880746126175,-0.05865854397416115,0.022516511380672455,-0.706209215995383,0.23102729451283952,0.018807867316492918
3.4116618633270264,-0.015171125531196594,0.009096622467041016,0.0031636953353881836,0.12691429257392883,-0.06658490747213364,0.022650733590126038,-0.7049859042055214,0.2302483682969449,0.018646255614195945
3.4214231967926025,-0.014669403433799744,0.007690608501434326,0.00757908821105957,0.10401496291160583,-0.0764143243432045,0.02333356812596321,-0.7039273697711437,0.22940278532742428,0.01852901451619493
3.4315199851989746,-0.012121841311454773,0.004357099533081055,0.014622211456298828,0.07411511987447739,-0.08741584420204163,0.019942566752433777,-0.7031362723557257,0.2285281579280066,0.018495918792152052
3.44150710105896,-0.011136561632156372,0.00044667720794677734,0.016732335090637207,0.03969214856624603,-0.09802201390266418,0.016153527423739433,-0.7026617897663516,0.22758133183731843,0.018528097533761074
3.451629877090454,-0.010114774107933044,-0.005065858364105225,0.01891326904296875,0.010416551493108273,-0.10739234834909439,0.01624913513660431,-0.7025272446808816,0.22657079554282253,0.018619444099235893
3.4618289470672607,-0.008734285831451416,-0.0030535459518432617,0.017845630645751953,-0.004041749984025955,-0.11443827301263809,0.02052723802626133,-0.7026095729039834,0.22555133151569487,0.018812497951720516
3.471562147140503,-0.008524373173713684,-0.0031628012657165527,0.014752626419067383,-0.0135140810161829,-0.12141415476799011,0.026798715814948082,-0.7027727681267664,0.2245623547951235,0.01913131009703895
3.481827974319458,-0.009826764464378357,-0.005215644836425781,0.012692689895629883,-0.008781110867857933,-0.12443968653678894,0.03492220863699913,-0.7029233904307383,0.22355260647722264,0.019519773457912
3.491563081741333,-0.008364096283912659,-0.005727708339691162,0.012478888034820557,-0.010074342601001263,-0.12829381227493286,0.04580574855208397,-0.7029946737188596,0.22256431447031672,0.020007906489218207
3.501535177230835,-0.006506219506263733,0.0002759099006652832,0.015894293785095215,-0.016080202534794807,-0.14031940698623657,0.0520206093788147,-0.7030856220800774,0.22160245786954585,0.020645813705294294
