timestamp,accel_x,accel_y,accel_z,rotation_x,rotation_y,rotation_z, pitch,roll,yaw
0.03903317451477051,0.0017305761575698853,-0.029075026512145996,0.0025352835655212402,0.011630021035671234,-0.009416870772838593,0.00031070178374648094,-0.09083001250708592,0.07084020067225853,0.003220766197824205
0.052889108657836914,0.0016335844993591309,-0.028841815888881683,0.00568234920501709,0.014359294436872005,-0.008032560348510742,2.2920547053217888e-05,-0.09068776443651543,0.0707526009123663,0.0032246440164393833
0.06554698944091797,-8.445233106613159e-05,-0.027598798274993896,0.005774080753326416,0.009766407310962677,-0.0010172617621719837,0.001306031597778201,-0.0905581049769283,0.0706994368677575,0.0032236358553282577
0.07405519485473633,-0.0012718066573143005,-0.032180383801460266,0.0035825371742248535,0.003230377333238721,0.003507271409034729,0.001821779296733439,-0.09048546962723301,0.07071148485334731,0.0032327179410423274
0.07712507247924805,-0.0016298070549964905,-0.0334196463227272,0.004955649375915527,0.00011048419401049614,0.002973041497170925,0.001012444612570107,-0.09045814022973714,0.07074912011162143,0.0032597256102732406
0.08297920227050781,-0.0018819570541381836,-0.03202178329229355,0.008389472961425781,0.0020270447712391615,0.000806781928986311,0.0036087604239583015,-0.0904334641011329,0.07077237626893362,0.0032801610308122405
0.08723807334899902,0.00011290609836578369,-0.030522771179676056,0.009093403816223145,0.00569581612944603,0.00611233152449131,0.003718748688697815,-0.0903838312485366,0.0708068493085743,0.0033111905348673157
0.09578704833984375,0.0016506090760231018,-0.02702341228723526,0.00694197416305542,0.003857768140733242,0.007195083890110254,0.0032937617506831884,-0.09033275662447877,0.07087141510145614,0.003339680658275515
0.10470294952392578,0.0012017861008644104,-0.025558404624462128,0.006896674633026123,0.0051163784228265285,0.00481048971414566,0.002211719285696745,-0.09028662363064108,0.07092355186317127,0.0033763141222842943
0.11475515365600586,0.0015014037489891052,-0.027373865246772766,0.0068402886390686035,0.012657051905989647,0.006420547608286142,0.005048784893006086,-0.09019436641195502,0.0709746379020144,0.00339859541577118
0.12476396560668945,-0.0005011111497879028,-0.027203530073165894,0.006403744220733643,0.012946270406246185,0.011305317282676697,0.004613623954355717,-0.09005396672636351,0.07106952396860258,0.003436692526968959
0.1354069709777832,-0.002216927707195282,-0.02627510577440262,0.0068975090980529785,0.01455680187791586,0.00956844910979271,0.004929741378873587,-0.08990313524835716,0.07118295338268453,0.0034733965282776813
0.14479613304138184,-0.00183916836977005,-0.028096012771129608,0.007605910301208496,0.012506700120866299,0.009233156219124794,0.0025542019866406918,-0.08975506163810008,0.07127789668411998,0.003510222887119862
0.1548001766204834,0.0008484572172164917,-0.027180805802345276,0.008403658866882324,0.007007689215242863,0.005006054416298866,0.002926458604633808,-0.08964814802565124,0.07135191071242698,0.0035329791339083856
0.1650841236114502,0.0012601539492607117,-0.028409533202648163,0.008815765380859375,-0.0008113523945212364,0.005352531559765339,-0.0009106239303946495,-0.08961024295716666,0.07139804643644289,0.003538521972863226
0.17505311965942383,0.00033892691135406494,-0.03227793425321579,0.006659567356109619,-0.005552112124860287,0.0009283106774091721,-0.0016403831541538239,-0.08963352099281169,0.07143464368634973,0.003526174680358944
0.18556594848632812,0.0008773356676101685,-0.030151844024658203,0.005815625190734863,-0.0060791512951254845,-0.0012935646809637547,-0.00010879931505769491,-0.08968966318821506,0.07143062762150246,0.003521735552090086
0.19498825073242188,0.00037160515785217285,-0.02757197618484497,0.004356086254119873,-0.0006829544436186552,-0.003121380228549242,-0.0010671645868569613,-0.08945872510904014,0.07143134948438933,0.0035137728036331558
0.20485615730285645,-0.0008151158690452576,-0.027720041573047638,0.002519547939300537,0.0019162907265126705,-0.0011924528516829014,0.003598160808905959,-0.0891937451276274,0.07141080877299362,0.00352492601151141
0.21484112739562988,-0.00379374623298645,-0.024927332997322083,0.002850472927093506,0.006050349213182926,0.0043219770304858685,0.0034782658331096172,-0.0889023242740924,0.07141213381730709,0.003553967357388255
0.22515106201171875,-0.00582113116979599,-0.02602919191122055,0.0032118558883666992,0.01164138875901699,0.010519951581954956,0.004660975653678179,-0.08855322817481534,0.07148465143779618,0.0035872356011096037
0.23555707931518555,-0.007441803812980652,-0.026260651648044586,0.0039830803871154785,0.013072054833173752,0.011834976263344288,0.007290527690201998,-0.0881728468501002,0.07162371672079598,0.003641137197362708
0.24527406692504883,-0.00722513347864151,-0.02650495618581772,0.004569351673126221,0.009523659944534302,0.011658142320811749,0.006299831438809633,-0.08780537310204035,0.0717718955099838,0.003708826196349473
0.2551121711730957,-0.004999615252017975,-0.025224462151527405,0.0039045214653015137,0.0018305203411728144,0.009417181834578514,0.004344219341874123,-0.08745432580857448,0.0718948182579779,0.0037618907091343757
0.26491498947143555,-0.002914994955062866,-0.024438612163066864,0.004056692123413086,-0.005783990025520325,0.003940124064683914,-0.0013733215164393187,-0.08721688690806817,0.07197598004215601,0.0037765803028973924
0.274935245513916,-3.758817911148071e-05,-0.029211126267910004,0.004312753677368164,-0.012014571577310562,-0.004156196024268866,-0.00927731767296791,-0.08707552771129404,0.07198162712200283,0.0037297866192858736
0.2854762077331543,0.0021746009588241577,-0.02681513875722885,0.004310965538024902,-0.014390377327799797,-0.007157578598707914,-0.011335674673318863,-0.08698327566179921,0.0719046080478269,0.0036314970693300795
0.2949972152709961,0.0008612051606178284,-0.024286285042762756,0.005697965621948242,-0.01369725726544857,-0.006373722106218338,-0.01278507336974144,-0.08692612480745691,0.07178254584078925,0.0035090735854684707
0.3050410747528076,0.0003267452120780945,-0.022268034517765045,0.004036605358123779,-0.006162375211715698,-0.006098883226513863,-0.014937439933419228,-0.08683011783270529,0.07165948888439497,0.0033728309269536803
0.3149709701538086,-9.156763553619385e-06,-0.021542459726333618,0.0031312108039855957,0.0019658254459500313,-0.0030353604815900326,-0.015605360269546509,-0.08663788121927657,0.07153566651316201,0.003211881072256073
0.3250579833984375,-0.0006375834345817566,-0.02361360192298889,0.0032637715339660645,0.0035741087049245834,0.003394841914996505,-0.014123044908046722,-0.08638875432120847,0.07147552904569882,0.0030534504403132287
0.3358640670776367,-0.001429624855518341,-0.023328088223934174,0.004809260368347168,0.0022358365822583437,0.006607679650187492,-0.012048229575157166,-0.0861634358621323,0.07147270061556746,0.0029272332911195876
0.34517717361450195,-0.002650037407875061,-0.021443359553813934,0.008912086486816406,0.0004485892131924629,0.009561125189065933,-0.018368443474173546,-0.08595641134557018,0.07153256012023955,0.0027801671792597187
0.35520505905151367,-0.002145014703273773,-0.026488661766052246,0.011014103889465332,0.0009456516709178686,0.014046642929315567,-0.019832437857985497,-0.0857213044903833,0.0716524529301911,0.002586908344352375
0.36519908905029297,-0.0006010755896568298,-0.026177354156970978,0.011404812335968018,0.003238367149606347,0.01048626285046339,-0.019513390958309174,-0.08550074744655423,0.07178645830419146,0.0023823921398708338
0.37522315979003906,0.0012642592191696167,-0.02262992411851883,0.011693418025970459,0.007494564168155193,0.007365748286247253,-0.02359015680849552,-0.08526361026819085,0.07187334659847959,0.00215687408296703
0.3857259750366211,0.0015621185302734375,-0.020341068506240845,0.012214064598083496,0.01014813780784607,0.007143374532461166,-0.025488724932074547,-0.08501853824018034,0.0719252453993044,0.0018959586769167326
0.39530110359191895,-0.0002998635172843933,-0.020048685371875763,0.009681105613708496,0.005553053226321936,0.009381582960486412,-0.02442937158048153,-0.08478636069078245,0.07198565554789235,0.001633875507144913
0.40526723861694336,-0.0007684305310249329,-0.023822620511054993,0.007112562656402588,-0.00030909664928913116,0.012385362759232521,-0.023368101567029953,-0.0845923158015139,0.07207210621045332,0.0013866175204887256
0.4152712821960449,-0.0028695762157440186,-0.027008354663848877,0.006764888763427734,-0.0038810281548649073,0.013764702714979649,-0.019023261964321136,-0.08446644140763304,0.07217421911820462,0.001175693614673291
0.4252800941467285,-0.0023416951298713684,-0.027634307742118835,0.005106031894683838,-0.0017475697677582502,0.008760090917348862,-0.013503593392670155,-0.08434427890796045,0.0722564538111836,0.0010110918438553465
0.4362602233886719,-0.0013701915740966797,-0.026720479130744934,0.004601478576660156,0.004944087937474251,0.004979467019438744,-0.010659711435437202,-0.08413160040712854,0.07230630737756373,0.0008867193309168998
0.4456310272216797,0.0005724206566810608,-0.026250645518302917,0.0034439563751220703,0.0046250419691205025,0.002377292374148965,-0.004676386713981628,-0.08388979117759733,0.0723460979230837,0.0008027810890196198
0.4553079605102539,0.002127639949321747,-0.026807956397533417,-0.0008899569511413574,0.0023745873477309942,0.00017508026212453842,-0.0005963709554634988,-0.08369874608628483,0.07236146989775999,0.0007787782949142144
0.4653301239013672,0.0021196603775024414,-0.02680589258670807,-0.0026029348373413086,-0.0010222747223451734,-0.0009362567216157913,0.0010798225412145257,-0.08354355916406918,0.07238392144051736,0.0007890068810918511
0.4786641597747803,0.0013784617185592651,-0.02872604876756668,-0.0007734894752502441,0.00882859155535698,0.0017629454378038645,0.0036871107295155525,-0.0833726678105971,0.07239171874230381,0.0008130504369089111
0.4861941337585449,0.001524999737739563,-0.028001032769680023,0.0010883808135986328,0.025399046018719673,-0.005954895634204149,0.005796866957098246,-0.08299730315746463,0.0723955384520489,0.0008481152132947477
0.4954500198364258,0.002884611487388611,-0.020820416510105133,0.002696216106414795,0.03217319771647453,-0.01694975607097149,0.0016902191564440727,-0.08249832973900047,0.07225278244308705,0.0008590619733586469
0.5054061412811279,0.0060291290283203125,-0.018677808344364166,0.007662355899810791,0.02004222944378853,-0.017713550478219986,-0.0009947798680514097,-0.08203261925519673,0.07204924068899322,0.0008392161954936709
0.5154390335083008,0.007778480648994446,-0.021264798939228058,0.006489574909210205,-0.0023413049057126045,-0.008299276232719421,-0.0008716352167539299,-0.08175000795503813,0.07191485718881542,0.0008289367604700496
0.5287110805511475,0.003077082335948944,-0.027159005403518677,0.0049517154693603516,-0.023984547704458237,0.004953412339091301,-0.0020508829038590193,-0.0817084054093393,0.07191630984440602,0.0008274965861013405
0.536674976348877,-0.0013493746519088745,-0.03202660381793976,0.00641554594039917,-0.026992056518793106,0.015704771503806114,-0.0071863094344735146,-0.08178500220609354,0.0720563282973168,0.0007985910122014041
0.54541015625,-0.004592284560203552,-0.027132704854011536,0.004863858222961426,-0.004294200800359249,0.015393979847431183,-0.006942364387214184,-0.08175857047646724,0.07223311365490223,0.0007374415557713495
0.5554280281066895,-0.00039768218994140625,-0.01938040554523468,0.005514919757843018,0.01615496538579464,0.01359053235501051,-0.0038313125260174274,-0.0814974640925724,0.07238664056153113,0.0006709637867353969
0.5654339790344238,0.0022610649466514587,-0.015300169587135315,0.005281329154968262,0.032795459032058716,0.014281622134149075,0.0027706637047231197,-0.08104733710761208,0.07253373941180394,0.000644333057759451
0.5789752006530762,0.0010800808668136597,-0.015264198184013367,0.003953218460083008,0.03560689091682434,0.015173248946666718,0.0013769249198958278,-0.08052136319598528,0.07270556551272994,0.0006568696237309885
0.5866811275482178,0.0009402558207511902,-0.021045155823230743,0.003320455551147461,0.02946777269244194,0.005451645702123642,-0.004994688089936972,-0.080090612120022,0.07285904086608676,0.0006036863475199477
0.5954670906066895,0.0008995756506919861,-0.02323385328054428,0.006121337413787842,0.01704564318060875,0.0018866939935833216,-0.0021988479420542717,-0.07971462959396895,0.0729438078797079,0.0005458223391230024
0.6055049896240234,0.002722017467021942,-0.02795989066362381,0.01415640115737915,0.012303616851568222,-8.724117651581764e-05,-0.00016099726781249046,-0.0793889749671696,0.07296591910744511,0.0005283985071775327
0.6155030727386475,0.00012916326522827148,-0.028103291988372803,0.011616945266723633,0.009231978096067905,0.004524954594671726,0.002638996811583638,-0.07907362299590247,0.07297828546084226,0.0005294252678871487
0.6289219856262207,-0.0028355196118354797,-0.028037451207637787,0.007718443870544434,0.01571677438914776,0.0009171701967716217,0.00859968364238739,-0.07877798713748156,0.0729810887466024,0.0005729606230599931
0.6375291347503662,-0.0005847439169883728,-0.02564302086830139,0.005225479602813721,0.028198327869176865,0.0034735826775431633,0.00905162189155817,-0.07844245331102626,0.07300206569172583,0.000647338531249725
0.6536002159118652,-0.001930423080921173,-0.02229353040456772,0.00426095724105835,0.039270684123039246,0.009361831471323967,0.016624322161078453,-0.07800605905692234,0.07309456666611353,0.0007480134526907157
0.6611871719360352,-0.006251022219657898,-0.01939442753791809,0.0037888288497924805,0.04401678964495659,0.011043129488825798,0.02032925747334957,-0.07748575282740669,0.07321673662065437,0.0009070302511170957
0.6672811508178711,-0.008347943425178528,-0.018555685877799988,0.005518078804016113,0.04692362993955612,0.012990700080990791,0.016980333253741264,-0.07688937914974936,0.07335796657782971,0.0010692960756752278
0.675508975982666,-0.008272945880889893,-0.020296871662139893,0.005797684192657471,0.039976492524147034,0.00946294330060482,0.01637430302798748,-0.07629422551788241,0.07349402029097866,0.0012057544065629086
0.685880184173584,-0.007269963622093201,-0.020723290741443634,0.0044841766357421875,0.025884374976158142,0.009653358720242977,0.014732198789715767,-0.0757883959055227,0.07361805731814926,0.0013327359991584528
0.6956372261047363,-0.00602133572101593,-0.020519420504570007,0.007826149463653564,0.0035566978622227907,0.011399772018194199,0.012762471102178097,-0.07546151910336092,0.07374158645634384,0.0014593641118999393
0.7056679725646973,-0.0077750831842422485,-0.02311832457780838,0.0076288580894470215,-0.00942488107830286,0.01345120370388031,0.010207700543105602,-0.07532872439454714,0.07386258320472991,0.0015748799059877414
0.7155511379241943,-0.007162302732467651,-0.02536584436893463,0.0070269107818603516,-0.0133926747366786,0.011940259486436844,0.007281365804374218,-0.07528730854952949,0.07399800670466074,0.0016631043989814756
0.7288150787353516,-0.0061985403299331665,-0.02274136245250702,0.006427466869354248,-0.009715648368000984,0.003142773872241378,0.00780707411468029,-0.07527203342274616,0.07407216936603052,0.0017506671594371907
0.736821174621582,-0.0028305426239967346,-0.015564851462841034,0.005534112453460693,-0.005801999941468239,-0.0066889068111777306,0.006872997153550386,-0.07523653727237564,0.07401480430569035,0.0018312739912812008
0.7458100318908691,-0.0006529167294502258,-0.014601603150367737,0.007105112075805664,-0.001877299160696566,-0.004393794573843479,0.004864440765231848,-0.0751580772259223,0.07389602854889753,0.0018855681241932657
0.7559530735015869,-0.0015296489000320435,-0.0158710777759552,0.005090951919555664,-0.00318933860398829,-0.004996201954782009,0.005473665427416563,-0.07505395814531683,0.07379504546615442,0.0019360719279232555
0.765700101852417,-0.0022355839610099792,-0.013369821012020111,0.0017354488372802734,-0.0008223210461437702,-0.006655883975327015,0.0029828110709786415,-0.0749327375526344,0.07369103051714403,0.001979819314854723
0.7788562774658203,-0.0016930550336837769,-0.01463174819946289,0.004178464412689209,-0.0005095661617815495,-0.005942866671830416,0.00043555081356316805,-0.07480576234797867,0.07358975286669678,0.002004740675756951
0.7865180969238281,-0.001167789101600647,-0.016414038836956024,0.006010890007019043,-0.0032025545369833708,-0.0034016785211861134,0.0033999155275523663,-0.0746650521627636,0.07350576115720317,0.0020246239601293217
0.795673131942749,-0.0028033778071403503,-0.016262374818325043,0.0053365230560302734,-0.007127970922738314,-0.0014844243414700031,0.005879797972738743,-0.07455885959583988,0.07344670590338574,0.0020728449598303054
0.8057332038879395,-0.0022400394082069397,-0.01853174716234207,0.0063201189041137695,-0.00847340002655983,0.0008767340332269669,0.002719158073887229,-0.07449345799246038,0.07341691225895976,0.0021238993827115103
0.8157291412353516,-0.002508312463760376,-0.02112334966659546,0.008852541446685791,-0.013844279572367668,-0.0005862731486558914,0.007632690016180277,-0.07450636699131948,0.07341056436693309,0.002183935616693201
0.8289361000061035,-0.00227433443069458,-0.018681615591049194,0.010663092136383057,-0.016305573284626007,-0.00021422980353236198,0.007807660382241011,-0.07456724020296278,0.07342111182147079,0.0022721590259024253
0.8366260528564453,-0.0017161890864372253,-0.02114901691675186,0.011646747589111328,-0.02127767913043499,0.00500099454075098,0.007094944827258587,-0.07465451750827692,0.07344340625561782,0.0023703266810245964
0.845811128616333,-0.0040866658091545105,-0.021655909717082977,0.011677086353302002,-0.023972531780600548,0.01062745414674282,0.010133611969649792,-0.07479559575458121,0.07351095327999797,0.00246920129082623
0.8558170795440674,-0.004875443875789642,-0.020517557859420776,0.01217418909072876,-0.027374818921089172,0.01459369994699955,0.007499851752072573,-0.07495468090857553,0.07364521683821731,0.0025778459454170424
0.8658151626586914,-0.005606494843959808,-0.019516192376613617,0.008626341819763184,-0.02356063947081566,0.01881268061697483,0.005051607731729746,-0.075098125238824,0.07381340939658304,0.0026636300329577795
0.87896728515625,-0.0049789175391197205,-0.019191458821296692,0.006195366382598877,-0.01673370972275734,0.017284957692027092,0.004515140317380428,-0.07520093843816379,0.07398079241694158,0.002727284221738335
0.8880550861358643,-0.0009961500763893127,-0.015920981764793396,0.004580020904541016,-0.010079802013933659,0.016047386452555656,0.005561230704188347,-0.07521112660929809,0.07414940390323123,0.002793218155366009
0.9043130874633789,0.00045514851808547974,-0.013214804232120514,0.0027896761894226074,-0.0074335187673568726,0.009289882145822048,0.003476348239928484,-0.0751598314490219,0.07427015316484362,0.00284414327558232
0.9062931537628174,0.000924229621887207,-0.01264578104019165,0.0018894672393798828,-0.006886239163577557,0.004176080226898193,0.0007617881055921316,-0.07510946699428694,0.07431986509526624,0.0028662656126627654
0.9179272651672363,0.0017369017004966736,-0.016480490565299988,0.0013225674629211426,-0.020422805100679398,0.0023914515040814877,-0.0014219507575035095,-0.0751142282979369,0.07434660007135648,0.002861039172701479
0.9259600639343262,-0.0009428858757019043,-0.018431000411510468,0.0023023486137390137,-0.034798815846443176,0.0021935785189270973,-0.0042981649748981,-0.07526463481064098,0.07435699936987135,0.002856948686557293
0.9359769821166992,-0.004000239074230194,-0.020551390945911407,0.004527628421783447,-0.03979615122079849,-0.0003457898274064064,-0.009923506528139114,-0.0755241839060991,0.07433339446688998,0.0028176840872518013
0.9458990097045898,-0.0047881752252578735,-0.023412033915519714,0.0067847371101379395,-0.038129013031721115,-0.004814840853214264,-0.012928883545100689,-0.07580690094308296,0.07426806213165638,0.0027280574179208003
0.9560980796813965,-0.005422286689281464,-0.0193355530500412,0.005232453346252441,-0.03163696080446243,-0.007076840382069349,-0.011502761393785477,-0.07604935388004604,0.07417055994833702,0.002636756415009694
0.9659242630004883,-0.005448251962661743,-0.01630914956331253,0.001992344856262207,-0.014450514689087868,-0.008333586156368256,-0.011048958636820316,-0.07619720944118884,0.07409009449012106,0.002534469996659283
0.9792261123657227,-0.004371166229248047,-0.014209747314453125,-0.002957463264465332,1.7423415556550026e-05,-0.015416663140058517,-0.010642080567777157,-0.07618822720539073,0.07397360777008186,0.0024385731084713685
0.9872190952301025,-0.004606574773788452,-0.011941149830818176,-0.0033333301544189453,0.0039900606498122215,-0.019511006772518158,-0.010201860219240189,-0.07608607971490006,0.0737954522502828,0.002329882043467984
1.0040180683135986,-0.003940656781196594,-0.010633490979671478,-0.0013428926467895508,-0.0037407793570309877,-0.018732164055109024,-0.008792834356427193,-0.07598357248369028,0.07360088507499575,0.002235829534295118
1.006439208984375,-0.005895644426345825,-0.014191396534442902,-0.0013732314109802246,-0.012622954323887825,-0.018741218373179436,-0.008204009383916855,-0.07595559073963845,0.07341847999454562,0.0021631734242616965
1.0290842056274414,-0.008254483342170715,-0.0200640931725502,0.0007407069206237793,-0.02580397017300129,-0.01645498536527157,-0.009409889578819275,-0.07603016130089162,0.07322846770585256,0.0020819797660008815
1.0310931205749512,-0.008112430572509766,-0.023101724684238434,0.00206071138381958,-0.01822328194975853,-0.023068146780133247,-0.01016303151845932,-0.07613841935895278,0.07300949963102926,0.0019963939478909814
1.0387351512908936,-0.00625639408826828,-0.022498928010463715,0.005832195281982422,-0.01690543442964554,-0.0313262976706028,-0.012921798974275589,-0.07619189980117608,0.07270847422941948,0.0019009289791473082
1.054131031036377,-0.006065577268600464,-0.02444954216480255,0.010825514793395996,-0.03528017923235893,-0.04775320738554001,-0.018065962940454483,-0.0763424210014843,0.0722872924985527,0.0017614078086887655
1.0629820823669434,-0.005277842283248901,-0.0226423516869545,0.014269888401031494,-0.06816074997186661,-0.07458291202783585,-0.02368171513080597,-0.07677955028547982,0.0716663861885985,0.001600140528959603
1.0792810916900635,0.0003976374864578247,-0.028854288160800934,0.015639185905456543,-0.06368743628263474,-0.1235901340842247,-0.03573624789714813,-0.07739333212493904,0.07062723156205412,0.0013567124534327347
1.0871119499206543,0.0037955865263938904,-0.04463847726583481,0.01976841688156128,-0.07074350118637085,-0.16268903017044067,-0.061732642352581024,-0.07801215353092364,0.06914717551683827,0.0009193552737196999
1.104362964630127,0.00949966162443161,-0.041506096720695496,0.01417553424835205,-0.09444669634103775,-0.2082756906747818,-0.06037576124072075,-0.07878840580925374,0.06725171836703919,0.00034433435706582576
1.1121771335601807,0.013935387134552002,0.010944463312625885,0.011967837810516357,-0.12248494476079941,-0.25770115852355957,-0.031294628977775574,-0.07974662184470308,0.06486827787553948,-5.372405437268266e-05
1.1291451454162598,0.018271833658218384,0.012207552790641785,0.02232527732849121,-0.1726865917444229,-0.30366066098213196,-0.031611546874046326,-0.08108184110557333,0.06201907156755048,-0.00025351387585730603
1.138160228729248,0.014384709298610687,-0.031237758696079254,0.029668569564819336,-0.23676557838916779,-0.3291076123714447,-0.06361518055200577,-0.08298385561947318,0.058864956048396894,-0.0005926244907527933
1.1541252136230469,0.005261115729808807,-0.04576197266578674,0.04215294122695923,-0.32484298944473267,-0.36728376150131226,-0.09244735538959503,-0.08569214239032431,0.055349076673424855,-0.0012163223174841916
1.161844253540039,0.006548836827278137,-0.0364532545208931,0.03918194770812988,-0.4660090208053589,-0.3995417654514313,-0.130631223320961,-0.08956662852480457,0.051480376993658525,-0.0020891779478321797
1.1681909561157227,0.009137921035289764,-0.052632346749305725,0.028224527835845947,-0.6205072402954102,-0.41211003065109253,-0.18444252014160156,-0.09491948084682574,0.04739795203137408,-0.0033952593411664895
1.1742630004882812,0.0011381953954696655,-0.08680552244186401,0.028032004833221436,-0.8941507935523987,-0.4753017723560333,-0.24844036996364594,-0.10236495995031931,0.04284599937640105,-0.005200969866165533
1.1832201480865479,-0.0011741220951080322,-0.10407573729753494,0.03922086954116821,-1.1563509702682495,-0.49687421321868896,-0.30608421564102173,-0.11276785454989448,0.03773856054946186,-0.00759987849562906
1.1904191970825195,0.01340145617723465,-0.10596378147602081,0.04614365100860596,-1.3888696432113647,-0.5639452934265137,-0.35774704813957214,-0.12562673960117166,0.032083821111073656,-0.0104928904160696
1.2043190002441406,0.01796026900410652,-0.09522950649261475,0.04496806859970093,-1.7827318906784058,-0.6627799868583679,-0.4413202404975891,-0.1416159587259441,0.025387321003175967,-0.014074327998986693
1.2123370170593262,0.013379814103245735,-0.0860901027917862,0.055356383323669434,-2.1234703063964844,-0.6525253057479858,-0.467904269695282,-0.1612816936369458,0.01815244519895185,-0.01828077264477784
1.2286052703857422,0.01655028760433197,-0.1135876476764679,0.015666186809539795,-2.4989535808563232,-0.7314680218696594,-0.5187386870384216,-0.1844559432096187,0.01051417528312838,-0.022897160881772106
1.2332310676574707,0.01403567660599947,-0.11242055892944336,-0.00852346420288086,-2.9693374633789062,-0.813896894454956,-0.5824287533760071,-0.21173145055559786,0.001531909703572478,-0.028424119984636953
1.2385711669921875,0.014872020110487938,-0.12903077900409698,0.023205161094665527,-3.4728305339813232,-0.7511277794837952,-0.5766539573669434,-0.24407184642606344,-0.0076684128851530866,-0.03444223776617394
1.2425832748413086,0.010367926210165024,-0.14629575610160828,0.0048035383224487305,-3.90356707572937,-0.7118970155715942,-0.6504502296447754,-0.28089538713276674,-0.01660420892956759,-0.0412399665290714
1.2466981410980225,-0.00730300135910511,-0.1527576446533203,-0.0034496188163757324,-4.149961948394775,-0.811969518661499,-0.6681986451148987,-0.32131330043998946,-0.026624935514151283,-0.049162704036733486
1.2563791275024414,-0.0001665167510509491,-0.10254329442977905,0.024111807346343994,-4.160397052764893,-0.8749690055847168,-0.6148430705070496,-0.3627996484959242,-0.0378430382036404,-0.05739893300600253
1.2661080360412598,0.01056644693017006,-0.03851151466369629,-0.0029665231704711914,-4.027133941650391,-0.9480738043785095,-0.5796933770179749,-0.4035307247902463,-0.05008528992852101,-0.06578371936022698
1.2785272598266602,-0.006013985723257065,-0.01978132128715515,-0.03122103214263916,-3.850632667541504,-1.0457149744033813,-0.5202159285545349,-0.44264971048027685,-0.0636007101593681,-0.07429007113360735
1.286224126815796,-0.006473466753959656,-0.029667258262634277,-0.030106306076049805,-3.52767276763916,-1.0794692039489746,-0.4325769245624542,-0.47926225087468133,-0.07792185759798015,-0.08250453944959187
1.296339988708496,0.0020258650183677673,0.004263371229171753,-0.06380397081375122,-3.037351131439209,-1.0213080644607544,-0.3240554928779602,-0.511721289880417,-0.09196852961050214,-0.0899615851877792
1.3063750267028809,0.007202565670013428,0.07590609788894653,-0.14642560482025146,-2.5561673641204834,-0.9667471051216125,-0.2695818841457367,-0.5392528970653108,-0.10523425791625594,-0.09654362159873768
1.3163530826568604,0.021403983235359192,0.08619940280914307,-0.1938292384147644,-2.0991275310516357,-0.8249320983886719,-0.2106555849313736,-0.5621627983246115,-0.11730585863217345,-0.10238833628351662
1.3293280601501465,-0.010059304535388947,0.007553160190582275,-0.16345828771591187,-1.4665603637695312,-0.574759304523468,-0.16219058632850647,-0.5798484563928268,-0.12696009656947624,-0.10716958023888229
1.3370921611785889,-0.059525638818740845,0.003018677234649658,-0.12971067428588867,-0.6490921378135681,-0.3876256048679352,-0.17053194344043732,-0.5901742030684771,-0.13369284484959884,-0.11078673937285542
1.3464810848236084,-0.07783221453428268,0.11101317405700684,-0.09534931182861328,0.15555746853351593,-0.21790900826454163,-0.17455065250396729,-0.5923331776396189,-0.138162378656552,-0.1132595968768321
1.356450080871582,-0.06860414892435074,0.16297733783721924,-0.04472756385803223,1.0679643154144287,0.13094329833984375,-0.18952544033527374,-0.5863580627201308,-0.13949034751020126,-0.11446503411480896
1.3663430213928223,-0.07684699445962906,0.13236820697784424,-0.04263228178024292,2.4398202896118164,0.5421452522277832,-0.21721911430358887,-0.5689451850243299,-0.135763094377533,-0.11398261096404641
1.3791160583496094,-0.11424904316663742,0.19951987266540527,-0.08769702911376953,4.287734031677246,0.8551063537597656,-0.21307885646820068,-0.5354136272306671,-0.12729484592715085,-0.11139371270792368
1.3876290321350098,-0.12527233362197876,0.40931758284568787,-0.09500926733016968,6.235598087310791,1.093351125717163,-0.18775059282779694,-0.4828198023065075,-0.11509952176418087,-0.10639678198787886
1.4041681289672852,-0.0964115709066391,0.6001502871513367,-0.07805764675140381,8.023659706115723,1.3806087970733643,-0.15793858468532562,-0.4115525011746848,-0.09988623897040214,-0.09977018159009719
1.4119651317596436,-0.10509210079908371,0.6672929525375366,-0.039188265800476074,9.529908180236816,1.6453726291656494,-0.17715249955654144,-0.3235521610878323,-0.08218228535000908,-0.09288425438942287
1.4293360710144043,-0.14805229008197784,0.6421383619308472,0.0316159725189209,10.634952545166016,1.9025864601135254,-0.1990775614976883,-0.22256365938422065,-0.0629370107724016,-0.08734702123173647
1.431427001953125,-0.18221865594387054,0.7050780653953552,0.12067699432373047,11.099165916442871,2.028590440750122,-0.06598794460296631,-0.11334059520896696,-0.04250840408877628,-0.08288049099365835
1.439035177230835,-0.17053861916065216,0.8328827619552612,0.18020027875900269,10.776237487792969,2.1571128368377686,0.12513406574726105,-0.003527655178075605,-0.021388257577794983,-0.07910998387515948
1.4541821479797363,-0.11328545957803726,0.7712010145187378,0.24254560470581055,9.91988468170166,2.3000314235687256,0.3584165871143341,0.10047163937918573,0.0010163435040231714,-0.07548215155039456
1.4622039794921875,-0.09597238898277283,0.5653918981552124,0.23208487033843994,8.608925819396973,2.154442548751831,0.22529125213623047,0.19348916984234402,0.023086661025052455,-0.0734690072267754
1.4793682098388672,-0.13794398307800293,0.4228987991809845,0.3271331191062927,7.197732925415039,2.0170814990997314,0.004229170270264149,0.2724800672240192,0.044380450680520704,-0.07508248238965246
1.487342119216919,-0.17230665683746338,0.3215952515602112,0.427967369556427,6.173578262329102,1.8383837938308716,-0.16640914976596832,0.3389588832875807,0.06507541453103563,-0.07964995690959153
1.4933991432189941,-0.1618269979953766,0.25981399416923523,0.45828777551651,5.413686752319336,1.6386831998825073,-0.7043687105178833,0.39652780175129676,0.08583592385127689,-0.08890543063061407
1.4995300769805908,-0.181888610124588,0.10903662443161011,0.5843267440795898,4.910908222198486,1.4721105098724365,-1.0245676040649414,0.4469846266030201,0.10762775416444335,-0.10409698210714802
1.5080809593200684,-0.16239258646965027,-0.05557936429977417,0.6166877150535583,4.608310222625732,1.3301680088043213,-1.0821466445922852,0.49288364743768803,0.12986162601460433,-0.12212497627203411
1.5164461135864258,-0.03091856837272644,-0.03223603963851929,0.5162103772163391,4.376880645751953,1.144194483757019,-1.2311441898345947,0.5357707268835386,0.1523158826347642,-0.14250142835437746
1.528764247894287,0.06364721059799194,0.05004453659057617,0.4743841290473938,4.176810264587402,1.1193701028823853,-1.3936026096343994,0.575835985512006,0.1758041597740315,-0.16589015654713224
1.5365331172943115,0.08731137216091156,0.036174654960632324,0.3795595169067383,3.977489709854126,1.300184965133667,-1.6608752012252808,0.6130059953563273,0.20317252383309695,-0.19332717139923414
1.546504020690918,0.0966193675994873,-0.036235928535461426,0.1597815752029419,3.8362858295440674,1.5184515714645386,-1.942184329032898,0.6473145152593333,0.23640211285001653,-0.22561469282880597
1.5566961765289307,0.10988134145736694,-0.04420965909957886,0.06159389019012451,3.668475866317749,1.693664789199829,-2.1400532722473145,0.6787074555098861,0.2752769842310151,-0.26290839315168524
1.5667872428894043,0.11001498997211456,-0.0009278655052185059,0.10103970766067505,3.452608585357666,1.9513874053955078,-2.2438666820526123,0.7062358332677439,0.3197173779565938,-0.3037905745421628
1.5792579650878906,0.10275503993034363,-0.05047506093978882,0.1070525050163269,3.2157578468322754,2.0362048149108887,-2.326270818710327,0.7299610474039833,0.36845131098437467,-0.3472863838724847
1.5871500968933105,0.07925009727478027,-0.14391177892684937,0.18235087394714355,2.9728965759277344,1.9781357049942017,-2.3434031009674072,0.7495564313225098,0.41923005629069154,-0.39273917808958764
1.5967812538146973,0.08304882049560547,-0.1661873459815979,0.290214478969574,2.8771419525146484,1.9146629571914673,-2.2135016918182373,0.7661988700794689,0.470477030874096,-0.4384932574369924
1.6067891120910645,0.10187739133834839,-0.11739933490753174,0.23834729194641113,2.878558874130249,1.6809154748916626,-2.043367385864258,0.7812241392579892,0.5201622463952961,-0.48383698889020915
1.6167261600494385,0.10412350296974182,-0.034894347190856934,0.13073700666427612,2.768681764602661,1.5697827339172363,-1.8305275440216064,0.7954664365119757,0.5678041302606626,-0.5282322857880439
1.6293139457702637,0.12431907653808594,-0.05133378505706787,0.06306171417236328,2.462785243988037,1.602907657623291,-1.6150959730148315,0.8076771073542782,0.6135700359178641,-0.5698357125290823
1.6378331184387207,0.042367517948150635,-0.1643548607826233,0.00854039192199707,2.0493295192718506,1.60337233543396,-1.3859003782272339,0.8169735773536178,0.656621577267886,-0.6069383431922497
1.654811143875122,-0.03013765811920166,-0.26731616258621216,-0.01155310869216919,1.7097058296203613,1.5887571573257446,-1.1623765230178833,0.8236034749792573,0.6959121454442597,-0.6387860976398413
1.6626319885253906,-0.04086661338806152,-0.30785030126571655,-0.06412321329116821,1.4105279445648193,1.5377901792526245,-0.8876028656959534,0.8287044564284948,0.7310525776630586,-0.6652471459575771
1.6792821884155273,-0.06101435422897339,-0.28686612844467163,-0.10818344354629517,1.1493611335754395,1.4431345462799072,-0.6309026479721069,0.8329865400259716,0.761697615336951,-0.6864759785750979
1.6811590194702148,-0.06865361332893372,-0.2839522957801819,-0.11790993809700012,0.8923216462135315,1.3331570625305176,-0.36983364820480347,0.8367589964244833,0.7875183070282435,-0.7024650130461002
1.6885919570922852,-0.048687368631362915,-0.30275845527648926,-0.10655039548873901,0.6156735420227051,1.1843833923339844,-0.1635877937078476,0.8401713788424661,0.8081594739350284,-0.7132308160504426
1.7043442726135254,-0.017763108015060425,-0.31119102239608765,-0.07071012258529663,0.43298524618148804,1.0083438158035278,0.03361662104725838,0.8432260695786782,0.82390912118906,-0.7196164876420611
1.7117500305175781,0.01531374454498291,-0.3013555407524109,-0.05944979190826416,0.3285160958766937,0.8238667249679565,0.19834670424461365,0.8466644155481321,0.8351985116731967,-0.7225021612389314
1.7179350852966309,0.030647695064544678,-0.20773226022720337,-0.054355114698410034,0.34677764773368835,0.7103191614151001,0.30609795451164246,0.8507898152365898,0.8438094651186978,-0.7237543784691874
1.7326440811157227,0.02809205651283264,-0.11230707168579102,-0.09183895587921143,0.3094979226589203,0.6339149475097656,0.3733310401439667,0.8556348238055078,0.8508121881545786,-0.7241361955600146
1.7387571334838867,0.016866028308868408,-0.024043679237365723,-0.11004370450973511,0.18284277617931366,0.5767962336540222,0.3002275228500366,0.8598434901332626,0.856381712975594,-0.7235224687922003
1.7470691204071045,0.011426061391830444,-0.031872451305389404,-0.07537975907325745,0.09693095088005066,0.5229083299636841,0.27278196811676025,0.8628870504401396,0.8609730264319789,-0.722271256657335
1.7575221061706543,0.024303823709487915,-0.010638058185577393,-0.07141053676605225,0.030593127012252808,0.44470205903053284,0.21530428528785706,0.8651574298661232,0.8644773138194524,-0.7205316047324234
1.7670722007751465,0.0394195020198822,0.05978208780288696,-0.026038825511932373,0.052431315183639526,0.40288645029067993,0.15173009037971497,0.866760098757657,0.8676519291437826,-0.7191568791125879
1.7796540260314941,0.04129219055175781,0.06929808855056763,0.006386131048202515,0.13126839697360992,0.2977059483528137,0.12340349704027176,0.8684033022166241,0.8708331707633092,-0.7187057707773382
1.7880949974060059,0.051624029874801636,0.1268002986907959,0.01323312520980835,0.23844438791275024,0.2481977939605713,0.06727232038974762,0.87032944640177,0.8745769985443146,-0.7200619228752573
1.804579257965088,0.06942778825759888,0.14820438623428345,0.00527876615524292,0.23647239804267883,0.18323716521263123,0.023639194667339325,0.872243233629793,0.878613485519148,-0.7225192179477462
1.8126540184020996,0.07284203171730042,0.11416357755661011,-0.003899872303009033,0.1423080712556839,0.14961528778076172,-0.014624837785959244,0.8735040757459279,0.8820079223742837,-0.724763227034444
1.829458236694336,0.08446821570396423,0.044273197650909424,0.015713155269622803,0.073826365172863,0.08909865468740463,-0.06162270903587341,0.8738761369052703,0.8844614519074131,-0.7264331722460456
1.831498146057129,0.07786375284194946,0.001799941062927246,0.027685314416885376,0.007967459037899971,0.049506496638059616,-0.052613236010074615,0.8736735106699812,0.8859612044761102,-0.7274980641918128
1.8389661312103271,0.06881442666053772,-0.006873786449432373,0.02519780397415161,-0.029572458937764168,0.01958632841706276,-0.051156800240278244,0.8732115905255954,0.8865653318826492,-0.7278030456814945
1.8544120788574219,0.057211101055145264,-0.016100287437438965,0.026271343231201172,0.014527090825140476,-0.03542206436395645,-0.037269748747348785,0.8727447121032356,0.8867632753611416,-0.7281639648030455
1.862098217010498,0.05595332384109497,0.004360616207122803,0.011690378189086914,0.034132037311792374,-0.0592055581510067,-0.012880520895123482,0.8727665177872415,0.8866985730366015,-0.728755311650012
1.8683381080627441,0.05117487907409668,0.03329145908355713,-0.010714054107666016,-0.04002368450164795,-0.02906442992389202,0.0012222486548125744,0.8727430994942013,0.8863321828837495,-0.7288583640988524
1.8814711570739746,0.023334026336669922,-0.02452707290649414,-0.02706432342529297,-0.12525126338005066,-0.02365182153880596,0.02466307394206524,0.8723110304072358,0.885236408071479,-0.727737237118278
1.8894100189208984,0.0015773475170135498,-0.069091796875,-0.01882082223892212,-0.15027272701263428,-0.034142013639211655,0.016277311369776726,0.8715619281772451,0.8835063903962489,-0.7258590638560833
1.9038052558898926,-0.0011975765228271484,-0.060993313789367676,0.005765378475189209,-0.1365567147731781,-0.07401681691408157,0.06310367584228516,0.870915947755301,0.8813368024756197,-0.7236928602301304
1.9090242385864258,-0.005489557981491089,-0.04021650552749634,0.020773649215698242,-0.05795884132385254,-0.09538175910711288,0.07586740702390671,0.8708123360841206,0.8791158706092255,-0.7218822589839134
1.9171862602233887,-0.006274223327636719,0.004674971103668213,0.02543121576309204,-0.06221767142415047,-0.09959079325199127,0.08994519710540771,0.8711205780149103,0.877050028588536,-0.7204658933979269
1.9288110733032227,-0.023643970489501953,-0.0039601922035217285,0.017692267894744873,-0.13397414982318878,-0.08602011948823929,0.05006328970193863,0.8710278618555573,0.8747105005707858,-0.7185833458607945
1.9371891021728516,-0.027158379554748535,-0.04687011241912842,0.023992955684661865,-0.18910345435142517,-0.07462374866008759,0.03689869865775108,0.8702902523511187,0.8722023577109564,-0.7163247657830931
1.9469852447509766,-0.022677302360534668,-0.041331589221954346,0.014238119125366211,-0.24824319779872894,-0.041650086641311646,0.023418044671416283,0.869059552865201,0.8694187741688101,-0.7134249008071002
1.957211971282959,-0.018332332372665405,-0.026726901531219482,0.009720325469970703,-0.2765596807003021,-0.056659527122974396,0.033787649124860764,0.8675513164269371,0.8664116371900932,-0.7100659019854988
1.9671592712402344,-0.010397642850875854,-0.029820144176483154,0.0072634220123291016,-0.30574125051498413,-0.09227611124515533,0.029081309214234352,0.8659784828769431,0.8627867554290848,-0.7062976272675882
1.979438066482544,0.006813347339630127,-0.021973371505737305,0.02670210599899292,-0.34638139605522156,-0.11225900799036026,0.02637457847595215,0.8641492965694026,0.8587396657996857,-0.7022951874181272
1.9873170852661133,0.001010209321975708,-0.04096829891204834,0.04128599166870117,-0.4270264506340027,-0.1028473973274231,0.030185295268893242,0.861970094029244,0.8540585980624911,-0.6975748428170525
1.9972000122070312,-0.010208189487457275,-0.047404348850250244,0.043300777673721313,-0.5182790160179138,-0.055592890828847885,0.010666616261005402,0.8590262352751288,0.8490917296471301,-0.6920233911952443
2.007589101791382,-0.025267809629440308,-0.06351208686828613,0.021614134311676025,-0.5680433511734009,-0.0008076708763837814,0.022975746542215347,0.8556540580709519,0.8440169089711493,-0.6856388625984476
2.0172200202941895,-0.03142014145851135,-0.04863381385803223,-0.005357205867767334,-0.5609637498855591,-0.0034270668402314186,0.022019458934664726,0.8522878357951733,0.8391085069055111,-0.6790235612803384
2.0296592712402344,-0.02140370011329651,-0.009182274341583252,0.005692541599273682,-0.5646713972091675,-0.03928599879145622,0.012760180979967117,0.8486674880181984,0.8340393690920037,-0.6725681437055522
2.038006067276001,0.002826601266860962,-0.004095017910003662,0.021609187126159668,-0.6306201815605164,-0.08435218781232834,-0.009708162397146225,0.8446690438521551,0.8284017394241686,-0.6658862462018467
2.0550310611724854,0.0107022225856781,-0.02693718671798706,0.020389139652252197,-0.7381530404090881,-0.11817699670791626,-0.03150933235883713,0.839879280744727,0.821908528187017,-0.6585492605389852
2.063059091567993,0.011484920978546143,-0.055728375911712646,0.006249457597732544,-0.8248564004898071,-0.13675889372825623,-0.03188356012105942,0.8342540985160198,0.8145034040591496,-0.6503455297422922
2.0795722007751465,0.017728596925735474,-0.05296039581298828,-0.0006605088710784912,-0.889643132686615,-0.1690361350774765,-0.03062521480023861,0.8281279744617311,0.806419076681157,-0.6414450110569924
2.0815300941467285,0.009976059198379517,-0.024132728576660156,0.0018767714500427246,-1.0739169120788574,-0.21955367922782898,-0.05641558766365051,0.8210757950070904,0.797245379262332,-0.6315916810431416
2.088815212249756,0.011255353689193726,-0.05109727382659912,0.032220691442489624,-1.3348520994186401,-0.2703137993812561,-0.06068090349435806,0.812113730754174,0.7861313985465013,-0.6196894822274902
2.104729175567627,0.010092079639434814,-0.15203553438186646,0.07058259844779968,-1.425112009048462,-0.38762304186820984,-0.01358210388571024,0.8019193750354353,0.772858393938991,-0.6058348699389199
2.112222194671631,0.01683628559112549,-0.14202171564102173,0.06914234161376953,-1.3392815589904785,-0.5154076218605042,0.05294765532016754,0.7920346488398082,0.7584101418929257,-0.5919313978260784
2.118453025817871,0.028246134519577026,-0.04907292127609253,0.02547401189804077,-1.397022008895874,-0.6675435304641724,0.14443831145763397,0.7828338275465619,0.7424711244957726,-0.5777936809020381
2.131021022796631,0.022432923316955566,-0.07134115695953369,0.022231340408325195,-1.763134241104126,-0.7765227556228638,0.15031351149082184,0.7722697598775724,0.7237975745402773,-0.5615283300123673
2.1395039558410645,0.002900838851928711,-0.2307199239730835,0.07007074356079102,-2.292332172393799,-0.8557291626930237,0.07621756196022034,0.7576320684855709,0.7019767716094852,-0.5418453848821715
2.153992176055908,-0.03969067335128784,-0.41027897596359253,0.14453715085983276,-2.72385835647583,-0.9668881893157959,0.13249200582504272,0.7387367488298084,0.6772914952638162,-0.5189469804456252
2.162158966064453,-0.05989614129066467,-0.4335858225822449,0.22116082906723022,-2.826396942138672,-1.125980019569397,0.19886186718940735,0.7177105896363157,0.6503006413751391,-0.4940712542522648
2.167278289794922,-0.03577864170074463,-0.26090091466903687,0.2482311725616455,-2.651054859161377,-1.2983490228652954,0.33397817611694336,0.6971137623238756,0.6223712928052196,-0.4697783074620923
2.1798462867736816,0.006110817193984985,-0.11587774753570557,0.21424579620361328,-2.4168050289154053,-1.5038291215896606,0.5580193996429443,0.6788086840992156,0.5934396133009358,-0.4463102601544947
2.1878671646118164,0.06638109683990479,0.010618507862091064,0.16202962398529053,-2.3771300315856934,-1.641162395477295,0.7544658780097961,0.6625071320018503,0.5629304202353205,-0.4226354294416904
2.2042112350463867,0.11976045370101929,0.020034193992614746,0.07916748523712158,-2.7876601219177246,-1.679568886756897,0.8853477239608765,0.6450157174542519,0.5306863691995471,-0.3970527590833428
2.2120931148529053,0.138126403093338,-0.11263459920883179,-0.008619248867034912,-3.6330809593200684,-1.600801944732666,0.8759443759918213,0.6215506830345425,0.4969296891714516,-0.36792271423953843
2.2174181938171387,0.13415440917015076,-0.29801273345947266,-0.03571486473083496,-4.733166694641113,-1.4623706340789795,0.7753704786300659,0.588325593226164,0.463177692257751,-0.3355767992645256
2.2298669815063477,0.10599920153617859,-0.4778783321380615,0.016598522663116455,-5.812707424163818,-1.3404256105422974,0.6201686859130859,0.5436394502674822,0.43064478000853773,-0.30101225908221135
2.238525152206421,0.08036357164382935,-0.524452805519104,0.12122875452041626,-6.556633949279785,-1.1841070652008057,0.44847095012664795,0.4889545225178588,0.4010097274683223,-0.2665145760785433
2.2541112899780273,0.07586511969566345,-0.45645928382873535,0.21539461612701416,-7.011129379272461,-1.0849546194076538,0.28427615761756897,0.4272393720045866,0.3752830822947197,-0.23401836293638023
2.262010097503662,0.07102891802787781,-0.3026195168495178,0.28947335481643677,-7.054795742034912,-1.0281214714050293,0.12844768166542053,0.36203697001803964,0.3534169516386796,-0.20464587736281734
2.2683651447296143,0.06788590550422668,-0.15447232127189636,0.3316989541053772,-7.006781578063965,-1.0251145362854004,-0.07807140052318573,0.29591843823556535,0.3350223134779036,-0.1792451876878772
2.281109094619751,0.06803765892982483,-0.09319637715816498,0.3704456686973572,-7.013579845428467,-1.101097583770752,-0.18479934334754944,0.2288961536094886,0.3187021133717139,-0.15736657187632724
2.2885711193084717,0.06738471984863281,0.004136085510253906,0.42197734117507935,-6.8023529052734375,-1.2935749292373657,-0.10218621790409088,0.16236511976757917,0.302904598550863,-0.13719219528246476
2.297459125518799,0.09172487258911133,0.18978221714496613,0.3760467767715454,-6.337200164794922,-1.5853819847106934,-0.002674541901797056,0.09915493451681895,0.2860273309350559,-0.11833711271514981
2.307462215423584,0.1346006691455841,0.24289889633655548,0.3013983368873596,-5.789743900299072,-1.8531359434127808,-0.035545140504837036,0.04085347969226876,0.2675586837888783,-0.10187193290800813
2.317708969116211,0.17084135115146637,0.1662634313106537,0.25419074296951294,-5.269050121307373,-2.030304193496704,-0.003865028265863657,-0.012859737606383858,0.2479406548735509,-0.08797976721505497
2.330073118209839,0.17428255081176758,0.16660703718662262,0.2309964895248413,-4.844930648803711,-2.2216200828552246,0.06676573306322098,-0.061871653039700145,0.22706586835142384,-0.07576125183321047
2.3378350734710693,0.1530459225177765,0.19317014515399933,0.2251434326171875,-4.5002760887146,-2.2686121463775635,0.04192424565553665,-0.10732865999951187,0.2053412118804471,-0.06508758333889789
2.3545150756835938,0.11233396828174591,0.08328360319137573,0.1974387764930725,-4.410971164703369,-2.148580551147461,-0.08647900074720383,-0.15099298617581564,0.18427958234092115,-0.056577542435874914
2.362194061279297,0.041831061244010925,-0.06432552635669708,0.14592695236206055,-4.478371620178223,-1.9874846935272217,-0.24461713433265686,-0.1950302778500023,0.16460879031204811,-0.05045746743239663
2.368195056915283,-0.009982168674468994,-0.11623738706111908,0.14850836992263794,-4.622269153594971,-1.8801411390304565,-0.2072433978319168,-0.24048145806622553,0.1463533530727783,-0.045666286524766425
2.3797202110290527,-0.011343173682689667,-0.004234403371810913,0.14649683237075806,-4.581620693206787,-1.8720533847808838,-0.06662992388010025,-0.2863925613482195,0.12893673238182293,-0.04047704948444482
2.387834072113037,0.023336514830589294,0.09568580985069275,0.14640671014785767,-4.443919658660889,-1.8211898803710938,-0.037971653044223785,-0.3313494153916682,0.11198944529201932,-0.035228760188633954
2.4045591354370117,0.039747029542922974,0.0312955379486084,0.1287577748298645,-4.2599358558654785,-1.6870758533477783,-0.06997821480035782,-0.3747371561281556,0.09582323202031902,-0.030986636234383705
2.412668228149414,0.002587229013442993,-0.022380411624908447,0.11486172676086426,-3.899669647216797,-1.5556875467300415,-0.05866377428174019,-0.4159049218597362,0.08099777771535636,-0.02779689552465327
2.4296810626983643,-0.03941871225833893,-0.010294407606124878,0.10876470804214478,-3.158480167388916,-1.4946023225784302,-0.18713760375976562,-0.4508600813967606,0.06618711278966442,-0.026155632603885575
2.4319300651550293,-0.041400711983442307,-0.010362297296524048,0.06170189380645752,-2.612795114517212,-1.3302743434906006,-0.30812686681747437,-0.47996448226533295,0.051634357271241625,-0.027134766304983602
2.439221143722534,-0.05813390761613846,-0.031122148036956787,0.009479165077209473,-1.9944169521331787,-1.142771601676941,-0.29350799322128296,-0.5031495199999294,0.03815080312687973,-0.029414721219398757
2.45499324798584,-0.07770524173974991,0.044208675622940063,-0.032869696617126465,-1.3884798288345337,-0.9312980771064758,-0.2871089577674866,-0.5201440919477989,0.026423334338809897,-0.03209926836526936
2.4626591205596924,-0.06656229496002197,0.044067323207855225,-0.06369870901107788,-0.9652917981147766,-0.6983863115310669,-0.23498810827732086,-0.5318820025402394,0.016859507185939218,-0.03493748379980857
2.4686031341552734,-0.05852551758289337,0.08359050750732422,-0.054891884326934814,-0.5787544846534729,-0.5733804702758789,-0.025447124615311623,-0.53959782287578,0.009862857083873683,-0.0363844609789068
2.480318069458008,-0.04555560275912285,0.23293375968933105,-0.01927393674850464,-0.30603882670402527,-0.5334250330924988,0.15604835748672485,-0.5439724590519235,0.0047707752209065705,-0.035471154009538354
2.487710952758789,-0.021633291617035866,0.20046460628509521,0.02239203453063965,-0.19673097133636475,-0.43046513199806213,0.16978920996189117,-0.5463262515940875,0.0009599658671480094,-0.03344372008005166
2.4977641105651855,-0.02678687497973442,-0.01168060302734375,0.04224061965942383,-0.26559796929359436,-0.3030183017253876,0.08836130052804947,-0.5486163929042658,-0.0019224445400414483,-0.031915691243250666
2.5079092979431152,-0.07016944140195847,-0.135656476020813,0.03393840789794922,-0.33442631363868713,-0.19501113891601562,0.006076818332076073,-0.551585590700657,-0.004109538781832248,-0.03138099450324536
2.517860174179077,-0.08614611625671387,-0.1374204158782959,0.01659369468688965,-0.4335000216960907,-0.11967391520738602,-0.0407896488904953,-0.5554528695613796,-0.0058066687715180665,-0.031638735106548556
2.529572010040283,-0.05863562598824501,-0.09256476163864136,-0.023951828479766846,-0.49762412905693054,-0.04049627110362053,-0.053210899233818054,-0.5601169917250944,-0.006956993342977959,-0.03226074448953611
2.537835121154785,-0.027916470542550087,-0.058708786964416504,-0.07052111625671387,-0.5213887691497803,0.0769399031996727,-0.050658952444791794,-0.5652623891021091,-0.007164102274075867,-0.03293344031292381
2.554577112197876,-0.018215347081422806,-0.06556892395019531,-0.11840111017227173,-0.48792901635169983,0.2395802140235901,-0.026616733521223068,-0.5703224796655022,-0.005859782982711975,-0.033450549533372585
2.56268310546875,-0.021401990205049515,-0.08366715908050537,-0.13123923540115356,-0.441670686006546,0.37961387634277344,0.030396167188882828,-0.5749717735204067,-0.0027165152460247397,-0.03348024887132345
2.5800061225891113,-0.021006815135478973,-0.03288763761520386,-0.08605772256851196,-0.29062923789024353,0.3832986354827881,0.12673388421535492,-0.5787239010463442,0.0016895785161941566,-0.03257992759564402
2.581958293914795,-0.014765298925340176,0.10018432140350342,-0.0023748278617858887,-0.10948246717453003,0.3154967427253723,0.23835527896881104,-0.5806936957885227,0.006399601684661026,-0.03037854797227769
2.5901360511779785,0.006313051097095013,0.12438797950744629,0.06124657392501831,-0.019811708480119705,0.2671257257461548,0.3004625737667084,-0.5812008873167652,0.01112318773388555,-0.027076276915856498
2.6045331954956055,0.013281597755849361,0.04219794273376465,0.08155959844589233,-0.06437017023563385,0.26196563243865967,0.29162225127220154,-0.5815734250001552,0.01569719229805337,-0.023484183955250752
2.6125621795654297,-0.009928673505783081,-0.040313661098480225,0.06937962770462036,-0.1490624099969864,0.3135569095611572,0.27183467149734497,-0.5825320418190411,0.02044241849597664,-0.020093292777666517
2.6206891536712646,-0.029920151457190514,-0.07804352045059204,0.03830510377883911,-0.2722424864768982,0.3529278635978699,0.2622189521789551,-0.5846104532752223,0.025579824054684407,-0.01683467684559746
2.629117965698242,-0.025385484099388123,-0.044716477394104004,0.01130056381225586,-0.4054309129714966,0.3744446039199829,0.24644319713115692,-0.5879053940282837,0.030989234673387985,-0.01365572086251932
2.638301134109497,-0.010237570852041245,-0.018060743808746338,0.004259347915649414,-0.4662743806838989,0.4198080599308014,0.23467181622982025,-0.592241015129399,0.036659910177308686,-0.01058610897306256
2.6546850204467773,-0.006761159747838974,-0.019648849964141846,0.007116258144378662,-0.45150208473205566,0.4943073093891144,0.23428405821323395,-0.5967735529114342,0.04292346965436768,-0.007541298807455726
2.663236141204834,-0.02380300685763359,-0.009303867816925049,0.003271043300628662,-0.400241881608963,0.573346734046936,0.24835629761219025,-0.6009491271148507,0.05004394569673379,-0.004400385521474372
2.679800033569336,-0.041921742260456085,0.03472483158111572,0.010513663291931152,-0.2728351950645447,0.6213951706886292,0.27570587396621704,-0.6042186975655864,0.057963616944098746,-0.001015235314564248
2.6817550659179688,-0.051342274993658066,0.09154599905014038,0.029784440994262695,-0.15407955646514893,0.6140033602714539,0.303344190120697,-0.6060772211121215,0.06630446723136965,0.0027021909413827484
2.6891250610351562,-0.05595656856894493,0.1178705096244812,0.03485405445098877,-0.03335952386260033,0.6033201217651367,0.2754094898700714,-0.6068534070702902,0.07444815313693612,0.006347392053361746
2.704738140106201,-0.06253674626350403,0.07703018188476562,0.04555821418762207,0.05573604628443718,0.6083891987800598,0.20788227021694183,-0.6065286063326756,0.08218522987246044,0.00928085760446018
2.7124130725860596,-0.07801195979118347,0.01820451021194458,0.03124070167541504,0.12474760413169861,0.6172295808792114,0.1366696059703827,-0.6054740553670733,0.08944860524992078,0.011257979153805976
2.718844175338745,-0.09417136013507843,0.04109370708465576,0.009687423706054688,0.1766146421432495,0.6216757297515869,0.08672276884317398,-0.6038591978372734,0.09633048647218984,0.01243427453467535
2.730863094329834,-0.09185139089822769,0.07947862148284912,-0.011153876781463623,0.21660174429416656,0.6319166421890259,0.04216568544507027,-0.6018476535938085,0.10289329072540514,0.012957565319260324
2.738032102584839,-0.08677682280540466,0.09297627210617065,-0.03152841329574585,0.27301016449928284,0.6681737899780273,0.015331996604800224,-0.5993768454158432,0.10939855565070437,0.012975938102728466
2.7480461597442627,-0.09380056709051132,0.08991396427154541,-0.04655724763870239,0.3223699927330017,0.6930429339408875,-0.005176208913326263,-0.5964173726383124,0.11603193230169773,0.012623738433761031
2.7583601474761963,-0.10140730440616608,0.10457158088684082,-0.06036096811294556,0.3789594769477844,0.7014746069908142,-0.017147278413176537,-0.5929246819346965,0.12267852013500133,0.011981689445041214
2.768280029296875,-0.09818804264068604,0.11755204200744629,-0.06800305843353271,0.40781721472740173,0.6840687394142151,-0.03294887766242027,-0.5890532304255203,0.12912924021125874,0.011100799559148439
2.7795939445495605,-0.09114330261945724,0.10027074813842773,-0.06566548347473145,0.44444188475608826,0.6529743671417236,-0.06401779502630234,-0.584903233667107,0.13512788887423105,0.009859276169827165
2.788288116455078,-0.0887598842382431,0.07429301738739014,-0.05022716522216797,0.4845759868621826,0.6010112762451172,-0.10339768975973129,-0.5803982735965126,0.1404685625204395,0.008104986993291825
2.804988145828247,-0.0874747782945633,0.06594353914260864,-0.03617525100708008,0.5300873517990112,0.5307040214538574,-0.14890839159488678,-0.5755739796088367,0.14483463806371435,0.005750065875316304
2.8130171298980713,-0.07480793446302414,0.07018715143203735,-0.02053314447402954,0.5647023320198059,0.45919734239578247,-0.18222613632678986,-0.570360315020388,0.14820881754944898,0.0028334961510037707
2.8296279907226562,-0.05331164598464966,0.06719952821731567,-0.02041792869567871,0.5888838171958923,0.39599716663360596,-0.1997302919626236,-0.5649276155575857,0.15072911701583763,-0.0004371801313521067
2.8316540718078613,-0.034745872020721436,0.07153373956680298,-0.028244316577911377,0.5936141014099121,0.3468698263168335,-0.20598340034484863,-0.559372259860066,0.15260735445463638,-0.0038751849636854976
2.8391261100769043,-0.019325509667396545,0.06122869253158569,-0.04032868146896362,0.5910224914550781,0.3108133375644684,-0.2053987830877304,-0.5538074779762743,0.15406186672033673,-0.007344674990518392
2.8548712730407715,-0.010504499077796936,0.04465377330780029,-0.0465085506439209,0.5625892281532288,0.27528008818626404,-0.19911186397075653,-0.5483852002475841,0.15520832445451166,-0.010740231401963408
2.86253023147583,-0.003622591495513916,0.025967299938201904,-0.04704028367996216,0.5070728063583374,0.24492189288139343,-0.18587222695350647,-0.5433796840851948,0.1561405377223297,-0.01395239365922207
2.8688912391662598,0.004111483693122864,0.011336326599121094,-0.04204833507537842,0.4144294559955597,0.21334825456142426,-0.17160193622112274,-0.5390865625315125,0.15694332334907402,-0.01685049859024414
2.88132905960083,0.01245647668838501,-0.003512442111968994,-0.03276461362838745,0.30348971486091614,0.184417724609375,-0.15674884617328644,-0.5357848573480485,0.15762227143949786,-0.019405227845596885
2.888237953186035,0.017958596348762512,-0.020413577556610107,-0.0142059326171875,0.1961270570755005,0.15076468884944916,-0.14277897775173187,-0.5335616897511462,0.15819222875514463,-0.02158281543693215
2.8983380794525146,0.025412872433662415,-0.029400408267974854,0.007379055023193359,0.11820271611213684,0.10422318428754807,-0.13229411840438843,-0.5322323537991658,0.15854200872139307,-0.023441084324540118
2.908379077911377,0.03225824236869812,-0.026573240756988525,0.02420032024383545,0.05600326135754585,0.05468306317925453,-0.12360820919275284,-0.5315900318540382,0.15850632830314448,-0.0250652578921545
2.9185791015625,0.03840827941894531,-0.03570437431335449,0.03498733043670654,0.024912934750318527,0.025489890947937965,-0.11962272971868515,-0.5313849916547676,0.1581456582041643,-0.02653159260717253
2.9324421882629395,0.04585348069667816,-0.057999372482299805,0.035861432552337646,0.0180214736610651,0.007328996434807777,-0.11250383406877518,-0.5313695338497234,0.15760782454189023,-0.027902210634295776
2.941481113433838,0.04529796540737152,-0.0607607364654541,0.022773921489715576,0.028021642938256264,-0.0011489102616906166,-0.10131137073040009,-0.5313158141819564,0.1569828649608753,-0.02917219208215484
2.954766273498535,0.047663405537605286,-0.053674161434173584,0.013330698013305664,0.04812025651335716,0.008457377552986145,-0.08677263557910919,-0.5310959462881948,0.15642457945096247,-0.030320526594799738
2.9627561569213867,0.04471294581890106,-0.05536448955535889,0.010509014129638672,0.07440623641014099,0.03304070606827736,-0.06900989264249802,-0.5305965597144843,0.1561161820764603,-0.03133041453645627
2.979962110519409,0.03799520432949066,-0.06080830097198486,0.007115781307220459,0.08296457678079605,0.05614496022462845,-0.05584828183054924,-0.5299025192115377,0.1561282780946861,-0.03218362569127594
2.98207426071167,0.031984999775886536,-0.06516420841217041,0.006292223930358887,0.08665572851896286,0.0898132175207138,-0.04270866885781288,-0.5291329484628289,0.15648479743351673,-0.032902698227761935
2.989692211151123,0.02963446080684662,-0.0750354528427124,0.012804090976715088,0.07227625697851181,0.11368313431739807,-0.037983957678079605,-0.5283893682745611,0.15722205664759306,-0.0335011367038696
3.0048930644989014,0.025702103972434998,-0.07970428466796875,0.016739308834075928,0.05773622915148735,0.13605262339115143,-0.03798976168036461,-0.5278236270084816,0.15818395022604895,-0.03404557022169739
3.013676166534424,0.019592955708503723,-0.08396470546722412,0.02125871181488037,0.04638237506151199,0.15136367082595825,-0.038378048688173294,-0.5272975725461385,0.15951862392009272,-0.0344982587172526
3.030233144760132,0.022146955132484436,-0.08863526582717896,0.017753183841705322,0.04981545731425285,0.15526564419269562,-0.037152249366045,-0.5268048229808181,0.16093197188098537,-0.034959639773974725
3.038361072540283,0.023543283343315125,-0.07461374998092651,0.008834779262542725,0.07595677673816681,0.16415473818778992,-0.03579909726977348,-0.5262062400811423,0.16235032215716355,-0.03545341305177893
3.05482816696167,0.027349740266799927,-0.06644600629806519,6.61611557006836e-05,0.1104104220867157,0.16723760962486267,-0.023652315139770508,-0.525283924027505,0.16382733702848712,-0.035931828073128384
3.0639431476593018,0.03032553195953369,-0.057907938957214355,-0.012973189353942871,0.1502246856689453,0.17122995853424072,-0.01255785208195448,-0.5239696509050775,0.16534481403142284,-0.036358937284693235
3.0801751613616943,0.028656095266342163,-0.047257304191589355,-0.021940767765045166,0.1787676066160202,0.18207195401191711,0.004922018386423588,-0.5222786708372369,0.16697459094420278,-0.03669551241643649
3.088773250579834,0.02727709710597992,-0.048269957304000854,-0.02828758955001831,0.19142773747444153,0.1965177357196808,0.024353239685297012,-0.5203319482854286,0.16882632294812644,-0.03686392048973141
3.1045501232147217,0.024528861045837402,-0.044859349727630615,-0.03314441442489624,0.19347205758094788,0.19771340489387512,0.04029470682144165,-0.5182664330659464,0.17085483382678332,-0.03684276471623135
3.1124072074890137,0.025644734501838684,-0.042234450578689575,-0.028455376625061035,0.1841547191143036,0.18737368285655975,0.04462261497974396,-0.5161944828452124,0.17289294115880355,-0.03670394779848148
3.129678249359131,0.025031566619873047,-0.045313745737075806,-0.0193861722946167,0.1731930524110794,0.17115868628025055,0.05018137767910957,-0.5141921134778815,0.1748513181301021,-0.036492418163039456
3.1378211975097656,0.02311144769191742,-0.045034170150756836,-0.011034607887268066,0.15744923055171967,0.13948197662830353,0.04500019550323486,-0.5123472952501276,0.17656727260459928,-0.03625781610363978
3.154595136642456,0.02524454891681671,-0.036238670349121094,-0.005923926830291748,0.14209818840026855,0.10449544340372086,0.045637596398591995,-0.5106425748788931,0.1779461100637888,-0.03601975689802489
3.162421226501465,0.028942450881004333,-0.026519477367401123,-0.0074920654296875,0.12165151536464691,0.07513036578893661,0.053760770708322525,-0.5091048646801137,0.1790461385592624,-0.035687175209166665
3.1685051918029785,0.029471158981323242,-0.017216622829437256,-0.014270186424255371,0.1032172441482544,0.05127332732081413,0.064254529774189,-0.5077306287142668,0.17996082600762286,-0.03521156115464047
3.1745471954345703,0.025356963276863098,-0.009903788566589355,-0.020521163940429688,0.08488377928733826,0.035948701202869415,0.0749436616897583,-0.5064344748320989,0.180763302007108,-0.03457291646052174
3.1813530921936035,0.019238322973251343,-0.016509562730789185,-0.022156894207000732,0.0613231398165226,0.0264015793800354,0.08003982901573181,-0.5052643259112416,0.18151340533986224,-0.033804533743964076
3.1892952919006348,0.011159449815750122,-0.024318963289260864,-0.019313395023345947,0.04245171695947647,0.017827531322836876,0.08458531647920609,-0.5043367823174277,0.18224259851121305,-0.03293522456774166
3.1951489448547363,0.0035763829946517944,-0.022488713264465332,-0.009714365005493164,0.029701683670282364,0.00963844545185566,0.08705396205186844,-0.5035536138534464,0.1829418768049949,-0.03197379001029276
3.2040181159973145,0.0003749728202819824,-0.020933419466018677,0.001215517520904541,0.016169361770153046,0.00029501086100935936,0.08735143393278122,-0.5029104105303265,0.1835814425136815,-0.030972262936455632
3.208400249481201,-0.0016209185123443604,-0.020116180181503296,0.006637156009674072,0.011803776025772095,-0.015143422409892082,0.08325405418872833,-0.5024304865553255,0.18411334261838525,-0.029964126348411887
3.2133870124816895,-0.002177610993385315,-0.018815994262695312,0.012630343437194824,0.015713827684521675,-0.023365400731563568,0.07649175077676773,-0.5020091242337288,0.18452149420507902,-0.02900208780546013
3.220149040222168,0.0004776120185852051,-0.0157870352268219,0.011935055255889893,0.023956961929798126,-0.03428902104496956,0.06919421255588531,-0.5015477894619719,0.1847926900672691,-0.028139113219766712
3.2290592193603516,0.00031398236751556396,-0.004788517951965332,0.004725217819213867,0.024676814675331116,-0.044257767498493195,0.06765943020582199,-0.5010815075460078,0.18488161751222398,-0.027348035204178552
3.2386622428894043,0.003707900643348694,0.0038084089756011963,-0.0012723803520202637,0.034023694694042206,-0.049332551658153534,0.06648349016904831,-0.5005177238092965,0.18483411825383986,-0.02661223622782859
3.248577117919922,0.00713445246219635,-0.0003281235694885254,0.0004757046699523926,0.03532304987311363,-0.05157972872257233,0.06201230734586716,-0.49987590927861997,0.18467016331547667,-0.025955883199964364
3.259026050567627,0.002679571509361267,-0.002148836851119995,0.008349478244781494,0.030070515349507332,-0.054719727486371994,0.06243724748492241,-0.499307912197349,0.184434638480302,-0.02532983090197808
3.2689661979675293,-0.0018385350704193115,0.0002892613410949707,0.01530677080154419,0.019419467076659203,-0.04820830002427101,0.06404925137758255,-0.4988598423223069,0.18423176112928233,-0.02466754766787411
3.279776096343994,-0.003219321370124817,-0.004647880792617798,0.020298898220062256,0.015449842438101768,-0.04019550979137421,0.06281940639019012,-0.49850468023460165,0.18411604990347652,-0.023985339218318014
3.2888691425323486,-0.007068470120429993,-0.008653104305267334,0.02418571710586548,0.008256644010543823,-0.03257301077246666,0.06013920158147812,-0.49823518252282634,0.1840756140376201,-0.023323181203255793
3.305233955383301,-0.007345065474510193,-0.006806105375289917,0.02083289623260498,0.00841571856290102,-0.027656950056552887,0.05322866886854172,-0.49802598614488053,0.1840920202919749,-0.022692521007653267
3.3139729499816895,-0.0043679773807525635,-0.008356928825378418,0.01951509714126587,0.007891342043876648,-0.020599307492375374,0.046290602535009384,-0.49786331101410086,0.18412667366077054,-0.02214773600537779
3.32968807220459,-0.005656719207763672,-0.014415144920349121,0.01937687397003174,0.013485396280884743,-0.011560406535863876,0.04126761481165886,-0.4977075800819743,0.18420733111585766,-0.021682204635636255
3.331663131713867,-0.010089054703712463,-0.013723403215408325,0.018705904483795166,0.005212285090237856,-0.00756033742800355,0.03525819256901741,-0.49756282161196563,0.18434241101891755,-0.02125641836453691
3.3390390872955322,-0.012426912784576416,-0.01770833134651184,0.022744834423065186,0.001861479366198182,-0.0024524391628801823,0.030858544632792473,-0.49746135617931797,0.18447725057829378,-0.020884587569269582
3.354635238647461,-0.014811620116233826,-0.025751441717147827,0.029518723487854004,-0.001184644177556038,0.010976283811032772,0.02915412001311779,-0.49742862509999736,0.1846732114268043,-0.02055305821840716
3.3625240325927734,-0.0186987966299057,-0.0335426926612854,0.030636310577392578,-0.014566762372851372,0.01927957683801651,0.030296776443719864,-0.4974739020931149,0.1849913500120973,-0.0202039769064563
3.3729171752929688,-0.022677913308143616,-0.03022611141204834,0.029096484184265137,-0.004020111635327339,0.03301269933581352,0.03165765106678009,-0.49751980921942857,0.18541604120096525,-0.019833655377751745
3.381701946258545,-0.022921442985534668,-0.029388844966888428,0.02661818265914917,0.0038481310475617647,0.04649406298995018,0.03621245548129082,-0.49746993664408795,0.1859755921224926,-0.0194660424813536
3.3888580799102783,-0.022540763020515442,-0.023380041122436523,0.015601515769958496,0.005874796770513058,0.05490219593048096,0.042765162885189056,-0.4973520228037975,0.18668886080523378,-0.019035230305589044
3.3988232612609863,-0.021810472011566162,-0.010793685913085938,0.0048215389251708984,0.011597762815654278,0.062063347548246384,0.046870000660419464,-0.49718083010608194,0.1875042012514077,-0.018545667917338964
3.4090800285339355,-0.019148245453834534,-0.00973626971244812,0.003300309181213379,0.012645983137190342,0.05765528231859207,0.04203103855252266,-0.4969499647864104,0.18832026917435013,-0.018081446060871018
3.4190382957458496,-0.018556371331214905,-0.010526061058044434,0.004043757915496826,0.016073472797870636,0.042114585638046265,0.03583380952477455,-0.49675486804927677,0.18899291707115454,-0.017675961872141963
3.429704189300537,-0.014339923858642578,-0.008990973234176636,0.007294118404388428,0.018520385026931763,0.029056040570139885,0.02462562918663025,-0.4965187458161888,0.18947506446223045,-0.01738888787546422
3.4390320777893066,-0.005087316036224365,-0.011545360088348389,0.009051978588104248,0.009593901224434376,0.013666342943906784,0.023259906098246574,-0.49631753510591486,0.1897478550766643,-0.01718310830595957
3.4549050331115723,-4.482269287109375e-05,0.003680318593978882,0.0031113624572753906,0.0036768896970897913,0.0013657347299158573,0.02317255362868309,-0.4961816617631719,0.189884535350087,-0.01697380177714419
3.4629480838775635,0.005188003182411194,0.01156693696975708,-0.007306456565856934,0.003179594175890088,0.0010519702918827534,0.029301341623067856,-0.4960800375389736,0.18996342296252272,-0.01671938043195716
3.4805049896240234,0.008662968873977661,0.011566609144210815,-0.017266511917114258,0.004167094826698303,0.009346917271614075,0.03396400064229965,-0.495958967687975,0.19009681073347437,-0.016412961456718955
3.4825751781463623,0.00459723174571991,0.009925425052642822,-0.02050495147705078,0.0007617936935275793,0.020143860951066017,0.04163619503378868,-0.49584717889034124,0.19034047477108282,-0.016043248855649683
3.4901909828186035,0.001390412449836731,0.010129809379577637,-0.020711839199066162,0.0014976251404732466,0.028198059648275375,0.0488126166164875,-0.4957362656473907,0.19070279496812173,-0.01559818334129783
3.505434989929199,0.002368941903114319,0.006455928087234497,-0.014722347259521484,0.0035652369260787964,0.03510221466422081,0.05065019801259041,-0.4955935538694528,0.19114496799195826,-0.01511891185570302
3.5141761302948,0.0007784217596054077,0.0023175179958343506,-0.0082169771194458,0.00816265121102333,0.04204907268285751,0.04952234774827957,-0.49542379767930544,0.1916790715117029,-0.014622500208049893
3.5303750038146973,-0.0012521743774414062,0.001175522804260254,-0.0025392770767211914,0.011531800031661987,0.04924790561199188,0.04536840692162514,-0.49521294841168595,0.19234732438025257,-0.01412767063607218
3.537917137145996,-0.0025749951601028442,-0.0034267306327819824,0.0031024813652038574,0.016529489308595657,0.05873328819870949,0.044936440885066986,-0.49501547714565786,0.19309849190877765,-0.013656959225076796
3.5550169944763184,-0.005770832300186157,-0.007656455039978027,0.004759669303894043,0.01736404001712799,0.07146483659744263,0.04402334988117218,-0.4948108830268192,0.1939681194895118,-0.013198385232973111
3.5631470680236816,-0.010140538215637207,-0.010993361473083496,0.00491642951965332,0.023224325850605965,0.08819268643856049,0.044478751718997955,-0.4945280344989236,0.19498722466628265,-0.012745881907874457
3.580045223236084,-0.015209630131721497,-0.014744967222213745,0.00429534912109375,0.03473978489637375,0.10543199628591537,0.04719948768615723,-0.4941617241871757,0.19613571352801115,-0.012304828100579108
3.5878541469573975,-0.020508021116256714,-0.013966470956802368,0.005383849143981934,0.05148520693182945,0.12929125130176544,0.04848179966211319,-0.49365880209463314,0.19746421906546185,-0.011878707456559622
3.5941200256347656,-0.02456618845462799,-0.018574029207229614,0.004628300666809082,0.07105732709169388,0.15065525472164154,0.05196643993258476,-0.49296514511940737,0.19901420188068158,-0.011487037078464738
3.6005101203918457,-0.027512118220329285,-0.013257771730422974,0.0009413957595825195,0.08329029381275177,0.16036328673362732,0.051373619586229324,-0.49210958909690533,0.20072456888955917,-0.011094299541983365
3.609070062637329,-0.026286885142326355,-0.005741298198699951,0.0007123947143554688,0.09693627804517746,0.16931146383285522,0.04309023171663284,-0.49114723416942374,0.20246900508698742,-0.01079381735541342
3.6146912574768066,-0.024270251393318176,-0.005011379718780518,-0.0007355213165283203,0.11084410548210144,0.17377279698848724,0.031601887196302414,-0.4900775139356691,0.2042029613803669,-0.010652422130385177
3.6215600967407227,-0.022805556654930115,-0.0021074116230010986,-0.007336854934692383,0.1209692656993866,0.1707592010498047,0.017751529812812805,-0.48889641508585896,0.2058381577797591,-0.010691986129225367
3.629241943359375,-0.019653096795082092,0.007236510515213013,-0.01512080430984497,0.1314658373594284,0.16202004253864288,0.0026354282163083553,-0.48762885480118545,0.20729293288785275,-0.010933233583209733
3.6392180919647217,-0.013396725058555603,0.016453176736831665,-0.027282357215881348,0.1438557654619217,0.1464844048023224,-0.007992874830961227,-0.48628174231422727,0.20850085850763364,-0.011366005827886426
3.6491031646728516,-0.009088590741157532,0.026669055223464966,-0.040741026401519775,0.15649007260799408,0.12533757090568542,-0.019879093393683434,-0.48484097875864113,0.209427145019248,-0.011965931028857974
3.6593520641326904,-0.004602059721946716,0.02742856740951538,-0.045062482357025146,0.1642066091299057,0.09590555727481842,-0.03504366800189018,-0.48331052467534863,0.20999566127744412,-0.012761588763020736
3.669307231903076,-0.0023833513259887695,0.026793718338012695,-0.04200875759124756,0.16589584946632385,0.05738932266831398,-0.046374619007110596,-0.48177065577730266,0.21013355260841232,-0.01371478676155726
3.679840087890625,-9.262561798095703e-05,0.02164176106452942,-0.034706830978393555,0.16168265044689178,0.01640518195927143,-0.052190590649843216,-0.4803185892588083,0.2098466401584697,-0.014752522594150006
3.689329147338867,0.003161489963531494,0.00883185863494873,-0.02508002519607544,0.13147760927677155,-0.02332465350627899,-0.055683061480522156,-0.4790029949951168,0.20918656670048394,-0.015782454121418134
3.7047810554504395,0.003657236695289612,-4.035234451293945e-05,-0.020107567310333252,0.0949501097202301,-0.05897146835923195,-0.058503665030002594,-0.47808246777466346,0.20821583414471234,-0.016744913380368667
3.7128970623016357,0.008781000971794128,-0.006231367588043213,-0.007528841495513916,0.06318099796772003,-0.09662669152021408,-0.057899393141269684,-0.47747650207137515,0.20692426519652724,-0.017627721661905134
3.730130195617676,0.0128680020570755,-0.019128859043121338,0.006503939628601074,0.03549352288246155,-0.12003157287836075,-0.058766040951013565,-0.47715441236216777,0.20540032710659142,-0.018420629686168092
3.7319700717926025,0.008651569485664368,-0.022567957639694214,0.01740574836730957,0.015157626941800117,-0.12882746756076813,-0.047636423259973526,-0.4770751140513161,0.20378361251001123,-0.019100480432551702
3.743551254272461,0.0035653412342071533,-0.02315041422843933,0.02427154779434204,0.01274423860013485,-0.12506459653377533,-0.032819394022226334,-0.4770780237454575,0.20224647788484643,-0.019594930265321987
3.7497849464416504,0.00394110381603241,-0.02545824646949768,0.02754974365234375,0.02122054621577263,-0.11521782726049423,-0.017222857102751732,-0.47701358938869315,0.20087878642709087,-0.019921205696139622
3.7594940662384033,0.002916872501373291,-0.024185925722122192,0.0284309983253479,0.04160876199603081,-0.10099543631076813,-0.0008239112794399261,-0.4767665299552154,0.199715901940559,-0.0200963531228819
3.7693662643432617,0.007250472903251648,-0.02078843116760254,0.03402596712112427,0.07731802016496658,-0.08693421632051468,0.021625472232699394,-0.47615426324643323,0.1987935946637,-0.020102750176705195
3.779872179031372,0.010886281728744507,-0.020525217056274414,0.04156029224395752,0.11004607379436493,-0.06789731979370117,0.038213979452848434,-0.4751716136750733,0.19810920996083242,-0.019944713251471978
3.7895612716674805,0.009260758757591248,-0.02113279700279236,0.04857701063156128,0.11973358690738678,-0.06929228454828262,0.050969455391168594,-0.4739162334431346,0.19758682491670956,-0.019703826585024727
3.804840087890625,0.011821076273918152,-0.020390361547470093,0.056394219398498535,0.12552648782730103,-0.08170181512832642,0.05652933940291405,-0.47258497755982926,0.19703459843018098,-0.019340314239536704
3.812386989593506,0.02303631603717804,-0.019910871982574463,0.06909972429275513,0.11311803013086319,-0.09590738266706467,0.05435539782047272,-0.47125861559814025,0.19634067124665017,-0.018975861004271795
3.819526195526123,0.03237508237361908,-0.02364414930343628,0.07333564758300781,0.08097199350595474,-0.10363449901342392,0.06061483919620514,-0.47017426355876535,0.1955499425366434,-0.01856048457401071
3.8303170204162598,0.03485181927680969,-0.016913563013076782,0.07333576679229736,0.023828014731407166,-0.10392718017101288,0.06883655488491058,-0.4695051719129423,0.1947969680737897,-0.01795430310567177
