timestamp,accel_x,accel_y,accel_z,rotation_x,rotation_y,rotation_z, pitch,roll,yaw
0.04417300224304199,-0.001500353217124939,-0.005051363259553909,0.005448341369628906,0.00033112731762230396,0.010545908473432064,-0.003780367085710168,-0.04528903463955287,0.15429280034606593,0.0035014278747543585
0.05737709999084473,-0.004290834069252014,-0.005646277219057083,0.0038735270500183105,-0.004568023607134819,0.010415946133434772,-0.008615869097411633,-0.045334683394487346,0.1543994333302325,0.0034414451037076492
0.06900715827941895,-0.0040449947118759155,-0.0045609138906002045,0.007294833660125732,-0.0033267743419855833,0.0016907646786421537,-0.008361749351024628,-0.04539378749569274,0.1544599610084245,0.0033710925368682565
0.07098603248596191,-0.0028356164693832397,-0.0033968351781368256,0.009577572345733643,-0.00036640441976487637,0.004234083462506533,-0.0077367061749100685,-0.045435194777653634,0.1544871861830663,0.0033055500319019208
0.07868003845214844,-0.0062055885791778564,-0.005935695022344589,0.006894111633300781,-0.0042326487600803375,0.010380569845438004,-0.008299006149172783,-0.04547165589230553,0.15456248084978394,0.0032303503270673267
0.08333086967468262,-0.008319497108459473,-0.0061212629079818726,0.0026780366897583008,-0.009129403159022331,0.009403456002473831,-0.008071038872003555,-0.0455657656592174,0.15466420534619713,0.003156694887614799
0.0895850658416748,-0.004964038729667664,-0.005021657794713974,0.004068613052368164,-0.0003852464724332094,0.004006383009254932,-0.005150137469172478,-0.04564116181096157,0.15472807927938803,0.003091719186275513
0.09839797019958496,-0.002634018659591675,-0.0023067034780979156,0.0034539103507995605,0.01682170294225216,0.004927037749439478,-0.0021652665454894304,-0.04556590487668842,0.15477856211845725,0.00304303307146384
0.10834288597106934,-0.0035327523946762085,0.0008935071527957916,0.00038754940032958984,0.015940995886921883,0.0016388329677283764,-0.00015484628966078162,-0.04540202091704302,0.15482220408710945,0.0030019855815216806
0.11835694313049316,-0.003942161798477173,-0.0005596652626991272,0.002301454544067383,0.013421911746263504,-0.0026528509333729744,-0.002399891149252653,-0.04526814139477237,0.15481864644788162,0.002966075505794057
0.12836289405822754,-0.005269348621368408,-0.0056872181594371796,0.008247435092926025,0.011123071424663067,-0.003186637070029974,-0.0038047616835683584,-0.04514655177267472,0.15478655002213676,0.0029194248808354123
0.14054203033447266,-0.006719544529914856,-0.005426619201898575,0.007215261459350586,-0.005097443703562021,-0.0034974277950823307,-0.006904681213200092,-0.04513007170894828,0.15475613268425578,0.0028645153156783222
0.14835405349731445,-0.005991503596305847,-0.003766249865293503,0.005297183990478516,-0.008763251826167107,-0.00811481662094593,-0.010466339997947216,-0.04522456034592806,0.15469940781736424,0.0027918013437952696
0.1584460735321045,-0.004892811179161072,-0.004911154508590698,0.0027766823768615723,-0.006192768923938274,-0.013020094484090805,-0.012265837751328945,-0.04531669928088326,0.15459178025570783,0.0026880982673818253
0.16849303245544434,-0.0039891451597213745,-0.002216566354036331,0.002749025821685791,-0.005074889864772558,-0.015162385068833828,-0.010908158496022224,-0.045399305083216324,0.154449792133602,0.002578708706800607
0.17854809761047363,-0.006193280220031738,-0.0022800788283348083,0.0027534961700439453,-0.0018924124306067824,-0.0125282509252429,-0.00808520708233118,-0.045462875519596976,0.1543026177765665,0.0024887731752793953
0.18984198570251465,-0.008304014801979065,-0.0035346150398254395,0.00340193510055542,0.006574425846338272,-0.006204176694154739,-0.006536525674164295,-0.04546619601816737,0.15415313788453872,0.002406642910656552
0.19857406616210938,-0.008702829480171204,-0.001435592770576477,0.0015025734901428223,0.012413140386343002,-0.007862793281674385,-0.0061857872642576694,-0.045365968259918836,0.15403088098137888,0.0023277291637492413
0.2084360122680664,-0.005048200488090515,0.0004514046013355255,0.003613591194152832,0.01072306465357542,-0.01316683366894722,-0.004595187958329916,-0.04512667802163263,0.15386675932807425,0.002250066042522264
0.21861600875854492,-0.0019872188568115234,-0.0007672198116779327,0.0037358999252319336,0.00825138483196497,-0.016081131994724274,-0.003398629603907466,-0.044926030591207984,0.15362417179846555,0.0021941714497623766
0.22871994972229004,-0.0015367120504379272,-0.004164647310972214,0.004017055034637451,0.0011977199465036392,-0.011799432337284088,-0.007639873772859573,-0.04481383036963671,0.1534143606697888,0.002126920695930603
0.2399599552154541,-0.0027242153882980347,-0.00736318901181221,0.005801260471343994,-0.003470801515504718,-0.011711815372109413,-0.012356864288449287,-0.04474691572465392,0.15324114352155893,0.002031432740389256
0.24854111671447754,-0.0029399842023849487,-0.0073915161192417145,0.011214911937713623,-0.0021173162385821342,-0.014954479411244392,-0.008960428647696972,-0.04476000242882159,0.15305797123876735,0.0019258434232484612
0.2586939334869385,-0.0027558058500289917,-0.0032748468220233917,0.011599540710449219,0.0010047073010355234,-0.01488523744046688,-0.011272318661212921,-0.04474793239690269,0.15284041424919484,0.001823885970928821
0.2686488628387451,-0.002873748540878296,-0.003518402576446533,0.010311305522918701,0.007162018679082394,-0.009343599900603294,-0.012847045436501503,-0.044670976374629405,0.1526039155607379,0.0016866393704494985
0.2786710262298584,-0.002022475004196167,-0.003978453576564789,0.008743226528167725,0.010371660813689232,-0.006101200822740793,-0.008702102117240429,-0.04458161928076677,0.1524056563512718,0.0015582140884503057
0.29231810569763184,-0.0011668354272842407,9.96813178062439e-05,0.004427552223205566,0.013407597318291664,-0.003260140772908926,-0.006864627357572317,-0.04450121302312143,0.1523112447108559,0.0014614992556351754
0.2987060546875,-0.0010713636875152588,-0.003013305366039276,0.006497561931610107,0.009711130522191525,-0.004079329315572977,-0.009446294978260994,-0.04439448940645488,0.15227563535982183,0.0013643276642918449
0.30874085426330566,-0.00013265013694763184,-0.0062917135655879974,0.009775102138519287,0.007530550472438335,-0.002602295484393835,-0.010027823969721794,-0.04425479170665581,0.15223574871131723,0.0012537343675160866
0.3189120292663574,1.0505318641662598e-05,-0.004466298967599869,0.0106126070022583,0.003461772808805108,-0.001873921137303114,-0.0098531199619174,-0.044077152836392616,0.1521977365108259,0.001151347240097518
0.3289148807525635,0.00025881826877593994,-0.005281735211610794,0.011723339557647705,-0.004794425796717405,-0.006158947013318539,-0.014374954625964165,-0.04397696303939145,0.15214648331434788,0.0010418298828049131
0.340562105178833,0.003625929355621338,-0.009053152054548264,0.010971546173095703,-0.00808742456138134,-0.008420503698289394,-0.01187584362924099,-0.04402527930037619,0.15205922521678417,0.0009190780565870268
0.34893107414245605,0.004276782274246216,-0.005121592432260513,0.009658634662628174,-0.0029069771990180016,-0.008430801331996918,-0.007577502168715,-0.04404577125423292,0.15195655783603854,0.0008322148264509167
0.3590729236602783,0.002206966280937195,-0.003448750823736191,0.006238043308258057,0.003313634544610977,-0.004622480366379023,-0.006501851137727499,-0.043990304593663994,0.15188892915723975,0.0007648723263500775
0.3688161373138428,0.0008551925420761108,-0.004408765584230423,0.006032466888427734,0.002108953660354018,-0.005366656929254532,-0.005173306912183762,-0.04398901415675226,0.151836238724145,0.0006996737367772032
0.3789079189300537,0.00045311450958251953,-0.005272764712572098,0.008666813373565674,0.006975879892706871,-0.0033304039388895035,0.00012318766675889492,-0.04390689504911181,0.15179473907815164,0.00066765096552181
0.39137697219848633,-0.00048217177391052246,-0.003978308290243149,0.010898888111114502,0.004965110681951046,0.0015295546036213636,0.0006343015702441335,-0.043741429060158765,0.15181364275497275,0.0006680608995540333
0.39894986152648926,-0.003491327166557312,-0.0063666291534900665,0.010528564453125,0.006376852281391621,0.005135741084814072,-0.0023044967092573643,-0.04361192822542679,0.15187779977488722,0.0006438041958757822
0.4089181423187256,-0.0024585723876953125,-0.007338106632232666,0.010978877544403076,0.0018048039637506008,0.004424766171723604,-0.0017100790282711387,-0.04349991405062059,0.151959192853026,0.0006127183188103995
0.4192988872528076,0.0010721832513809204,-0.0037750117480754852,0.009091973304748535,0.0037395907565951347,0.0012588000390678644,0.0008337724721059203,-0.04332411614181987,0.15207560601581627,0.0006105560119067708
0.428786039352417,0.0030518174171447754,-0.0005935728549957275,0.005420207977294922,0.0033812953624874353,0.002363123930990696,0.0009245328838005662,-0.04320958151748728,0.1521716054921696,0.0006169019766267833
0.4404871463775635,0.0016641616821289062,-0.0006000101566314697,0.003904104232788086,0.003768519265577197,0.0008949232287704945,0.001515488256700337,-0.0431243859538532,0.1522319353307561,0.0006304222382555893
0.4511559009552002,0.0020089298486709595,-0.0006073936820030212,0.004588782787322998,0.002735212678089738,0.0015071840025484562,0.002474492881447077,-0.04304013846333725,0.15226854801457584,0.0006432287505386719
0.45970702171325684,0.0018833279609680176,-0.00012996792793273926,0.006939888000488281,-0.00011570146307349205,-0.0022316277027130127,0.0014811336295679212,-0.04294409400554349,0.15228694544827692,0.0006704782201186418
0.46887803077697754,0.0016730278730392456,-0.00032278895378112793,0.0074631571769714355,-0.002194831147789955,-0.005214368458837271,0.0007679390255361795,-0.042907996551857334,0.15226787994025592,0.0006770146401051023
0.47886013984680176,0.0005877166986465454,-0.00023553892970085144,0.007843196392059326,-0.005642559379339218,-0.0044545684941112995,-0.0005577825359068811,-0.04285121307943622,0.1521922192794975,0.0006764819790287315
0.4904959201812744,0.0009764879941940308,0.002681110054254532,0.0038427114486694336,-0.007020978257060051,-0.007386176381260157,0.00012670306023210287,-0.04280317806607284,0.15212271018500922,0.000691777710590886
0.49902796745300293,-0.0005583912134170532,0.002184499055147171,0.004107415676116943,-0.004989252425730228,-0.00482048699632287,0.00012563786003738642,-0.0428115119510388,0.15208550751110086,0.0007076297592639167
0.5090410709381104,-0.0034741610288619995,-0.00013901293277740479,0.004652619361877441,-0.00232597510330379,-0.003836226649582386,0.0003500890452414751,-0.04284623734495679,0.15210256085363133,0.000720764228115937
0.5190398693084717,-0.00387515127658844,0.0011167116463184357,0.006926774978637695,-0.0030953623354434967,-0.004271919839084148,-0.0009455388062633574,-0.04287227845211794,0.15209159769835076,0.000728432310233066
0.5290758609771729,-0.004348427057266235,-7.827579975128174e-05,0.011854469776153564,-0.0006043913308531046,-0.0016699670813977718,-0.0017857661005109549,-0.04289235475112658,0.15209197129800964,0.0007116189170704281
0.5401480197906494,-0.005946621298789978,-0.0015386268496513367,0.011438608169555664,0.0015189468394964933,-0.0007029734551906586,-0.00299750454723835,-0.04288786320909596,0.15211882324834652,0.0006909613396558303
0.5490660667419434,-0.006228327751159668,-0.003133997321128845,0.010044574737548828,0.0003446093760430813,0.0009583504870533943,-0.004617771599441767,-0.042881048382059965,0.15215682672841718,0.0006504261903137335
0.5591020584106445,-0.006490081548690796,-0.004100453108549118,0.007826149463653564,-0.0012631409335881472,0.0011154771782457829,-0.005570384673774242,-0.0429014740527233,0.15219023422591413,0.000602901627958769
0.5691189765930176,-0.001713484525680542,-0.003715354949235916,0.006799042224884033,0.0014702111948281527,-0.0009032431989908218,-0.004842276219278574,-0.042958943493509226,0.15220547536528073,0.0005504134101740396
0.5794641971588135,-0.001795157790184021,-0.002458672970533371,0.008281886577606201,0.0020784770604223013,-0.002190082333981991,-0.0036132270470261574,-0.04298402164910991,0.1521801730243644,0.000506465175017348
0.5900070667266846,-0.002163827419281006,-0.001426059752702713,0.008062124252319336,0.007366166450083256,0.0007691779173910618,-0.0015800101682543755,-0.04292791131887869,0.15213594808417044,0.00047977969602129925
0.59916090965271,-0.003459617495536804,-0.0015078522264957428,0.0054892897605896,0.0027551697567105293,-3.216741606593132e-05,-0.0009778693784028292,-0.04290287363088076,0.15210365499923037,0.00046607128417149274
0.6091170310974121,-0.003812044858932495,-0.0032163187861442566,0.008927702903747559,0.0033139341976493597,0.000910857692360878,-0.002419917844235897,-0.0428870813771962,0.15207414863935967,0.00043341584742624656
0.6192328929901123,-0.003997310996055603,-0.006177913397550583,0.008473217487335205,0.00023665162734687328,0.0069194817915558815,-0.00016715005040168762,-0.042857922365649025,0.15206067525603295,0.00041275909804886217
0.6292369365692139,-0.006243452429771423,-0.004842739552259445,0.0062296390533447266,0.00157791911624372,0.00711717689409852,-0.003089117119088769,-0.042804446952761324,0.15207892721679617,0.000387587421311316
0.6410350799560547,-0.005110204219818115,-0.0028642453253269196,0.004523754119873047,0.0002503334544599056,0.004521393682807684,-0.006083575077354908,-0.04274850056840554,0.15207439220594854,0.00033552801524053223
0.6493790149688721,-0.001262664794921875,-0.0008413158357143402,0.003530561923980713,0.005181875079870224,0.0016236973460763693,-0.0063547915779054165,-0.04267863733335708,0.15210250502894979,0.00027283159978337
0.6593029499053955,-0.001658797264099121,-0.0011785812675952911,0.002437293529510498,0.014232894405722618,-0.00024051545187830925,-0.01096339151263237,-0.042558023880144694,0.15210109920258147,0.00016807339897218943
0.66910719871521,-0.002515465021133423,-0.002267695963382721,0.003120601177215576,0.020402640104293823,-0.001640539150685072,-0.008772941306233406,-0.04238050583391619,0.15207125306443892,4.208640390973839e-05
0.679210901260376,-0.0027390718460083008,0.0005874522030353546,-8.028745651245117e-05,0.020246844738721848,-0.004559896420687437,-0.00550204748287797,-0.04218021018765426,0.15200280801291016,-5.9815817116834484e-05
0.6907451152801514,-0.00188407301902771,-0.0013786181807518005,6.574392318725586e-05,0.021272961050271988,-0.0063564651645720005,-0.006825638469308615,-0.041948804308044575,0.15190810114663852,-0.00015197232069742473
0.6993100643157959,-0.0011463463306427002,-0.005696527659893036,0.0013275146484375,0.01664332114160061,-0.007932256907224655,-0.00643894774839282,-0.04168885451285956,0.1518083692122525,-0.00025143746276169173
0.7089860439300537,-0.002731621265411377,-0.006833028048276901,0.0037348270416259766,0.012869089841842651,-0.004031259100884199,-0.0024782943073660135,-0.041497677229091465,0.15168189254810605,-0.0003236224483325487
0.719351053237915,-0.0035730600357055664,-0.005330834537744522,0.007264077663421631,0.011767556890845299,-0.002666255459189415,-0.003440707689151168,-0.041353388226551685,0.1515905270616589,-0.0003759405083297224
0.7292158603668213,-0.003049999475479126,-0.0051782578229904175,0.005168795585632324,0.016145959496498108,-0.004717777483165264,-0.0012955846032127738,-0.04123122118346745,0.1515545208930619,-0.00042573693754558453
0.73990797996521,-0.0015388727188110352,-0.003042135387659073,0.0038887858390808105,0.021287992596626282,-0.006595306098461151,0.0018136559519916773,-0.04104806696622999,0.1514910746145638,-0.0004440934442613782
0.7492580413818359,-0.0003265291452407837,-0.001402188092470169,0.004951834678649902,0.025613198056817055,-0.009680578485131264,0.0009017364354804158,-0.04079646445390535,0.1513898363698764,-0.00047202957123020995
0.7592389583587646,-0.0009304732084274292,-0.003126472234725952,0.008290767669677734,0.021347081288695335,-0.010969282127916813,-5.247420631349087e-05,-0.040597972686868204,0.15125851192882245,-0.0005029520460165459
0.7691550254821777,-0.0023462027311325073,-0.0003726556897163391,0.007994890213012695,0.015454337000846863,-0.008392762392759323,0.0014575381064787507,-0.04040748156213384,0.15114584301326958,-0.0005164189377792021
0.7792119979858398,-0.002595871686935425,-0.0013987049460411072,0.006871521472930908,0.0119504164904356,-0.007994885556399822,-0.0010959007777273655,-0.04021267065999414,0.15105755321443526,-0.0005390152043876415
0.7895228862762451,-0.0024154186248779297,-0.0026277899742126465,0.007106363773345947,0.011164899915456772,-0.007564651779830456,-0.005400847177952528,-0.040022534908269736,0.15096640412474596,-0.0005962592878219788
0.799138069152832,-0.0024637728929519653,0.0017646849155426025,0.007646679878234863,0.019678492099046707,-0.006939342245459557,-0.00795455276966095,-0.039826063207284386,0.15087511165319223,-0.0006793886804294153
0.8092238903045654,-0.0026993602514266968,0.002849925309419632,0.009531617164611816,0.02384256199002266,-0.006855319254100323,-0.010394221171736717,-0.0395645950918239,0.15078766670470892,-0.0008060895681631884
0.819364070892334,-0.003404185175895691,0.004939090460538864,0.009506702423095703,0.023212190717458725,-0.007326965220272541,-0.010614997707307339,-0.03932154858227658,0.15071193173251204,-0.0009377681517692017
0.8293750286102295,0.00016263127326965332,0.006306089460849762,0.009390294551849365,0.01967223547399044,-0.011926822364330292,-0.014152953401207924,-0.0391293342656548,0.15062190089605956,-0.0010905164854572926
0.8418769836425781,0.000812336802482605,0.002909671515226364,0.010087847709655762,0.013898233883082867,-0.013763336464762688,-0.018367139622569084,-0.03897033275115855,0.15048845419835494,-0.0012750335753169005
0.8494179248809814,-0.00027421116828918457,0.004817526787519455,0.008477330207824707,0.0069039082154631615,-0.009942499920725822,-0.019615469500422478,-0.03892401339394544,0.15035237745822239,-0.001476966188832798
0.8599178791046143,-0.0018286556005477905,0.005054187029600143,0.005702316761016846,0.006570214405655861,-0.008197863586246967,-0.021088995039463043,-0.03890095930216286,0.1502421762380041,-0.001687418763829376
0.8691971302032471,-0.002676934003829956,0.0055162981152534485,0.006727933883666992,0.01665850169956684,-0.007273657713085413,-0.02107221819460392,-0.03880498588033732,0.15014264903526045,-0.0019163004773648932
0.8798370361328125,-0.0046911537647247314,0.006198946386575699,0.009566426277160645,0.01977546513080597,-0.0061221071518957615,-0.018515583127737045,-0.038702095303477464,0.15006486811154185,-0.0021562709329183355
0.8927772045135498,-0.005249336361885071,0.005086980760097504,0.009869039058685303,0.023961670696735382,-0.00280181085690856,-0.01953493431210518,-0.03857800774151881,0.15001136864986675,-0.0023818553076258293
0.8994910717010498,-0.005127578973770142,0.0005685724318027496,0.009895861148834229,0.02280133217573166,-0.001878226175904274,-0.02200262062251568,-0.03845765484265342,0.14996464656015066,-0.002627486258743369
0.9095351696014404,-0.0034605413675308228,-0.001405574381351471,0.009687244892120361,0.0173642560839653,-0.004059887956827879,-0.018310626968741417,-0.03840234265653987,0.14994501349731282,-0.0028586992010425985
0.919572114944458,-0.0017685890197753906,0.0008773393929004669,0.007846295833587646,0.015471814200282097,-0.0038953046314418316,-0.015462642535567284,-0.03831663138661539,0.14993086151920548,-0.003048994760479342
0.9295670986175537,-0.001399800181388855,1.0486692190170288e-05,0.004983365535736084,0.010768921114504337,-0.005102915223687887,-0.01601540856063366,-0.03829845737280675,0.14989726142711376,-0.003222574547350788
0.940330982208252,0.000773504376411438,-0.0007652081549167633,0.002950727939605713,0.008749978616833687,-0.010614059865474701,-0.015741635113954544,-0.03831122504305808,0.1498134885056704,-0.003393112303637303
0.9496948719024658,0.0035380423069000244,-0.00046806037425994873,0.0052168965339660645,0.012509645894169807,-0.01616475358605385,-0.016219673678278923,-0.038319258295885804,0.14965635574785216,-0.0035665010719341124
0.9597198963165283,0.002469107508659363,-0.0030058324337005615,0.006620883941650391,0.004874363541603088,-0.019174659624695778,-0.01418555062264204,-0.038354613696113676,0.14944119040108989,-0.0037390819550943985
0.9695310592651367,0.0007468909025192261,-0.0026855096220970154,0.005205333232879639,0.0024729245342314243,-0.022720124572515488,-0.011386673897504807,-0.038431082199885246,0.14919253944573707,-0.0038709126251284367
0.9796879291534424,0.002061784267425537,-0.002989616245031357,0.005978882312774658,0.001237484160810709,-0.026912208646535873,-0.011723032221198082,-0.038445272785434956,0.1489119886203331,-0.003988126175111178
0.9908158779144287,0.0017523765563964844,-0.003836400806903839,0.0064203739166259766,-0.00123419554438442,-0.029798276722431183,-0.009381847456097603,-0.03845283831212127,0.14860752007345468,-0.004094310796939401
0.9996910095214844,0.0013507157564163208,-0.004559047520160675,0.004337787628173828,-0.00445981603115797,-0.027340974658727646,0.00014827470295131207,-0.038504130433018646,0.14833487584758187,-0.004138612158860416
1.0096540451049805,0.0011917650699615479,-0.005574803799390793,0.0053375959396362305,-0.002482003066688776,-0.02915409952402115,0.004036489874124527,-0.03854335837960882,0.14806364485106377,-0.00411445137352316
1.019808053970337,0.0009996891021728516,-0.00599481537938118,0.007861793041229248,-0.005056747235357761,-0.029244381934404373,0.006349711678922176,-0.038551386320663024,0.1478103013938161,-0.004069350606563853
1.0299489498138428,0.0029436498880386353,-0.005349360406398773,0.008014321327209473,-0.01172458752989769,-0.030039377510547638,0.011768764816224575,-0.038607877444813025,0.14758832196411342,-0.003961032315836182
1.0403070449829102,0.001789867877960205,-0.007581926882266998,0.011052489280700684,-0.026192741468548775,-0.03191690519452095,0.013535239733755589,-0.038734828266524586,0.14733609948380086,-0.0038065017340742583
1.049842119216919,0.002395913004875183,-0.011353213340044022,0.012333035469055176,-0.030751824378967285,-0.027939075604081154,0.023920608684420586,-0.038950976818134184,0.14707926441429048,-0.003585655210654436
1.0597419738769531,0.0016380101442337036,-0.004431486129760742,0.008414864540100098,-0.034066129475831985,-0.023355776444077492,0.033776700496673584,-0.03918580035586177,0.14689029179729288,-0.003245001032003699
1.069612979888916,0.002617970108985901,-0.0025456398725509644,0.00590360164642334,-0.030181141570210457,-0.029705017805099487,0.03456787392497063,-0.03939056764294364,0.14668735930307814,-0.002856658933442407
1.0799059867858887,0.004085376858711243,-0.004080872982740402,0.00845414400100708,-0.026032736524939537,-0.03399191051721573,0.039135195314884186,-0.0395373641768164,0.14642320988271557,-0.002459331778504333
1.0904250144958496,0.0029587149620056152,0.0015249624848365784,0.009101688861846924,-0.03575374186038971,-0.037872135639190674,0.043975599110126495,-0.039684213425046674,0.1461282735131332,-0.0019942147342820555
1.0997741222381592,0.0020291805267333984,0.0025084279477596283,0.008283913135528564,-0.03714551031589508,-0.03621857985854149,0.04522328823804855,-0.03989109253389335,0.14581951865947135,-0.0014975675205337025
1.1098830699920654,-0.0014712512493133545,0.0005904845893383026,0.005519866943359375,-0.029828522354364395,-0.03019295446574688,0.048074040561914444,-0.040054402441960645,0.14557976805630846,-0.0009869482317059176
1.1199960708618164,-0.002256646752357483,0.0065063126385211945,-0.0014247894287109375,-0.02744472585618496,-0.03186115622520447,0.04635630175471306,-0.0401506203596061,0.1453561072239042,-0.00046079386981934137
1.1304528713226318,0.0006200820207595825,0.009389389306306839,-0.000484466552734375,-0.026389531791210175,-0.04379154369235039,0.03691049665212631,-0.04018199760903136,0.14507030691680986,9.583396605272891e-06
1.1417129039764404,0.0011281222105026245,0.00737125426530838,0.00436168909072876,-0.008059527724981308,-0.0470733568072319,0.03194849565625191,-0.04021651386524375,0.14468014621526418,0.0003799030348897852
1.1499278545379639,-0.0036489367485046387,0.007126994431018829,0.005203962326049805,-0.033978626132011414,-0.0427190437912941,0.024647172540426254,-0.0403235356721315,0.14431147236610978,0.0007078089577206823
1.1598341464996338,-0.006177157163619995,0.006187256425619125,0.004539549350738525,-0.03234930336475372,-0.04386287182569504,0.012792377732694149,-0.04056155737523514,0.14398401234421404,0.0009555075277474733
1.1697418689727783,-0.0029353350400924683,-0.001748599112033844,0.0016410350799560547,-0.027158336713910103,-0.052500300109386444,0.007937860675156116,-0.04085300403792758,0.14357751013003203,0.001095427846705702
1.1799719333648682,-0.0015422403812408447,0.008634380996227264,-2.282857894897461e-05,-0.011004934087395668,-0.0565166175365448,0.0017369569977745414,-0.04105979864892179,0.14309581123511894,0.001175540093897449
1.1908719539642334,-0.0014396905899047852,0.008537016808986664,-0.001533210277557373,-0.004724567756056786,-0.05722634866833687,-0.01048226561397314,-0.041157247355748994,0.14252982742173462,0.0011428755795230851
1.199908971786499,-0.004871919751167297,0.004052504897117615,-0.00415802001953125,-0.00015564868226647377,-0.05968018248677254,-0.005249420180916786,-0.04127784192257873,0.1419586917701335,0.0010786216789317633
1.209902048110962,-0.0004497915506362915,0.0012371763586997986,-0.007576346397399902,0.005755220539867878,-0.060839321464300156,-0.0170348659157753,-0.0413771910731692,0.14139148211726327,0.0009695065129452535
1.2199561595916748,0.0025548040866851807,-0.0002368427813053131,-0.012490034103393555,0.018999652937054634,-0.05931040272116661,-0.012966621667146683,-0.04137110275657997,0.1408529625220251,0.0008016905154712938
1.2300999164581299,0.0024895966053009033,0.005814991891384125,-0.021490514278411865,0.04189559817314148,-0.06307811290025711,-0.011818746104836464,-0.041178482874985115,0.14023908907333754,0.0006436685045511166
1.241330862045288,0.010020777583122253,0.001741010695695877,-0.03372734785079956,0.04333743453025818,-0.06888646632432938,-0.015279790386557579,-0.040842392024251335,0.13956529535558385,0.0004535996525850081
1.250087022781372,0.018340840935707092,0.005910787731409073,-0.05014610290527344,0.037289343774318695,-0.0890619084239006,-0.01174971740692854,-0.040441198664310986,0.1388033375612447,0.00027319748054331817
1.2607271671295166,0.031511709094047546,0.0012600049376487732,-0.058613479137420654,0.027080383151769638,-0.13343949615955353,-0.02436724118888378,-0.04027006693856296,0.13773595486000986,7.125041894439024e-05
1.2698960304260254,0.043191298842430115,-0.009793579578399658,-0.06559902429580688,-0.010608788579702377,-0.18547680974006653,-0.030140388756990433,-0.04029156290823723,0.13614159440703671,-0.00023047686690977337
1.2802488803863525,0.05225418508052826,-0.0038569457828998566,-0.07885795831680298,-0.06679749488830566,-0.25273841619491577,-0.027152055874466896,-0.04074874534527068,0.13395650317630808,-0.0004492166450695268
1.290600061416626,0.06415246427059174,-0.011756204068660736,-0.08824026584625244,-0.11439673602581024,-0.3395092785358429,-0.04241681843996048,-0.04169079563347617,0.13099178300883155,-0.0006741963813830027
1.2999489307403564,0.06924186646938324,-0.023775137960910797,-0.09691470861434937,-0.13986854255199432,-0.4291166365146637,-0.03471122682094574,-0.0430297737227775,0.12717150183774228,-0.0009017766347080159
1.3100810050964355,0.07282479107379913,-0.018669206649065018,-0.10380303859710693,-0.15391670167446136,-0.5271011590957642,-0.034820523113012314,-0.044517066469862206,0.12241070730031765,-0.0010505726258092133
1.320340871810913,0.07320986688137054,-0.02936568111181259,-0.10603415966033936,-0.19113384187221527,-0.6278432011604309,-0.029602589085698128,-0.046243147037327244,0.11666274656272137,-0.0011728060660755886
1.3302772045135498,0.0773153305053711,-0.053451940417289734,-0.10258525609970093,-0.2088695466518402,-0.7359262704849243,-0.011119186878204346,-0.04825218444978414,0.10987721663864036,-0.0011514202191530375
1.3412060737609863,0.08429066091775894,-0.07453513145446777,-0.0855901837348938,-0.24758577346801758,-0.8724918365478516,0.04022735729813576,-0.050524062831648786,0.10191339950732868,-0.0007953557672237822
1.3502271175384521,0.08842997997999191,-0.10038091987371445,-0.08358961343765259,-0.2666255533695221,-1.0524585247039795,0.11732357740402222,-0.053027252389619715,0.09237306099853441,0.0002496084237118113
1.360537052154541,0.10395627468824387,-0.17860977351665497,-0.0750322937965393,-0.26120203733444214,-1.2958805561065674,0.16413022577762604,-0.05553042472509859,0.08076521556250461,0.0019019098653323143
1.3702189922332764,0.113275445997715,-0.26073113083839417,-0.02949059009552002,-0.3007298707962036,-1.5792585611343384,0.2299344390630722,-0.05821887961832023,0.06651273141556432,0.004033939620662352
1.38041090965271,0.11041024327278137,-0.33014848828315735,0.0037838220596313477,-0.30452436208724976,-1.864881992340088,0.3883056938648224,-0.06102133629873048,0.04947684375826379,0.007227934135681966
1.3910448551177979,0.09949159622192383,-0.4013473689556122,0.028941750526428223,-0.4095381498336792,-2.1961028575897217,0.5885783433914185,-0.06440154317644343,0.02948010688327242,0.01224601511880229
1.4002811908721924,0.07123902440071106,-0.47865399718284607,0.051582396030426025,-0.4484759569168091,-2.431741714477539,0.8825271725654602,-0.0685667523841582,0.006779963913794159,0.01965759751467898
1.4102060794830322,0.037478722631931305,-0.5542759895324707,0.04620867967605591,-0.41083818674087524,-2.6797308921813965,1.1354014873504639,-0.07309411497208382,-0.01807293712371069,0.029794981648844834
1.4202921390533447,-0.014866307377815247,-0.5179490447044373,0.05748051404953003,-0.22329463064670563,-2.8892228603363037,1.4068485498428345,-0.0766789682293221,-0.045080508396387886,0.042400134931326876
1.4302470684051514,-0.06996694207191467,-0.4172879457473755,0.046176135540008545,-0.013420253992080688,-3.0778799057006836,1.6679084300994873,-0.07873097426720699,-0.07379145361657102,0.05779543319947807
1.4404399394989014,-0.13958439230918884,-0.35290688276290894,0.058493077754974365,-0.08108318597078323,-3.1618614196777344,1.8484710454940796,-0.08057892952402264,-0.1037045645550055,0.0754082122852852
1.4503939151763916,-0.2384207546710968,-0.36162829399108887,0.01911395788192749,-0.35685792565345764,-3.1585402488708496,2.0156776905059814,-0.08484407579319993,-0.1337957454297339,0.09443687562683871
1.4604430198669434,-0.35121363401412964,-0.418049693107605,-0.0491604208946228,-0.7760466933250427,-3.2421858310699463,2.201906442642212,-0.09380059979774862,-0.163923987182705,0.11448900148525505
1.470196008682251,-0.42585813999176025,-0.46481412649154663,-0.027710676193237305,-0.864662766456604,-3.073240041732788,2.156170129776001,-0.10554342861265607,-0.19382607434206778,0.13504773865823239
1.480644941329956,-0.48451483249664307,-0.4540785551071167,0.006244301795959473,-0.909420371055603,-2.91684627532959,1.945997714996338,-0.11872497869411336,-0.221820913910883,0.15311038944942965
1.490859031677246,-0.5813799500465393,-0.4589191675186157,0.06443500518798828,-0.8567127585411072,-2.5888447761535645,1.8479869365692139,-0.13167791786482497,-0.24725554329186417,0.169765736209155
1.5002050399780273,-0.6733000874519348,-0.5631693601608276,0.09545046091079712,-0.7580240368843079,-2.3161067962646484,1.7385210990905762,-0.1440503286272034,-0.26971434733371796,0.18506275225290164
1.51027512550354,-0.7007014751434326,-0.5519999265670776,0.0715714693069458,-0.45476165413856506,-1.9909238815307617,1.7765848636627197,-0.15483655453295722,-0.28906305457041354,0.20048471073605165
1.520402193069458,-0.6206420063972473,-0.4172244071960449,0.09111487865447998,-0.0076943919993937016,-1.667857050895691,1.7535905838012695,-0.16235199008771917,-0.30484414359309764,0.21674483852749396
1.530325174331665,-0.5831179022789001,-0.3764760196208954,0.15945738554000854,0.6381247639656067,-1.294291377067566,1.8221702575683594,-0.16460235881632806,-0.31684032371384013,0.23523727233582556
1.5408599376678467,-0.5912588834762573,-0.3468274474143982,0.2581891417503357,0.9586519002914429,-0.8735752701759338,1.8038969039916992,-0.162699354997867,-0.3245332966930245,0.25508002170245775
1.5503380298614502,-0.6371158361434937,-0.31635886430740356,0.395321786403656,1.1971793174743652,-0.41568127274513245,1.9251539707183838,-0.15832811857525877,-0.3275854527475507,0.27653023346132555
1.5603649616241455,-0.5898737907409668,-0.29095959663391113,0.47586268186569214,1.324541449546814,0.05670119822025299,2.092193365097046,-0.15268188882399197,-0.3258024454846785,0.29995013541253646
1.570422887802124,-0.5029431581497192,-0.21422992646694183,0.5518413782119751,1.3538157939910889,0.4430496096611023,2.3381123542785645,-0.14722582405316803,-0.31954018817385754,0.32509023608213233
1.58125901222229,-0.45293712615966797,-0.2162858247756958,0.6934834122657776,1.4160722494125366,0.8537402153015137,2.730252265930176,-0.14153204125407162,-0.30883316816668893,0.3545560102361992
1.5908911228179932,-0.35004082322120667,-0.22005490958690643,0.7225285768508911,0.8413671851158142,1.2815272808074951,2.5284876823425293,-0.1383424592349363,-0.29411193688474424,0.3830699645109831
1.600282907485962,-0.39870595932006836,-0.5272390842437744,0.7507122159004211,0.47844117879867554,1.5146139860153198,2.8087239265441895,-0.13981574286619453,-0.2762644627463578,0.41074218107321536
1.6101529598236084,-0.08519288897514343,-0.4282280206680298,0.6411762237548828,0.3942936956882477,1.8375591039657593,2.8821663856506348,-0.14314816719445814,-0.2554895332207405,0.43970745942098294
1.6201159954071045,0.11408647894859314,-0.22349224984645844,0.47694194316864014,0.5015855431556702,2.1735100746154785,3.0974135398864746,-0.14614635443219026,-0.23101877830604123,0.47002311049458534
1.6302459239959717,0.15873418748378754,-0.1767425835132599,0.3857775330543518,0.6948064565658569,2.485081672668457,3.2513632774353027,-0.14712138011950623,-0.2028883655296156,0.5027865379643035
1.6414380073547363,0.3257632255554199,-0.0792749673128128,0.3515216112136841,0.8998551964759827,2.8152573108673096,3.387606620788574,-0.1455691799139756,-0.17134504291666744,0.53727103969067
1.6502230167388916,0.45388057827949524,-0.05690179765224457,0.30597537755966187,1.3183692693710327,3.163111686706543,3.5068366527557373,-0.14004650806737687,-0.13631201631697554,0.5734278285743979
1.660269021987915,0.6137382984161377,0.13352999091148376,0.22144311666488647,1.7615031003952026,3.592536449432373,3.5702202320098877,-0.12866552711677687,-0.09751609794665467,0.6108154618256686
1.6703369617462158,0.7742778658866882,0.2857745289802551,0.12398374080657959,1.7281230688095093,3.989055871963501,3.509833574295044,-0.11368588351736782,-0.055025551802522665,0.6478685174175957
1.680459976196289,0.8809846043586731,0.2571825385093689,0.0933302640914917,1.4319555759429932,4.327478408813477,3.3379626274108887,-0.0989357974673603,-0.009632892124673725,0.682915342838426
1.690805196762085,1.0002835988998413,0.2759477198123932,0.09351342916488647,0.9543470740318298,4.52526330947876,3.1049418449401855,-0.08646465310421173,0.03781534642567143,0.7151833802299787
1.7004680633544922,1.0727522373199463,0.3281141221523285,0.10538578033447266,0.4514214098453522,4.511972904205322,2.845439910888672,-0.07766459192829972,0.08553812710200283,0.7445864893000111
1.710280179977417,1.12855064868927,0.34961915016174316,0.11633837223052979,0.06878405064344406,4.397575378417969,2.6007044315338135,-0.0722270421885974,0.1322491891277592,0.771464288377107
1.7202870845794678,1.1654837131500244,0.3381136655807495,-0.0025707483291625977,-0.016496222466230392,4.089807510375977,2.492194414138794,-0.06828089074080344,0.17658601918030578,0.7966529875464753
1.7304351329803467,1.2002938985824585,0.2561187446117401,-0.20646405220031738,0.03221004828810692,3.672299861907959,2.4104771614074707,-0.06328992789529812,0.21712265747023995,0.8207135797709671
1.7405779361724854,1.1451079845428467,0.17780807614326477,-0.38580405712127686,-0.11612775921821594,3.1013219356536865,2.272157669067383,-0.05818662709211337,0.2524739843373819,0.8437161226302805
1.7503678798675537,0.9508785009384155,0.14909392595291138,-0.3619505763053894,-0.41531139612197876,2.498518943786621,1.9870952367782593,-0.05492841511299318,0.28173847090216475,0.8650717962628046
1.7604870796203613,0.7186089754104614,0.25350531935691833,-0.2801939845085144,-0.9586958885192871,1.8709884881973267,1.6010618209838867,-0.05627776893202072,0.30470182668244056,0.8843151375266268
1.7705180644989014,0.5154034495353699,0.2717280685901642,-0.21361815929412842,-1.3092753887176514,1.2959725856781006,1.20299232006073,-0.06295398616640996,0.3214810656210191,0.9012530072893254
1.7805521488189697,0.3652111291885376,0.25828269124031067,-0.1997237205505371,-1.219394564628601,0.8615589737892151,0.8626854419708252,-0.07190311904300568,0.333088967008555,0.9151149137605094
1.7912871837615967,0.26153749227523804,0.23274627327919006,-0.23710107803344727,-0.9100051522254944,0.5717471837997437,0.5539635419845581,-0.07976194716436469,0.34098996492369027,0.9253772573694855
1.80047607421875,0.17164462804794312,0.14409635961055756,-0.24516254663467407,-0.39915725588798523,0.41515836119651794,0.3902488946914673,-0.08438199716477214,0.3463493833798042,0.9320480155159799
1.810486078262329,0.12566852569580078,0.06982395052909851,-0.18209797143936157,0.12686285376548767,0.4110322892665863,0.27949899435043335,-0.08454304487850908,0.3507060468749374,0.9356350077298907
1.820600986480713,0.07551977038383484,0.00716235488653183,-0.0882769227027893,0.5437596440315247,0.48989301919937134,0.2662194073200226,-0.0803109971957258,0.3553017711323625,0.9369224155092768
1.8314399719238281,0.0672992467880249,-0.04481220990419388,-0.045019567012786865,0.7163000106811523,0.5760262608528137,0.3266807496547699,-0.07322843457647907,0.36064927046081896,0.937426269550015
1.8409390449523926,0.06427326798439026,-0.07685068249702454,0.012153983116149902,0.5833419561386108,0.6388558149337769,0.3648952543735504,-0.06572853024887364,0.36683865493917966,0.93827121515892
1.8507468700408936,0.05005180835723877,-0.0740683376789093,0.07665359973907471,0.26033011078834534,0.6274067759513855,0.40182098746299744,-0.06035677160063272,0.37333283098947667,0.9403015184479225
1.8606140613555908,0.06043681502342224,-0.06300820410251617,0.1018989086151123,-0.11394363641738892,0.5519793629646301,0.420052170753479,-0.058188699819121135,0.3795016399916364,0.9438920045678015
1.8705840110778809,0.0659569501876831,-0.028485696762800217,0.07311427593231201,-0.4017829895019531,0.4568363428115845,0.4161406457424164,-0.05903752418102501,0.3848464208689312,0.9487831050767354
1.8806610107421875,0.064860999584198,0.0008576400578022003,0.014044880867004395,-0.6158920526504517,0.31057074666023254,0.36744260787963867,-0.06238468833927043,0.3890533020791969,0.9543915352358692
1.892376184463501,0.06597042083740234,0.011245116591453552,-0.047717511653900146,-0.6257727146148682,0.17179320752620697,0.2924308478832245,-0.06699096700585346,0.39181003782908974,0.9598872697798562
1.9006760120391846,0.06932735443115234,0.054658785462379456,-0.09016633033752441,-0.4956005811691284,0.06461881846189499,0.19508537650108337,-0.07127124925040075,0.39329022847032996,0.9643045904878641
1.9107210636138916,0.05981728434562683,0.0855478048324585,-0.11634522676467896,-0.29087936878204346,-0.004480844363570213,0.10813833773136139,-0.07437177458246337,0.3937693321162435,0.9672424785633683
1.9207589626312256,0.05309879779815674,0.08112350106239319,-0.11596184968948364,-0.08662745356559753,-0.04376087337732315,0.03582126274704933,-0.07582469862398557,0.39362089037841036,0.9685916473275629
1.9306080341339111,0.041446805000305176,0.057405441999435425,-0.0958026647567749,0.08387280255556107,-0.045965615659952164,-0.0006990365218371153,-0.07575411743872161,0.3931485531426616,0.9687418669941776
1.9406731128692627,0.028556466102600098,0.03567881137132645,-0.06459242105484009,0.20666611194610596,-0.0070309992879629135,-0.013888075016438961,-0.07439035792197714,0.3928208247784492,0.9680948706517023
1.9506449699401855,0.015453130006790161,0.02007826417684555,-0.022879600524902344,0.2762725055217743,0.04115322232246399,0.007774555590003729,-0.07213205752434439,0.39291345955337503,0.9671207055235854
1.9608490467071533,0.018435031175613403,0.0019522234797477722,-0.00615847110748291,0.2509770095348358,0.0618547722697258,0.02633439190685749,-0.0695913271621948,0.39339474910987904,0.9662356689267495
1.9706599712371826,0.021417587995529175,0.005179800093173981,-0.0018827319145202637,0.16983386874198914,0.059777192771434784,0.029257530346512794,-0.06748795760536172,0.3939729694810153,0.9657100930225795
1.9809348583221436,0.01632329821586609,0.013313859701156616,0.026828646659851074,0.07992848753929138,0.039445556700229645,0.030034108087420464,-0.06624810552071674,0.39446611721518027,0.9654916557001093
1.9916698932647705,0.00875389575958252,-0.008890889585018158,0.030268609523773193,-0.011612717062234879,0.007841379381716251,0.040795572102069855,-0.06579255830856157,0.39471976034325024,0.9656844556145547
2.0008649826049805,0.011540800333023071,-0.019831933081150055,0.02577078342437744,-0.05398387461900711,-0.0030107353813946247,0.04017239063978195,-0.06596125706274548,0.39476346014105673,0.9662005982586732
2.011059045791626,0.008696645498275757,-0.019804224371910095,0.008495151996612549,-0.07764637470245361,-0.019106660038232803,0.04588764160871506,-0.06640754333712755,0.39469945144258933,0.9668643721128366
2.0207509994506836,0.0150870680809021,-0.01167970895767212,-0.014268100261688232,-0.11089008301496506,-0.048660289496183395,0.03584246337413788,-0.06708886712111171,0.394423498282843,0.967605478956996
2.030841112136841,0.021432727575302124,-0.002926163375377655,-0.009003043174743652,-0.1607007086277008,-0.08420328050851822,0.024738147854804993,-0.06824091675858446,0.3937956049243334,0.9684284371056784
2.0412700176239014,0.02234935760498047,0.0013300925493240356,0.015255451202392578,-0.17905043065547943,-0.08819057047367096,0.016912981867790222,-0.06978667838966487,0.39302729804003445,0.9692666568643774
2.050739049911499,0.013286858797073364,-0.005510158836841583,0.03264874219894409,-0.13357162475585938,-0.059387147426605225,0.029984574764966965,-0.07121360189385731,0.39238885551102776,0.9700912288372223
2.061079978942871,0.008178949356079102,-0.016421496868133545,0.02741849422454834,-0.03528979793190956,0.0006881728768348694,0.04799686372280121,-0.07188802440552618,0.39222266507774156,0.9707774106368277
2.070770025253296,0.004364609718322754,-0.017439618706703186,0.015756964683532715,0.046637505292892456,0.05848218500614166,0.04940498247742653,-0.07159312923384868,0.3926439664308041,0.9712067887071056
2.081054925918579,0.0046653151512146,-0.02131401002407074,0.01495051383972168,0.09576563537120819,0.0770856961607933,0.04363524541258812,-0.07055156435255985,0.39349577514742,0.9713753514495991
2.0916919708251953,0.01895958185195923,-0.01338794082403183,0.011883258819580078,0.09276799857616425,0.052435703575611115,0.031094366684556007,-0.06916814159309527,0.39428726905441314,0.9713668598410989
2.1011240482330322,0.03143349289894104,0.0020206645131111145,0.012985467910766602,0.06022949889302254,0.0047683133743703365,0.005889677442610264,-0.06808498693648234,0.3946954704960652,0.9712479431034466
2.11149001121521,0.0366138219833374,0.018076203763484955,0.011417984962463379,0.008470796048641205,-0.04563857987523079,-0.01935543864965439,-0.06776051151626458,0.3947774249500349,0.9710622018044552
2.1248619556427,0.042365044355392456,0.03161274641752243,0.004171192646026611,-0.03910177946090698,-0.08079816401004791,-0.03827746585011482,-0.06818674611691346,0.3946252948294521,0.9708849577080934
2.132668972015381,0.03803554177284241,0.04253578186035156,0.011658728122711182,-0.07202260196208954,-0.06741200387477875,-0.05925065651535988,-0.06895374814500614,0.39431155610323354,0.970672138448874
2.1424949169158936,0.021618157625198364,0.034724414348602295,0.03291177749633789,-0.052676066756248474,-0.03502264246344566,-0.04885127767920494,-0.06953382912563441,0.39406204275414747,0.9704461703176468
2.1509649753570557,0.020051658153533936,0.011523671448230743,0.040251970291137695,-0.023965639993548393,-0.00452212430536747,-0.044827722012996674,-0.06977067455628053,0.3939805014722041,0.970163158614549
2.1612420082092285,0.019414305686950684,-0.006651699542999268,0.033021390438079834,-0.01095237024128437,0.005110529717057943,-0.041950974613428116,-0.06969635175242726,0.39410706520531374,0.9698401320844244
2.1708948612213135,0.0167711079120636,-0.002194836735725403,0.02621978521347046,-0.033594198524951935,-0.015939008444547653,-0.062156058847904205,-0.0698480142744347,0.3944299529113839,0.9694762262969442
2.180907964706421,0.01869124174118042,0.017609938979148865,0.017785966396331787,-0.09261757135391235,-0.07833154499530792,-0.09430254995822906,-0.07079753744037813,0.394576488809773,0.9690315588389008
2.1911330223083496,0.0296461284160614,0.03126572072505951,-0.006023705005645752,-0.18144994974136353,-0.17286163568496704,-0.15519316494464874,-0.07290953624089452,0.39402765575794274,0.9684679321212881
2.202357053756714,0.04238817095756531,0.05319450795650482,-0.035954952239990234,-0.27311623096466064,-0.2996334433555603,-0.23580040037631989,-0.07618209576816075,0.3922229973812615,0.9675726598923552
2.212574005126953,0.05575302243232727,0.07528748363256454,-0.058806657791137695,-0.37835535407066345,-0.4445699453353882,-0.321062833070755,-0.08059193401930817,0.38879240125472136,0.9662687511226515
2.221137046813965,0.07434949278831482,0.08362355083227158,-0.0658753514289856,-0.4880988895893097,-0.6000583171844482,-0.4268566370010376,-0.08620666697726703,0.38366500365296874,0.964450908875222
2.2309210300445557,0.09272366762161255,0.0904378890991211,-0.06311410665512085,-0.6018742322921753,-0.7422147989273071,-0.5392365455627441,-0.09304588097240922,0.37692873107776564,0.9620030253307613
2.2411139011383057,0.1128491461277008,0.107337586581707,-0.06923913955688477,-0.7206275463104248,-0.8681977391242981,-0.6659023761749268,-0.10142382421283626,0.3685409407184804,0.958788625203435
2.2510831356048584,0.12945127487182617,0.11526085436344147,-0.07617843151092529,-0.7746093273162842,-0.9693533182144165,-0.7985667586326599,-0.11107208332094343,0.3588831442984905,0.9546048856060655
2.2610440254211426,0.14910751581192017,0.12701335549354553,-0.08799880743026733,-0.7586183547973633,-1.0617314577102661,-0.944492518901825,-0.12134633972795549,0.3480728823822789,0.9490597671268359
2.271090030670166,0.17838770151138306,0.13761557638645172,-0.11006802320480347,-0.6565622687339783,-1.1388177871704102,-1.0882457494735718,-0.13148546563502814,0.33612403148994097,0.9418102969215051
2.280992031097412,0.2033759355545044,0.13472843170166016,-0.13019150495529175,-0.5528917908668518,-1.236195683479309,-1.252814769744873,-0.1409760811027764,0.3230319041266076,0.9325943094156691
2.2911510467529297,0.2311173975467682,0.11955100297927856,-0.14532029628753662,-0.4978564381599426,-1.369178295135498,-1.3725584745407104,-0.15016242351033868,0.3083013735442508,0.9215730873681489
2.301342010498047,0.287045955657959,0.08770982921123505,-0.145352303981781,-0.3302607834339142,-1.4315508604049683,-1.4939634799957275,-0.15835828717049744,0.29239521457411566,0.9090484948728916
2.3112871646881104,0.2698192298412323,0.07945516705513,-0.08024013042449951,-0.1974160224199295,-1.56218421459198,-1.6676242351531982,-0.16533079812807286,0.27505950041751237,0.894383309994981
2.321276903152466,0.26712390780448914,0.09624718129634857,-0.0251694917678833,-0.0952310636639595,-1.6499196290969849,-1.8336690664291382,-0.17135959667651887,0.25613215849110305,0.8776015224448077
2.3313350677490234,0.3139823079109192,0.1152409166097641,-0.0685693621635437,0.016373343765735626,-1.6511197090148926,-1.989511489868164,-0.17646015594124867,0.23631069210716416,0.8588759429308719
2.3417599201202393,0.3203231990337372,0.15366411209106445,-0.10650217533111572,0.0723564475774765,-1.6051346063613892,-2.163411855697632,-0.18066051851438597,0.2163643455163317,0.838170418700798
2.351356029510498,0.34692370891571045,0.1884743720293045,-0.11021798849105835,0.06514797359704971,-1.5772054195404053,-2.34100079536438,-0.1846122728334902,0.1963310551862561,0.8155751827405803
2.361762046813965,0.39758023619651794,0.2020169198513031,-0.09371203184127808,0.05098501592874527,-1.528699517250061,-2.518789291381836,-0.18851724991900012,0.17626200440378528,0.7911439047337967
2.3712031841278076,0.4329007863998413,0.21968825161457062,-0.0874718427658081,0.008094191551208496,-1.5258039236068726,-2.7132930755615234,-0.192555978812569,0.15602211701170254,0.7647749812145095
2.381443977355957,0.46483123302459717,0.2185325026512146,-0.07470160722732544,-0.0919857993721962,-1.5266345739364624,-2.8935325145721436,-0.1970001166707773,0.13526570800180482,0.7365246146891494
2.3919520378112793,0.49096256494522095,0.1863853931427002,-0.046635985374450684,-0.05779344215989113,-1.513176679611206,-3.0510058403015137,-0.20165143613472772,0.11408480322490942,0.7064843845709106
2.4013988971710205,0.4909626841545105,0.12323424220085144,-0.021650314331054688,0.2393793761730194,-1.4303425550460815,-3.1424713134765625,-0.20407656135063582,0.09292962780867511,0.6748870704048598
2.4123189449310303,0.482889860868454,0.1364833414554596,-0.03443312644958496,0.6289829611778259,-1.3246128559112549,-3.198641777038574,-0.20234269815086053,0.07248418168231958,0.6421601120900218
2.4211618900299072,0.4605424702167511,0.14106786251068115,-0.04645955562591553,0.8484383225440979,-1.2281047105789185,-3.239509105682373,-0.1968713193430427,0.053174126926054416,0.6088595717680012
2.4314348697662354,0.44150251150131226,0.11607427895069122,-0.016685664653778076,0.9275034666061401,-1.1600407361984253,-3.2484536170959473,-0.18937695022903714,0.034742018952047427,0.5753767089909052
2.4418818950653076,0.4148084819316864,0.10373206436634064,0.05441427230834961,0.8858950734138489,-1.0590542554855347,-3.2452187538146973,-0.18103819990171013,0.01750056890793755,0.5420979389658968
2.451963186264038,0.3548485040664673,0.11978161334991455,0.10715937614440918,0.682815432548523,-0.9457146525382996,-3.264028310775757,-0.17342961489801667,0.0016057222051504543,0.5089048494052464
2.461383104324341,0.2947114109992981,0.11475531756877899,0.1625140905380249,0.4783291518688202,-0.8345530033111572,-3.2524378299713135,-0.16749030666719164,-0.012909936153135505,0.4758207173873566
2.4713690280914307,0.2220454066991806,0.07926003634929657,0.20616930723190308,0.35417240858078003,-0.6610996127128601,-3.2084434032440186,-0.16274465430138432,-0.025794765497253996,0.4430938415657399
2.481358051300049,0.15070942044258118,0.054667919874191284,0.2144586443901062,0.2526175379753113,-0.46033504605293274,-3.13680362701416,-0.15875136061798553,-0.036522072910552046,0.4110145762942476
2.4919021129608154,0.11811570823192596,0.028030291199684143,0.2384657859802246,0.22714175283908844,-0.29898756742477417,-3.0475337505340576,-0.15511666035575913,-0.04517158029896737,0.37981422950094657
2.501310110092163,0.11290188133716583,-0.028143778443336487,0.25375276803970337,0.2567603588104248,-0.17018406093120575,-2.9537642002105713,-0.1513404737560756,-0.05211950421903878,0.3495235637938702
2.511522054672241,0.10017728805541992,-0.06977888941764832,0.23607665300369263,0.36215391755104065,-0.04399731755256653,-2.836261510848999,-0.1467516010959393,-0.057476095478384996,0.3204459059937736
2.5219829082489014,0.07753609120845795,-0.09989859163761139,0.21235090494155884,0.5408823490142822,0.06654011458158493,-2.7291412353515625,-0.14069126387333405,-0.06128809985739908,0.2926186849996719
2.531623125076294,0.05609019845724106,-0.11823725700378418,0.1959628462791443,0.6218433380126953,0.17885978519916534,-2.6123509407043457,-0.13326455678441382,-0.06359344215626532,0.266060947613742
2.541882038116455,0.042325593531131744,-0.09823399782180786,0.1845666766166687,0.5859386324882507,0.2560861110687256,-2.500702381134033,-0.12564872035772773,-0.06459254893227748,0.24069851156497502
2.551622152328491,0.02172759920358658,-0.12185708433389664,0.20013058185577393,0.4684262275695801,0.3123774230480194,-2.369396448135376,-0.11884074106332766,-0.0646630487042706,0.21652252944009925
2.5617880821228027,-0.014085359871387482,-0.16941586136817932,0.24372458457946777,0.4035172760486603,0.3879592716693878,-2.2318849563598633,-0.11310782550904058,-0.06380363318847694,0.19366069689206192
2.5716750621795654,-0.062191590666770935,-0.16297879815101624,0.2628852128982544,0.32224684953689575,0.5018717646598816,-2.120041608810425,-0.10808969016691344,-0.061727450392332635,0.17203592844971843
2.5821950435638428,-0.10057245194911957,-0.1069539487361908,0.26099467277526855,0.16966049373149872,0.6053650975227356,-2.0123298168182373,-0.10436623220727899,-0.05833185118081995,0.15141889558717261
2.5918750762939453,-0.1149957925081253,-0.10753942281007767,0.2957988381385803,0.07341554015874863,0.6613522171974182,-1.8974648714065552,-0.1021321927692971,-0.05399753341531288,0.13181858185584794
2.6018378734588623,-0.1098981723189354,-0.1561882197856903,0.2876831889152527,-0.01892051473259926,0.7221958637237549,-1.7922569513320923,-0.1008936250749734,-0.048954759976505495,0.11331234470875953
2.61163592338562,-0.09992071986198425,-0.15288512408733368,0.22937309741973877,-0.13056647777557373,0.7783486247062683,-1.7062327861785889,-0.10085572840428368,-0.043180029336834236,0.09569887795603209
2.621628999710083,-0.09017042815685272,-0.15023741126060486,0.18098372220993042,-0.03733612224459648,0.7981473803520203,-1.5964292287826538,-0.10123117091984546,-0.03696498340994582,0.07902448471780879
2.631574869155884,-0.08394302427768707,-0.19606336951255798,0.08263576030731201,0.15259188413619995,0.8218729496002197,-1.4764254093170166,-0.10013078456349,-0.03039533116000078,0.06361044198353771
2.641763925552368,-0.0914447009563446,-0.19557851552963257,0.017502784729003906,0.28963974118232727,0.8357322812080383,-1.3920433521270752,-0.0974508486787336,-0.023491222500067396,0.049288232287102364
2.6516878604888916,-0.11663663387298584,-0.19449357688426971,0.0366138219833374,0.3760928511619568,0.8308356404304504,-1.32944917678833,-0.09389297951226089,-0.016432012923928315,0.035674843439299525
2.6617729663848877,-0.1445723921060562,-0.22510820627212524,0.06321442127227783,0.3700317442417145,0.87413489818573,-1.2447630167007446,-0.08986843679278346,-0.009120477539626767,0.022756339901361593
2.6717090606689453,-0.15372222661972046,-0.19374842941761017,0.06964766979217529,0.2654189169406891,0.9106206297874451,-1.1658165454864502,-0.0865873320031405,-0.0012506534242122508,0.01068273462680817
2.681978940963745,-0.1494065523147583,-0.1324489414691925,0.08740025758743286,0.010795935988426208,0.948646605014801,-1.1035706996917725,-0.08515805663138,0.007113745041990875,-0.0007162810079049261
2.6919310092926025,-0.1408088058233261,-0.11156579852104187,0.11363685131072998,-0.31974151730537415,0.925292432308197,-1.0279223918914795,-0.08680297380735444,0.015608872945528337,-0.011406839601042126
2.701910972595215,-0.1285722553730011,-0.1299780011177063,0.14571183919906616,-0.6772593855857849,0.8936652541160583,-0.9680206179618835,-0.09199126474558782,0.023832208385675086,-0.021320046956710595
2.7118561267852783,-0.12262773513793945,-0.15860161185264587,0.12862664461135864,-0.9819709062576294,0.864913284778595,-0.9149593114852905,-0.10062009430108043,0.03174447947143489,-0.03054361456585132
2.7217540740966797,-0.10805173963308334,-0.18750613927841187,0.05796539783477783,-1.1917978525161743,0.8451763391494751,-0.8877415657043457,-0.11187269229767004,0.039384176452814994,-0.03920350632166556
2.731839895248413,-0.08172760903835297,-0.18594351410865784,-0.018624484539031982,-1.2460994720458984,0.7873604893684387,-0.868120014667511,-0.1245895938559959,0.04659840979806358,-0.047524782082623965
2.7420079708099365,-0.05802781134843826,-0.1713719367980957,-0.07658052444458008,-1.0770436525344849,0.7008442282676697,-0.820376992225647,-0.13671754107378364,0.05302359694116204,-0.05547063247294692
2.7519750595092773,-0.04179002717137337,-0.1946212202310562,-0.14310389757156372,-0.8832236528396606,0.618639349937439,-0.7541664242744446,-0.14694702228095385,0.058567706020991726,-0.06288406710848372
2.7621328830718994,-0.04667223244905472,-0.2160862535238266,-0.17105674743652344,-0.6482346057891846,0.5595885515213013,-0.6742936968803406,-0.1550459719624048,0.0634359743796366,-0.06964140127894645
2.771785020828247,-0.0640992745757103,-0.22873802483081818,-0.1684868335723877,-0.5135248899459839,0.533868670463562,-0.583031952381134,-0.16119796414107995,0.06796173820488732,-0.07563388516333391
2.7817161083221436,-0.07793601602315903,-0.22074298560619354,-0.14004898071289062,-0.42035847902297974,0.49043571949005127,-0.47262391448020935,-0.1662403430335189,0.07228075741071992,-0.08064330630835356
2.7919180393218994,-0.08198888599872589,-0.23604300618171692,-0.08510738611221313,-0.35195183753967285,0.45925042033195496,-0.37066206336021423,-0.17033725267472916,0.07634626628183655,-0.08463204631813522
2.8017899990081787,-0.08273542672395706,-0.23598939180374146,-0.07115042209625244,-0.36872416734695435,0.4319087862968445,-0.26277580857276917,-0.1742013095647432,0.08031287630360986,-0.08756221011605328
2.81187105178833,-0.07391319423913956,-0.21869514882564545,-0.06513088941574097,-0.4015958905220032,0.3918876051902771,-0.1801750510931015,-0.17816285805959228,0.0841161459852873,-0.08946329360803941
2.821972131729126,-0.06437709182500839,-0.23065964877605438,-0.0653989315032959,-0.43808120489120483,0.3470519781112671,-0.125684916973114,-0.18253841834581955,0.08761037938758012,-0.09063083662104661
2.832319974899292,-0.05703215301036835,-0.22427017986774445,-0.07494735717773438,-0.44266483187675476,0.3078932762145996,-0.08420085906982422,-0.1870130740292832,0.09076541519587626,-0.09128291025026793
2.84271502494812,-0.050945527851581573,-0.20007844269275665,-0.09906721115112305,-0.4113655090332031,0.2694883942604065,-0.058955948799848557,-0.19140311936127508,0.09360642593274526,-0.09158997236312373
2.8520381450653076,-0.05033489316701889,-0.18696899712085724,-0.10735881328582764,-0.3409425616264343,0.23413333296775818,-0.05449851229786873,-0.19517917527250397,0.09608171056460366,-0.09180506966116628
2.862053155899048,-0.05268406122922897,-0.17132191359996796,-0.11895871162414551,-0.2571272850036621,0.20429660379886627,-0.046706635504961014,-0.19822173888648992,0.09823486386728816,-0.09201660239634835
2.8719770908355713,-0.054755568504333496,-0.14359445869922638,-0.114959716796875,-0.1853044331073761,0.18094946444034576,-0.039649952203035355,-0.2004611228830163,0.10012208291361356,-0.09222461686121868
2.8819680213928223,-0.05687355995178223,-0.13334551453590393,-0.09332561492919922,-0.12898656725883484,0.15675997734069824,-0.04050935432314873,-0.2020390561089767,0.10176386670401617,-0.09246016519906428
2.892151117324829,-0.05830344557762146,-0.11949747800827026,-0.06656628847122192,-0.14327919483184814,0.14061430096626282,-0.041565775871276855,-0.20340143050277265,0.10319750800822117,-0.09274486972116605
2.901848077774048,-0.0599333718419075,-0.10572810471057892,-0.04106307029724121,-0.1841653734445572,0.13060560822486877,-0.04093913361430168,-0.20506270465481805,0.1044995601929368,-0.09298780183247217
2.912229061126709,-0.05827055126428604,-0.11605308949947357,-0.014753937721252441,-0.221218541264534,0.12593881785869598,-0.051736921072006226,-0.20713067587685388,0.10572121598575286,-0.0932419719932344
2.921747922897339,-0.055783361196517944,-0.11543448269367218,-0.012895941734313965,-0.2710835635662079,0.13780133426189423,-0.05767364054918289,-0.20963321256761092,0.10696974229489288,-0.09353180000634445
2.9319498538970947,-0.05380786955356598,-0.0945245623588562,-0.01432734727859497,-0.22514832019805908,0.14937245845794678,-0.05869480222463608,-0.21223369921764335,0.10832532413392293,-0.0938398682119113
2.9421708583831787,-0.048850759863853455,-0.07981158792972565,-0.02712494134902954,-0.16156348586082458,0.16927692294120789,-0.048503149300813675,-0.2141972630389622,0.10985027650958139,-0.09417370658714375
2.952072858810425,-0.041864559054374695,-0.057055532932281494,-0.042326927185058594,-0.07667861878871918,0.16774791479110718,-0.03837376460433006,-0.21547260861483483,0.11148642063206596,-0.09447444937420252
2.9621479511260986,-0.03355671465396881,-0.06150709092617035,-0.03492015600204468,0.04649071767926216,0.16344104707241058,-0.03282346948981285,-0.21564031955351454,0.11305520473299044,-0.09482147782864409
2.972126007080078,-0.031218312680721283,-0.06796516478061676,-0.0340237021446228,0.13250836730003357,0.16720183193683624,-0.035495635122060776,-0.21476935637906264,0.11461732107881976,-0.09525901065081901
2.9835500717163086,-0.03221052139997482,-0.05611319839954376,-0.022968173027038574,0.20660710334777832,0.16305342316627502,-0.04410270228981972,-0.21311837554281607,0.11614806974744227,-0.09586050114392043
2.9929192066192627,-0.032682180404663086,-0.06779760122299194,-0.007042527198791504,0.2379447966814041,0.15225550532341003,-0.05267259478569031,-0.2109136982647241,0.11755251224155108,-0.09662763810261503
3.002092123031616,-0.03241405636072159,-0.07273516058921814,0.002042114734649658,0.2189924120903015,0.15060195326805115,-0.05991053581237793,-0.20867634691579526,0.11886945948045273,-0.09748204309344441
3.012087106704712,-0.037700191140174866,-0.07099804282188416,0.011675357818603516,0.19978661835193634,0.15570314228534698,-0.04908116161823273,-0.20604359393844635,0.1199091412464737,-0.09836752720703504
3.022132158279419,-0.03887344151735306,-0.07247176766395569,0.00915217399597168,0.16666196286678314,0.14982262253761292,-0.03773396462202072,-0.20360589392131867,0.12089792035135759,-0.09911109714372354
3.0322959423065186,-0.036799684166908264,-0.0691242665052414,0.019503235816955566,0.08551260083913803,0.13658516108989716,-0.03264738246798515,-0.20174618991586404,0.12166885041835637,-0.09974254816903423
3.042475938796997,-0.03497941046953201,-0.0709177702665329,0.02639472484588623,0.00021288287825882435,0.1306508332490921,-0.030325105413794518,-0.20039979325717897,0.12228955037249188,-0.10024381230567178
3.0521750450134277,-0.035775505006313324,-0.07187201082706451,0.019894659519195557,-0.07355809211730957,0.12871892750263214,-0.016359968110919,-0.19945844168246438,0.12281779909834034,-0.10059132601797338
3.0623080730438232,-0.03348056226968765,-0.054885298013687134,0.015272676944732666,-0.09689749777317047,0.11803805828094482,-0.00424578133970499,-0.1991900606858222,0.1232439948671998,-0.10073797395448264
3.0721681118011475,-0.030639253556728363,-0.03418987989425659,0.006386399269104004,-0.09078709781169891,0.10308738052845001,0.005021379794925451,-0.1987340503827046,0.12365282319225832,-0.10076075016173398
3.082608938217163,-0.02747131884098053,-0.022288039326667786,-0.00960606336593628,-0.06414216756820679,0.08043986558914185,0.014636456966400146,-0.19794030649370065,0.12393702730464731,-0.10069043731361856
3.0922930240631104,-0.02485976368188858,-0.01726837456226349,-0.013699710369110107,-0.028139762580394745,0.054876264184713364,0.015702733770012856,-0.19688265606476285,0.1239083072291446,-0.10061735811828625
3.102199077606201,-0.025018267333507538,-0.014408186078071594,-0.014925718307495117,-0.0006910939700901508,0.03401705622673035,0.016401546075940132,-0.19542891718780891,0.12362762026379136,-0.10058845567357279
3.1132400035858154,-0.02592950314283371,-0.004555940628051758,-0.012250363826751709,-0.0012742761755362153,0.01850179210305214,0.02467028982937336,-0.19395642383370446,0.12327373789454346,-0.10051002361044588
3.1225969791412354,-0.020354866981506348,0.003300979733467102,-0.010742008686065674,-0.006360114552080631,0.0014037643559277058,0.034988440573215485,-0.1928072066262549,0.12295856897909317,-0.10029352791377694
3.1322009563446045,-0.014852523803710938,0.0011143684387207031,-0.008746147155761719,-0.0028244357090443373,-0.01566399075090885,0.041612572968006134,-0.19178590288435327,0.12256435937896525,-0.09997734343302914
3.142108201980591,-0.009478025138378143,0.005237951874732971,-0.010442256927490234,0.001115444814786315,-0.03008873574435711,0.0438871793448925,-0.19112934398788864,0.12209108630721423,-0.09959960372637315
3.152348041534424,-0.006206601858139038,0.012337550520896912,-0.011336803436279297,0.008273456245660782,-0.04626166820526123,0.03948316350579262,-0.19073646000402553,0.12151193333256359,-0.09923641428979116
3.1623198986053467,-0.003412798047065735,0.007886141538619995,-0.011296749114990234,0.014299657195806503,-0.059826482087373734,0.03564368560910225,-0.1904058981365587,0.12079821454819682,-0.09891470645961781
3.172292947769165,-0.002277061343193054,0.004758879542350769,-0.0066533684730529785,0.013571815565228462,-0.06738720089197159,0.03407827764749527,-0.19007874948150028,0.11998555380280822,-0.09862521407842136
3.1823079586029053,-0.0011732950806617737,0.007828176021575928,-0.0030022859573364258,0.010374690406024456,-0.07121255993843079,0.029414018616080284,-0.18979675983241281,0.11909739321371204,-0.09836773505380209
3.192368984222412,0.0018876418471336365,0.007173553109169006,0.005565345287322998,0.014755923300981522,-0.06799110770225525,0.027089077979326248,-0.18962430809886371,0.11812953156097099,-0.0981566722614271
3.2023398876190186,0.0034330859780311584,0.005832776427268982,0.0023140907287597656,0.020370932295918465,-0.06594207882881165,0.02806992083787918,-0.18956012275922232,0.11718494314624789,-0.09795677829553262
3.212357997894287,0.00966547429561615,0.008739680051803589,-0.002389252185821533,0.027813801541924477,-0.06807340681552887,0.028929270803928375,-0.18935025825582544,0.11635978089754978,-0.09773293542899664
3.222203016281128,0.012959778308868408,0.0064872801303863525,-0.0011091828346252441,0.05153564363718033,-0.06525285542011261,0.029942337423563004,-0.18906463023002604,0.11563555959838998,-0.09750214403847698
3.232462167739868,0.012502416968345642,0.0037262141704559326,-0.0003603696823120117,0.06855617463588715,-0.0631747841835022,0.030893348157405853,-0.18870651576945568,0.11500164868649466,-0.09726842454721546
3.2430920600891113,0.015975378453731537,0.00600019097328186,0.0017836689949035645,0.07392510771751404,-0.06593035161495209,0.033252112567424774,-0.1881158142521085,0.11441632705095468,-0.09702655116500787
3.252295970916748,0.019750699400901794,0.0018465518951416016,0.007805883884429932,0.06837694346904755,-0.06645233929157257,0.04111243039369583,-0.18749784962003307,0.11384913215662769,-0.09672925189626454
3.2623870372772217,0.019814491271972656,-0.002607181668281555,0.012845933437347412,0.05604570358991623,-0.05640503019094467,0.04746300354599953,-0.18703005801013456,0.11335161818882036,-0.0963529690174664
3.272291898727417,0.017051339149475098,-0.007389679551124573,0.0169333815574646,0.04097061604261398,-0.04397845268249512,0.05819075182080269,-0.18672608744414385,0.11304947859756272,-0.09585456914515514
3.2823259830474854,0.01680796593427658,-0.01379324495792389,0.02288222312927246,0.028707558289170265,-0.03701881319284439,0.06500072032213211,-0.1865034781022712,0.11288765184148872,-0.09524446809124149
3.2927820682525635,0.01727403700351715,-0.01256398856639862,0.026040852069854736,0.01855671964585781,-0.02919577807188034,0.07259014248847961,-0.1864171439394689,0.11289292293707948,-0.09452886387177609
3.3023841381073,0.017023399472236633,-0.009231775999069214,0.031013309955596924,0.01340510044246912,-0.02292456664144993,0.07555051892995834,-0.18634913488972504,0.11302313639133452,-0.09375131307081926
3.3125510215759277,0.013257898390293121,-0.009554252028465271,0.03526711463928223,0.009045439772307873,-0.015445346012711525,0.07871653139591217,-0.18625803353355372,0.11320520537833845,-0.0929401453439404
3.322658061981201,0.009698085486888885,-0.00940510630607605,0.037227511405944824,0.015485495328903198,-0.0031825536862015724,0.08080098778009415,-0.18618390835896706,0.11353643068898847,-0.09209019776687448
3.332763910293579,0.005908630788326263,-0.0038170218467712402,0.028189122676849365,0.011551524512469769,0.01237541064620018,0.07814890891313553,-0.18600968532267623,0.11400692179002643,-0.09124301052068529
3.3425750732421875,0.0041627585887908936,0.0018121898174285889,0.021596550941467285,0.019867777824401855,0.01984318159520626,0.08114096522331238,-0.18576257698285487,0.11455509652984956,-0.09040331281444725
3.352905035018921,0.005410239100456238,0.0012556612491607666,0.01601278781890869,0.03337321802973747,0.016837138682603836,0.07392103224992752,-0.18535073162319798,0.11508136864168571,-0.08960686908882724
3.362946033477783,0.0036867111921310425,0.0047485679388046265,0.010403215885162354,0.040718480944633484,0.015091968700289726,0.06727458536624908,-0.18477770897360904,0.11555267151940646,-0.08889871308456282
3.3741471767425537,-0.0006418526172637939,0.010875165462493896,0.006605088710784912,0.052711308002471924,0.012517446652054787,0.06000031530857086,-0.18416440990755273,0.11598748902690864,-0.08826676834681031
3.382524013519287,-0.006722383201122284,0.009346619248390198,0.007814764976501465,0.06256820261478424,0.005436367355287075,0.0536968819797039,-0.18349975070299127,0.11634017370403088,-0.08772975181415778
3.392896890640259,-0.009106233716011047,0.011805087327957153,0.0064855217933654785,0.06983868032693863,-0.00017877435311675072,0.053265128284692764,-0.18276855015140614,0.11657787584919949,-0.08725204398023191
3.402531862258911,-0.007940813899040222,0.02003684639930725,0.000653684139251709,0.06656965613365173,-0.011997085064649582,0.05024110898375511,-0.18203189365752864,0.11669666760306693,-0.08679271332101358
3.4125959873199463,-0.008070513606071472,0.018724963068962097,-0.003180861473083496,0.05892358347773552,-0.02659049816429615,0.04413171112537384,-0.1814109435097937,0.11664424496885815,-0.08636958925461874
3.4227240085601807,-0.00598396360874176,0.015508919954299927,-0.005590677261352539,0.05223985016345978,-0.03796645626425743,0.04148373007774353,-0.18094192950268753,0.11643513288693874,-0.0859938585583444
3.432725191116333,-0.0040798187255859375,0.01675480604171753,-0.007057905197143555,0.040310684591531754,-0.0513208769261837,0.03605077415704727,-0.18055958179249917,0.11611791994338068,-0.08564913769142118
3.443325996398926,-0.0008870959281921387,0.01824769377708435,-0.00704270601272583,0.031093217432498932,-0.06895419955253601,0.02996864728629589,-0.18036045246752339,0.11562589120211166,-0.0853535507823714
3.4525978565216064,0.0007235407829284668,0.016265004873275757,-0.004622936248779297,0.027126505970954895,-0.08385200798511505,0.025994466617703438,-0.18034398551769248,0.11489863856677661,-0.08511020290912476
3.4626638889312744,-8.775293827056885e-05,0.016265422105789185,-0.006292462348937988,0.017874950543045998,-0.09443407505750656,0.025306040421128273,-0.18035906050704353,0.11398045960502567,-0.08489693501257659
3.474307060241699,0.0020214617252349854,0.01667359471321106,-0.0075223445892333984,0.01682383380830288,-0.1037820428609848,0.029726939275860786,-0.18045600485674188,0.1129485730533673,-0.08465778476168688
3.4826250076293945,0.004420071840286255,0.009663432836532593,-0.0047457218170166016,0.02905013971030712,-0.10498685389757156,0.037970222532749176,-0.1806020795248115,0.11188709267685462,-0.08435775710894584
3.4927480220794678,0.0030608028173446655,0.004581615328788757,-0.0035099387168884277,0.045504964888095856,-0.09993541985750198,0.04366789385676384,-0.18054069061214775,0.11087260350562061,-0.08399277781408378
