timestamp,accel_x,accel_y,accel_z,rotation_x,rotation_y,rotation_z, pitch,roll,yaw
0.046746015548706055,-0.013961553573608398,0.013068139553070068,-0.0006046220660209656,0.00899545568972826,-0.00758080929517746,-0.021621480584144592,-0.2652225827410281,1.4817637194513136,0.24283304941141146
0.05919003486633301,-0.005159139633178711,0.013254553079605103,0.004177987575531006,0.0012371344491839409,-0.021693166345357895,-0.02558053471148014,-0.26545638531567983,1.481608290990839,0.24276321786642224
0.0609591007232666,-0.001100778579711914,0.009165287017822266,0.008234083652496338,-0.00934904720634222,-0.025745920836925507,-0.026735762134194374,-0.2657251193033984,1.4813664989919886,0.2427778826746639
0.06614899635314941,0.00024694204330444336,0.010100334882736206,0.009979546070098877,-0.015407472848892212,-0.021888598799705505,-0.029989877715706825,-0.26602118671625125,1.4811465998380526,0.2428864801245294
0.07509303092956543,-0.0035422444343566895,0.012242406606674194,0.010169275104999542,-0.018924392759799957,-0.01429872214794159,-0.03477589786052704,-0.2663630375539416,1.4810043143745104,0.24303513399131765
0.08490395545959473,-0.007432997226715088,0.012396067380905151,0.010931611061096191,-0.015460419468581676,-0.0037512718699872494,-0.04157388210296631,-0.26675737555469026,1.4809634658626778,0.2431724347700659
0.09497308731079102,-0.004164695739746094,0.012249767780303955,0.011506371200084686,-0.010263876058161259,0.0005472032353281975,-0.05228245630860329,-0.26724128036500155,1.4809886034834818,0.24326565877936687
0.1049959659576416,0.006346702575683594,0.011071473360061646,0.011231422424316406,-0.004641144070774317,-0.0023822742514312267,-0.0608903244137764,-0.267814327628461,1.480990645460433,0.2432919270390083
0.11498618125915527,0.014942824840545654,0.008014857769012451,0.013407282531261444,-0.004230151884257793,-0.007999679073691368,-0.06783893704414368,-0.26845237135473027,1.4809336160985855,0.24327617636932114
0.12503409385681152,0.018927574157714844,0.004310876131057739,0.01436055451631546,-0.005367055535316467,-0.009011680260300636,-0.07543081045150757,-0.26917632240154754,1.4808286100431383,0.24325366151377495
0.13503289222717285,0.014820277690887451,-0.0038237571716308594,0.016498379409313202,-0.00798998586833477,0.008124738931655884,-0.08369182795286179,-0.26996966577163106,1.4808230579952817,0.24325854117166273
0.14504504203796387,0.005477249622344971,-0.01062077283859253,0.017139196395874023,-0.0021025361493229866,0.019197629764676094,-0.08063478022813797,-0.27080012835521944,1.4809613889330415,0.24323450728202645
0.1551802158355713,-0.000880897045135498,-0.01517745852470398,0.015658915042877197,0.006704338360577822,0.02789258398115635,-0.0738028734922409,-0.27157025905061577,1.4811649355943182,0.24313765838708612
0.16500592231750488,-0.003017127513885498,-0.020259052515029907,0.012124419212341309,0.021194597706198692,0.04096471145749092,-0.062053535133600235,-0.2722359825243813,1.4814605779210754,0.24293152624455266
0.17542505264282227,-0.005211174488067627,-0.023691922426223755,0.005382053554058075,0.03248816356062889,0.04544397071003914,-0.0470011904835701,-0.2727584868339266,1.4818112672242036,0.2425994612398791
0.18526196479797363,-0.007543444633483887,-0.027667194604873657,0.0019572973251342773,0.03777480497956276,0.052888303995132446,-0.028995560482144356,-0.27311535609111615,1.4821912392213958,0.24219182257226324
0.19543814659118652,-0.010411202907562256,-0.030084580183029175,-0.0012609362602233887,0.03758513927459717,0.060489632189273834,-0.012395491823554039,-0.27329641790127507,1.4829330418429725,0.24185318656846475
0.20521306991577148,-0.01434391736984253,-0.03255593776702881,-0.003621518611907959,0.03477257490158081,0.06461966037750244,0.002807163167744875,-0.27327997245666164,1.4837399650187029,0.24154883354043954
0.21527409553527832,-0.01955270767211914,-0.03566020727157593,-0.005081243813037872,0.025517957285046577,0.06957545131444931,0.01528929267078638,-0.2730809967261545,1.4846302253750379,0.24132834262880454
0.22530722618103027,-0.019575893878936768,-0.033994048833847046,-0.010381877422332764,0.019616924226284027,0.06674743443727493,0.02373976819217205,-0.2727609956687725,1.4855346027258058,0.24118061163774468
0.23526501655578613,-0.01723778247833252,-0.030948668718338013,-0.013872392475605011,0.002955389441922307,0.057796820998191833,0.03144482895731926,-0.27233987256273356,1.4863516586062615,0.2411466435822356
0.24574017524719238,-0.011825025081634521,-0.02598714828491211,-0.014757752418518066,-0.019527016207575798,0.0444895401597023,0.036181528121232986,-0.2718462313781315,1.4870313268196544,0.24129595382829613
0.25516819953918457,-0.006748676300048828,-0.02160736918449402,-0.015967555344104767,-0.05208682268857956,0.029275964945554733,0.03663666173815727,-0.2713388754322501,1.4874927647385157,0.2416821524421325
0.2651240825653076,-0.002072155475616455,-0.01980695128440857,-0.018690891563892365,-0.09143875539302826,0.02234375663101673,0.03420146554708481,-0.2708480552542276,1.4878613487267474,0.24243273786278532
0.275454044342041,-0.002303898334503174,-0.017304331064224243,-0.01914065331220627,-0.12802614271640778,0.01891302689909935,0.026547860354185104,-0.27043611044743604,1.4882438196462646,0.24356723302921163
0.28527188301086426,-0.002137601375579834,-0.009730875492095947,-0.021388232707977295,-0.1595534384250641,0.009766134433448315,0.01930645853281021,-0.2701458313844814,1.4886364701108605,0.24502710632253505
0.29563212394714355,3.910064697265625e-05,0.0001493394374847412,-0.02620576322078705,-0.20619115233421326,-0.009130768477916718,0.0026519012171775103,-0.2699952051694583,1.4889690952967045,0.24685980739953253
0.3053760528564453,0.003966689109802246,0.00814768671989441,-0.029307305812835693,-0.29160380363464355,-0.023388266563415527,-0.03068847768008709,-0.27015075134522953,1.4892239317784361,0.24931331374220933
0.3156440258026123,0.0035469532012939453,0.010109126567840576,-0.03808140009641647,-0.43179044127464294,-0.03286290913820267,-0.0789390504360199,-0.2708071224391552,1.4896065223187724,0.25288851545807245
0.32546210289001465,-0.000720977783203125,0.008028745651245117,-0.0550805926322937,-0.6496239900588989,-0.048427220433950424,-0.14580729603767395,-0.27217470629446555,1.4903235484674087,0.2582380944443091
0.3377959728240967,-0.0042724609375,0.003969728946685791,-0.06524734944105148,-0.9560234546661377,-0.0643797293305397,-0.2335822582244873,-0.27453609852673366,1.4915946485570644,0.2662691652075589
0.3453810214996338,0.0005195140838623047,0.00420534610748291,-0.07233434170484543,-1.302549123764038,-0.10403899103403091,-0.3319775462150574,-0.2780342286769918,1.4934808953994065,0.27762295203938664
0.35569310188293457,0.009798288345336914,0.011005014181137085,-0.08719998598098755,-1.6529479026794434,-0.1659214049577713,-0.4752630591392517,-0.2831535304265982,1.4963186768725416,0.2926544987977045
0.36547112464904785,0.01827406883239746,0.012578040361404419,-0.10311960428953171,-2.017960786819458,-0.2620905637741089,-0.7052651047706604,-0.290342692323582,1.499470598428671,0.3112823175123502
0.3758111000061035,0.023399651050567627,0.019212782382965088,-0.13022345304489136,-2.47770619392395,-0.41279733180999756,-1.0017642974853516,-0.3003938536022801,1.5027630730618977,0.3340368055580639
0.3877120018005371,0.04401677846908569,0.061479806900024414,-0.1862124800682068,-3.0844037532806396,-0.6840075254440308,-1.3373420238494873,-0.31390455373266324,1.5058838742559362,0.3622840105215521
0.3957669734954834,0.10273140668869019,0.1413344442844391,-0.2193484902381897,-3.765674114227295,-0.9716697335243225,-1.691197395324707,-0.33121028095728416,1.5086370431021676,0.3973283543582611
0.40554022789001465,0.17099326848983765,0.248869389295578,-0.22090041637420654,-4.470903396606445,-1.1926958560943604,-2.075767993927002,-0.3524692575553888,1.5120037253649008,0.43977357588446164
0.41564011573791504,0.21481311321258545,0.3861621022224426,-0.23123270273208618,-5.055975437164307,-1.344895839691162,-2.563174247741699,-0.37830552519646093,1.51701289795382,0.48949224182100703
0.4255959987640381,0.23927080631256104,0.5023410320281982,-0.19633716344833374,-5.353540897369385,-1.5081591606140137,-3.126751184463501,-0.40938981770739524,1.5238589729927536,0.5445884959939014
0.438068151473999,0.264892041683197,0.618049144744873,-0.1354122757911682,-5.115000247955322,-1.6749134063720703,-3.651822805404663,-0.445609386540431,1.5312396086870148,0.6008254839061231
0.44543910026550293,0.29829126596450806,0.7904651165008545,-0.0756344199180603,-4.4220709800720215,-1.860973834991455,-4.141071796417236,-0.48639152163278665,1.5368860725530342,0.6529017857082099
0.455639123916626,0.34579747915267944,1.0132601261138916,-0.07962137460708618,-3.4493095874786377,-1.962554693222046,-4.531219959259033,-0.5311560969507558,1.5388841591439828,0.6965115589910219
0.46570897102355957,0.4113650321960449,1.2018013000488281,-0.1364627480506897,-2.40608811378479,-2.03029203414917,-4.795433044433594,-0.5788412039433746,1.5359955531776452,0.729052748173223
0.4757101535797119,0.4884750247001648,1.2595124244689941,-0.2088249921798706,-1.6149744987487793,-2.05782151222229,-5.044735908508301,-0.6287994117945906,1.527832139110776,0.7508627920417748
0.4876270294189453,0.5504595637321472,1.190258264541626,-0.2500004768371582,-1.2062608003616333,-1.910354733467102,-5.301208972930908,-0.6812300788489711,1.5164370180517084,0.7651290994272758
0.49598193168640137,0.5776466131210327,1.0546903610229492,-0.25494134426116943,-1.113187313079834,-1.664255142211914,-5.541576862335205,-0.7360949555391294,1.505622114070386,0.7759421526621374
0.5064570903778076,0.5760089755058289,0.885011613368988,-0.26957905292510986,-1.1570266485214233,-1.4783878326416016,-5.8350419998168945,-0.7936524134228118,1.4969671494725325,0.7861008110473878
0.5157601833343506,0.5780126452445984,0.699749767780304,-0.2426820993423462,-1.2331403493881226,-1.312656283378601,-6.166323661804199,-0.854503316123854,1.4909402608083753,0.7969569599315458
0.5257160663604736,0.5932836532592773,0.5911430716514587,-0.16578924655914307,-1.0294649600982666,-1.141984462738037,-6.43210506439209,-0.9183471654347385,1.4864058193579033,0.8069527649737825
0.5371479988098145,0.6108404397964478,0.6096928715705872,-0.08764816075563431,-0.5235686898231506,-1.0061509609222412,-6.620558261871338,-0.9841685245335997,1.4786566911591987,0.8106269533431698
0.5457079410552979,0.6396389007568359,0.7045519351959229,-0.02131354808807373,0.11251986771821976,-0.9095398187637329,-6.786650657653809,-1.0511369053928756,1.4613974060572739,0.8016034224588725
0.5557382106781006,0.704923152923584,0.8169518113136292,0.022590212523937225,0.6124618649482727,-0.8233041167259216,-6.908147811889648,-1.1187502448030793,1.4294615364405272,0.7753208368371619
0.5657310485839844,0.8104389309883118,0.8447870016098022,0.04327065497636795,1.0819153785705566,-0.7436335682868958,-6.941802978515625,-1.1857301423473539,1.3766280637452157,0.7261355129922945
0.5759909152984619,0.9191477298736572,0.7528756856918335,0.03404747694730759,1.363933801651001,-0.6450149416923523,-7.046848297119141,-1.250866759004958,1.292090500987705,0.6436275257630454
0.587299108505249,0.966677188873291,0.5690767168998718,0.032923996448516846,1.673323154449463,-0.48485156893730164,-7.101449966430664,-1.312621848333891,1.1579903263921296,0.5096785945987908
0.5958302021026611,0.9565632939338684,0.40402817726135254,0.048575595021247864,2.0389976501464844,-0.4281793534755707,-7.132195949554443,-1.3651870006459057,0.9331272627120375,0.28341883430170445
0.6058850288391113,0.9710604548454285,0.21397757530212402,0.07118238508701324,2.2902419567108154,-0.3919238746166229,-7.200885772705078,-1.3990441522910955,0.5752424137157285,-0.07653134386612706
0.6157529354095459,0.964477002620697,0.05726659297943115,0.15918058156967163,2.4773778915405273,-0.31352850794792175,-7.2022175788879395,-1.401400842416497,0.1266023085929147,-0.5279522516916944
0.6258251667022705,0.9420527815818787,-0.009586870670318604,0.23755522072315216,2.503977060317993,-0.2701043486595154,-7.158340930938721,-1.3713065779417228,-0.25463509890196756,-0.9126316446665648
0.6388130187988281,0.966347873210907,-0.02861422300338745,0.3182494640350342,2.2490792274475098,-0.21698321402072906,-7.135937690734863,-1.3219468795921014,-0.5100000716748868,-1.1718661937025712
0.6474359035491943,1.0263917446136475,-0.045273661613464355,0.40409353375434875,2.059039831161499,-0.1734655648469925,-6.9454264640808105,-1.264566168200839,-0.6756211517835504,-1.3420285031925077
0.6573300361633301,1.107797384262085,-0.09141552448272705,0.44687503576278687,1.8362287282943726,-0.1956939846277237,-6.748988628387451,-1.2041867743972288,-0.7861568446029752,-1.4570840605619835
0.6659619808197021,1.173624873161316,-0.23316508531570435,0.46251046657562256,1.6482410430908203,-0.1653563231229782,-6.592051982879639,-1.1432450848458264,-0.8654887952568364,-1.5410585741080638
0.6758890151977539,1.1473760604858398,-0.36537617444992065,0.47510966658592224,1.5294088125228882,-0.07631207257509232,-6.405719757080078,-1.0824756622670204,-0.9241476593607868,-1.6050426434462517
0.688917875289917,1.078566074371338,-0.463076651096344,0.4495715796947479,1.4578778743743896,0.009464620612561703,-6.16918420791626,-1.022671439782505,-0.9679341891589455,-1.6550792214136645
0.6976039409637451,1.0271196365356445,-0.4967244267463684,0.43712088465690613,1.4113922119140625,0.059926994144916534,-5.884048938751221,-0.9643982849300455,-1.0004765106577822,-1.6943285987039476
0.7075049877166748,0.9959895014762878,-0.5664414763450623,0.44460418820381165,1.3541312217712402,0.08360223472118378,-5.545454502105713,-0.9084946564473461,-1.024949259752405,-1.7256143778388264
0.71592116355896,0.9606383442878723,-0.6813604831695557,0.44406482577323914,1.2551605701446533,0.09180179983377457,-5.194632053375244,-0.8555599262842608,-1.0437248942944173,-1.7510546252008126
0.7260291576385498,0.9027507305145264,-0.8058792948722839,0.42136579751968384,1.132927417755127,0.1308586448431015,-4.790613174438477,-0.8062279390536515,-1.0585436549021523,-1.7726279526109274
0.7371289730072021,0.8290817737579346,-0.8899602890014648,0.3986470699310303,1.0377388000488281,0.1940285712480545,-4.332446098327637,-0.7609535416662878,-1.069515858902795,-1.7904175078481492
0.7459640502929688,0.7558144927024841,-0.9829272031784058,0.363107830286026,0.8199833035469055,0.3032890260219574,-3.8112356662750244,-0.7206228657122468,-1.0773543906900447,-1.80570823336815
0.7560100555419922,0.6875021457672119,-1.0480785369873047,0.3401002883911133,0.5201206803321838,0.3943217992782593,-3.186673879623413,-0.6865183449448986,-1.0827826053612772,-1.8196044356703514
0.765998125076294,0.6347140073776245,-1.1155872344970703,0.33675673604011536,0.1275734007358551,0.4619719386100769,-2.535325288772583,-0.6596115767774717,-1.0868993423695865,-1.8329689471385309
0.7760460376739502,0.5899139642715454,-1.1945041418075562,0.3341684937477112,-0.2690933048725128,0.6211368441581726,-1.7887272834777832,-0.6407462753107775,-1.0897098587474916,-1.8464999852899822
0.7881128787994385,0.5368703603744507,-1.2187459468841553,0.3353237211704254,-0.6337893009185791,0.7339605689048767,-0.9999349117279053,-0.6305012508384796,-1.0907057527357102,-1.8596371195568526
0.7959311008453369,0.4943462610244751,-1.1942068338394165,0.3199464678764343,-0.8743954300880432,0.8306646347045898,-0.14574071764945984,-0.6289305052732518,-1.0897005021470347,-1.8713069399615527
0.8058810234069824,0.4884064197540283,-1.1121339797973633,0.2777157425880432,-1.056873083114624,0.8712291121482849,0.732301652431488,-0.6360868728347404,-1.086452432118154,-1.8802878069108946
0.8160531520843506,0.5045733451843262,-1.0259445905685425,0.2304583191871643,-1.1200182437896729,0.8398304581642151,1.5621050596237183,-0.6514537273713801,-1.0810590148027441,-1.885624271287843
0.8259930610656738,0.5004697442054749,-0.9944546818733215,0.21316814422607422,-1.096195936203003,0.7801879048347473,2.220787286758423,-0.6735214807486423,-1.0735600605436701,-1.8866478282179742
0.8372781276702881,0.46882951259613037,-0.9869228005409241,0.20897555351257324,-0.9767003059387207,0.7115945219993591,2.745222568511963,-0.7003893948185943,-1.0637272918514458,-1.8829441191878111
0.8460540771484375,0.41806697845458984,-0.941706120967865,0.2311522364616394,-0.7900159358978271,0.6166919469833374,3.2182297706604004,-0.7307718292469335,-1.051007574876111,-1.873742087295412
0.8559820652008057,0.37968552112579346,-0.8655391931533813,0.26051291823387146,-0.5577026009559631,0.5072174668312073,3.665639638900757,-0.7639611659998914,-1.0346795651522052,-1.858002969361447
0.866102933883667,0.35854774713516235,-0.8099085092544556,0.27943119406700134,-0.3369457721710205,0.459307461977005,4.073740005493164,-0.7994200926528592,-1.0136691010227037,-1.8349838039287896
0.8764259815216064,0.3412061333656311,-0.8140926361083984,0.29773497581481934,-0.13998165726661682,0.499032199382782,4.442820072174072,-0.8365645773029986,-0.9863653874280922,-1.8041000819259332
0.8879730701446533,0.32876139879226685,-0.8580709099769592,0.2663181722164154,-0.10086221247911453,0.5528112649917603,4.784383773803711,-0.8753284030396522,-0.9520044412471061,-1.7656322189966058
0.8961930274963379,0.344339519739151,-0.8857696652412415,0.2043916881084442,-0.12406899780035019,0.5567612648010254,5.073256492614746,-0.9156360778246785,-0.9107596933306659,-1.7199271070162816
0.9060730934143066,0.39686429500579834,-0.872431218624115,0.1774505376815796,-0.2121775597333908,0.5760012865066528,5.31309700012207,-0.9569498739954859,-0.8620940558698524,-1.6665379678833514
0.9161531925201416,0.46146345138549805,-0.7427376508712769,0.1503785252571106,-0.3088647127151489,0.54033362865448,5.603176593780518,-0.9991928206758308,-0.8048503671845556,-1.6043661865011425
0.9265501499176025,0.5248230695724487,-0.505318284034729,0.14168182015419006,-0.5016211271286011,0.3972243666648865,5.868514537811279,-1.0420535447868924,-0.7372660626285635,-1.530639170905054
0.938615083694458,0.5611109733581543,-0.3576376438140869,0.15312689542770386,-0.9934593439102173,0.27600640058517456,6.026484489440918,-1.086060836206778,-0.6601885514809102,-1.4463151054091905
0.9495041370391846,0.5269154906272888,-0.31690919399261475,0.16914385557174683,-1.6266213655471802,0.20596204698085785,6.137147426605225,-1.1319495002494129,-0.5730893960224869,-1.3517025478398064
0.962069034576416,0.4515558183193207,-0.3997882008552551,0.16703671216964722,-2.25351619720459,0.14197693765163422,6.246135234832764,-1.1798612453565198,-0.4713196316222294,-1.242469347076025
0.967764139175415,0.3939446210861206,-0.5391201972961426,0.14584362506866455,-2.699373960494995,0.020814036950469017,6.285109519958496,-1.2278076045729729,-0.34624000367696417,-1.1094096615711277
0.9760539531707764,0.3812543451786041,-0.6309697031974792,0.09706699848175049,-3.0700652599334717,-0.08964966982603073,6.219557762145996,-1.2723125278221743,-0.1875251744095896,-0.9418161969546543
0.9874711036682129,0.41052454710006714,-0.5912804007530212,0.00813797116279602,-3.2407164573669434,-0.18297216296195984,6.258784294128418,-1.3094825406928754,0.01842028701572907,-0.7262607596766031
0.9962489604949951,0.49100324511528015,-0.3977423906326294,-0.07043789327144623,-3.1231374740600586,-0.31664299964904785,6.40477991104126,-1.3318791501202112,0.2807767250140089,-0.453009534986549
1.0062990188598633,0.589722752571106,-0.2531698942184448,-0.12343263626098633,-2.801812171936035,-0.3542556166648865,6.557394504547119,-1.3321566570928607,0.571858840369226,-0.1500332450914989
1.0163230895996094,0.6212442517280579,-0.12023556232452393,-0.15909844636917114,-2.2831313610076904,-0.30853602290153503,6.719871997833252,-1.3085163738085965,0.8322635073022544,0.12207318166390452
1.0264010429382324,0.6055184602737427,0.05305570363998413,-0.19360774755477905,-1.6803089380264282,-0.23019248247146606,6.903949737548828,-1.2656248183153964,1.024685663720482,0.3251998690759869
1.037842035293579,0.5905789136886597,0.1599494218826294,-0.2058323621749878,-1.096848487854004,-0.1313314288854599,7.071577548980713,-1.2099145078360227,1.1524187391279122,0.4622212798068763
1.0464441776275635,0.576511025428772,0.16720986366271973,-0.180991992354393,-0.6804026961326599,0.05353669822216034,7.116872787475586,-1.1469410714442572,1.234851675700591,0.5518443720801338
1.056617021560669,0.5487896203994751,0.15011197328567505,-0.13317549228668213,-0.4644211232662201,0.32416287064552307,7.115419864654541,-1.0807864538240644,1.2917597146201194,0.6131329548230624
1.066220998764038,0.5358861684799194,0.20310425758361816,-0.057729557156562805,-0.30861636996269226,0.5517089366912842,7.1213788986206055,-1.0127427542143919,1.3338659868519858,0.6566145360484091
1.077483892440796,0.5725982785224915,0.26325809955596924,0.02024589478969574,-0.5245976448059082,0.7739492058753967,7.008220195770264,-0.9445415905331301,1.369265116237017,0.6912440395395696
1.0880239009857178,0.6453478336334229,0.35609036684036255,0.098927803337574,-0.780449390411377,0.9251168966293335,6.977697849273682,-0.8769907331814161,1.4027033176860393,0.7226914301841398
1.096729040145874,0.732068657875061,0.45847851037979126,0.16690593957901,-0.8804397583007812,0.9720934629440308,6.997804164886475,-0.8091211561248187,1.4336760240154418,0.7514222806080729
1.1063201427459717,0.8163629770278931,0.4488203525543213,0.20591813325881958,-0.5668013691902161,1.045650601387024,6.888437271118164,-0.7409297486565991,1.4594706979126533,0.7738750066390299
1.1162810325622559,0.8391133546829224,0.3351673483848572,0.2673090100288391,0.05508312210440636,1.145896553993225,6.654691219329834,-0.6737340546451448,1.4786370349935238,0.786452594130132
1.1268820762634277,0.8220136165618896,0.2738685607910156,0.24539625644683838,0.8739223480224609,1.3031631708145142,6.439345836639404,-0.6081080708609911,1.4917681397837144,0.7878565314564545
1.1380841732025146,0.8366489410400391,0.38245415687561035,0.2044203281402588,1.9441099166870117,1.4141693115234375,6.263444900512695,-0.5436343298102928,1.4994746316863166,0.7768657833263422
1.146503210067749,0.8856693506240845,0.570669412612915,0.15348601341247559,3.030054807662964,1.43556809425354,6.083638668060303,-0.4802313701395747,1.5025455352275168,0.7533443891685558
1.157177209854126,0.9125235676765442,0.7359226942062378,0.09441959857940674,4.01673698425293,1.4818172454833984,5.932482719421387,-0.4177882240973245,1.5020954002472588,0.7187039788663041
1.1663990020751953,0.9078735709190369,0.8388371467590332,0.05308235436677933,4.8397955894470215,1.5535860061645508,5.742126941680908,-0.3563556544392522,1.500877682818466,0.6752186999084953
1.1763830184936523,0.8537399768829346,0.8607628345489502,0.007826387882232666,5.414348602294922,1.6158713102340698,5.501821041107178,-0.2965651384064589,1.5007284343988485,0.6251240323988889
1.1876130104064941,0.7550928592681885,0.8350434899330139,-0.013892106711864471,5.705606460571289,1.628810167312622,5.179899215698242,-0.23930115385386663,1.5027734236711394,0.5712255091907854
1.1967799663543701,0.653673529624939,0.7539452314376831,-0.005660586059093475,5.716981887817383,1.6195625066757202,4.766037464141846,-0.18578127968209546,1.5073918579757042,0.5159880947988223
1.2066371440887451,0.5491738319396973,0.5981040000915527,0.018945463001728058,5.422552585601807,1.655426025390625,4.300080299377441,-0.13711219588527676,1.5151211730291612,0.4621802299433177
1.2165300846099854,0.4471105933189392,0.4766148328781128,0.006945017725229263,4.922083854675293,1.7311691045761108,3.8326752185821533,-0.09383531209588263,1.5263179126057322,0.4120651490674019
1.2265260219573975,0.3705139756202698,0.42353224754333496,-0.02159041166305542,4.197719097137451,1.7438430786132812,3.3747897148132324,-0.05605034968007366,1.5404697535276743,0.3675097825596026
1.2376620769500732,0.33597809076309204,0.39535313844680786,-0.05661052465438843,3.2418453693389893,1.6205861568450928,2.91595196723938,-0.02370120519191677,1.5559145919660264,0.3309043675319254
1.246514081954956,0.32752084732055664,0.3629372715950012,-0.07081437110900879,2.2820050716400146,1.4745386838912964,2.4830610752105713,0.0035164805801787117,1.5711301822743542,0.3034772048363546
1.2564640045166016,0.3100546598434448,0.31048938632011414,-0.09983885288238525,1.420393705368042,1.346469759941101,2.0893819332122803,0.02626693844956578,1.585557674446814,0.28485478949555787
1.2665178775787354,0.26060450077056885,0.2966096103191376,-0.16185414791107178,0.7463197112083435,1.1886175870895386,1.710429310798645,0.04505316926276491,1.5986948341452067,0.2737294360875554
1.2765262126922607,0.20366883277893066,0.2995055913925171,-0.1993856430053711,0.2628041207790375,1.0502169132232666,1.3621494770050049,0.060238422636214754,1.6101987758526166,0.2682898173223564
1.2877490520477295,0.15307599306106567,0.2868700623512268,-0.2220977544784546,-0.026792801916599274,0.9588547945022583,1.0666378736495972,0.07233350906831035,1.620467357289438,0.2666414648230363
1.296604871749878,0.11531835794448853,0.29878753423690796,-0.26966285705566406,-0.2125789225101471,0.8349831104278564,0.8033014535903931,0.08174594647543579,1.629537709309743,0.26735891388154326
1.3065741062164307,0.09151691198348999,0.3349427580833435,-0.3072274923324585,-0.32475900650024414,0.6805626153945923,0.5806348323822021,0.08882844062680688,1.6370613370983198,0.2696673691928552
1.3172271251678467,0.07604265213012695,0.3555167019367218,-0.32705700397491455,-0.42005807161331177,0.5446105599403381,0.3860192596912384,0.09390535315336528,1.6429538627679219,0.27307468984594296
1.3269951343536377,0.04678463935852051,0.3558894693851471,-0.34103965759277344,-0.449513703584671,0.45878225564956665,0.21458972990512848,0.09723830577659359,1.647640929460745,0.2772203178167063
1.338104009628296,0.0021675825119018555,0.36266911029815674,-0.350604772567749,-0.44410014152526855,0.4223189949989319,0.06954650580883026,0.09899093781124607,1.6516820295746768,0.28161554325457633
1.3466110229492188,-0.03893780708312988,0.37529850006103516,-0.3576446771621704,-0.3982359766960144,0.3791707158088684,-0.03863295540213585,0.09949208191051342,1.6553692726741966,0.2858256252085335
1.356398105621338,-0.062214434146881104,0.3854844570159912,-0.35793769359588623,-0.35764607787132263,0.3229036331176758,-0.13165035843849182,0.09896377461644396,1.6585692648679702,0.2896769431544431
1.3664860725402832,-0.06280142068862915,0.38065022230148315,-0.35296106338500977,-0.32090964913368225,0.2451166957616806,-0.21233375370502472,0.09754065638014092,1.6610943816527397,0.2932154361317374
1.3766601085662842,-0.06114351749420166,0.38630616664886475,-0.3448079824447632,-0.319511741399765,0.16639870405197144,-0.2811998724937439,0.09535866892050833,1.662840490694746,0.2966155367599862
1.3868749141693115,-0.06358224153518677,0.39225277304649353,-0.33367669582366943,-0.3295939564704895,0.0652364045381546,-0.33552464842796326,0.09258027570373654,1.6637013494795454,0.3001739771079844
1.3969051837921143,-0.07207310199737549,0.37740659713745117,-0.31093621253967285,-0.3377005457878113,-0.03529699146747589,-0.4150354862213135,0.0891641024235477,1.6634980964314356,0.30384937649918603
1.406508207321167,-0.08875161409378052,0.3415301442146301,-0.28848445415496826,-0.3381175696849823,-0.08215930312871933,-0.5077648758888245,0.0848723414511593,1.6625498597980717,0.3076683359484246
1.4180309772491455,-0.11273223161697388,0.3398728370666504,-0.28770267963409424,-0.32490208745002747,-0.13177897036075592,-0.5739597678184509,0.07974922227209723,1.661185425866167,0.3114835289278906
1.4266140460968018,-0.1231621503829956,0.35949039459228516,-0.30518639087677,-0.30298638343811035,-0.22159487009048462,-0.6316853761672974,0.07402022849990555,1.6591608017932726,0.31516431574926196
1.4370081424713135,-0.11550021171569824,0.3759448230266571,-0.30916881561279297,-0.28561902046203613,-0.3154692053794861,-0.6855670809745789,0.06770795134310036,1.6562195084819016,0.318668275430838
1.446775197982788,-0.1121288537979126,0.3767649829387665,-0.3075742721557617,-0.3160592317581177,-0.40961915254592896,-0.7565635442733765,0.0607776089562784,1.6523693344112769,0.32222811136196644
1.4566740989685059,-0.11697793006896973,0.35351040959358215,-0.30894434452056885,-0.4037674069404602,-0.5032904744148254,-0.8579656481742859,0.05301336704840414,1.6475474716519463,0.3264319082226247
1.4666821956634521,-0.12085628509521484,0.3065783977508545,-0.29969358444213867,-0.5239633321762085,-0.568631649017334,-0.9671789407730103,0.044233199050854516,1.641905156515782,0.33174106379584395
1.476973056793213,-0.12284111976623535,0.28027409315109253,-0.28433144092559814,-0.646896243095398,-0.6317657828330994,-1.0716205835342407,0.03443129089686945,1.6356375030567152,0.33827690721938103
1.486962080001831,-0.11566317081451416,0.276104599237442,-0.26852118968963623,-0.7599425911903381,-0.7301307320594788,-1.1665210723876953,0.023680651409258208,1.6286267307873556,0.3460133801957689
1.496556043624878,-0.09078294038772583,0.2727011740207672,-0.24363279342651367,-0.8670309782028198,-0.868564784526825,-1.2858831882476807,0.011882962917424224,1.620467900952542,0.35479351870730197
1.5069880485534668,-0.061674416065216064,0.25487953424453735,-0.21314215660095215,-0.9986558556556702,-1.0013201236724854,-1.4357680082321167,-0.0013002940260723743,1.611036702051413,0.36472224568670836
1.5169610977172852,-0.043573856353759766,0.23725399374961853,-0.1985483169555664,-1.1547267436981201,-1.1194363832473755,-1.5812513828277588,-0.016027355780990984,1.6005142050338297,0.37599035440451156
1.5272018909454346,-0.022475004196166992,0.2503156065940857,-0.19362235069274902,-1.3398914337158203,-1.240276575088501,-1.7360495328903198,-0.032313332805521566,1.5890139890373407,0.3888741477215252
1.5388410091400146,0.0053008198738098145,0.26278889179229736,-0.20125794410705566,-1.5770816802978516,-1.3486491441726685,-1.9183343648910522,-0.050419117732067226,1.576642345717207,0.403672860315429
1.5470900535583496,0.03407329320907593,0.25697267055511475,-0.19816666841506958,-1.8380309343338013,-1.4664831161499023,-2.116621255874634,-0.07061590633655682,1.5635920687782243,0.4207872695664538
1.5573270320892334,0.06880438327789307,0.2642005681991577,-0.17558860778808594,-2.115446090698242,-1.5864518880844116,-2.3584725856781006,-0.09328022221979955,1.5498965663320439,0.4403098943840648
1.5667750835418701,0.1075400710105896,0.27345046401023865,-0.13789385557174683,-2.3886308670043945,-1.690829873085022,-2.6142685413360596,-0.11879653398091526,1.5357983357225686,0.4623015823004223
1.5768320560455322,0.1436173915863037,0.3124237656593323,-0.09780001640319824,-2.6313464641571045,-1.8035717010498047,-2.889047145843506,-0.14736812446187192,1.5214967055828306,0.48646626294075784
1.587406873703003,0.18500542640686035,0.3556324243545532,-0.05938273295760155,-2.89084529876709,-1.8709675073623657,-3.187096357345581,-0.17929269773556303,1.5072928243530068,0.5126956062706569
1.596755027770996,0.22550272941589355,0.3761987090110779,-0.05285608768463135,-3.135211229324341,-1.8707300424575806,-3.5184264183044434,-0.21488295356617015,1.494083167089081,0.5409969903618063
1.6068651676177979,0.2596065402030945,0.3999861478805542,-0.07070427387952805,-3.3489837646484375,-1.8550333976745605,-3.8703229427337646,-0.2544379086943791,1.4824000177890049,0.5711338699438835
1.6169321537017822,0.2999860644340515,0.43869975209236145,-0.08380192518234253,-3.4942121505737305,-1.7861193418502808,-4.217450141906738,-0.29797476587934113,1.4727437398907137,0.6027883812421498
1.6278932094573975,0.35771989822387695,0.5071641206741333,-0.09972149133682251,-3.435575485229492,-1.7206871509552002,-4.534521102905273,-0.34515297062643757,1.4652076348578216,0.6345583075682563
1.6375391483306885,0.42891615629196167,0.5717117786407471,-0.08732831478118896,-3.251117467880249,-1.7167364358901978,-4.820651531219482,-0.3954878447390046,1.4588368451335052,0.6648097439725246
1.6469261646270752,0.5023144483566284,0.6065961122512817,-0.05369614064693451,-2.9874610900878906,-1.6901499032974243,-5.089273929595947,-0.4484113029090116,1.45309603258036,0.6926175956235763
1.6567699909210205,0.5625417828559875,0.6003212928771973,-0.039026133716106415,-2.6764957904815674,-1.5838621854782104,-5.297296524047852,-0.5034931902823575,1.4479087659767742,0.7172599618315633
1.6667840480804443,0.5922168493270874,0.5796629786491394,-0.04723714292049408,-2.3537518978118896,-1.390144944190979,-5.431426048278809,-0.5599889383329022,1.4437346056173834,0.7384933296887596
1.6767408847808838,0.594375729560852,0.5612775087356567,-0.07302980870008469,-1.9468746185302734,-1.1804726123809814,-5.508080959320068,-0.6171043920668873,1.4404530678615244,0.7557572117291899
1.68697190284729,0.5836825370788574,0.5134402513504028,-0.07610124349594116,-1.458853840827942,-0.9874210953712463,-5.565578937530518,-0.6743143652491387,1.4368287914478133,0.7677854446197878
1.6969490051269531,0.5740684866905212,0.4487779140472412,-0.06004732847213745,-0.9911059141159058,-0.7890425324440002,-5.636263370513916,-0.7315352450695168,1.4317400356800851,0.7737150229634455
1.7070949077606201,0.5721805691719055,0.4391014575958252,-0.052801720798015594,-0.4731661081314087,-0.6267108917236328,-5.695234775543213,-0.7887289177979843,1.423848247597869,0.7725109740559124
1.7171690464019775,0.5894481539726257,0.4564608931541443,-0.03700309991836548,-0.039611876010894775,-0.5282053351402283,-5.749791622161865,-0.8457438994927489,1.411408991158754,0.7633662540800672
1.726952075958252,0.6269416809082031,0.437263548374176,-0.003241822123527527,0.24986255168914795,-0.42357853055000305,-5.812413215637207,-0.9026155644285185,1.3936158125224167,0.7464609944777725
1.7369940280914307,0.6574966907501221,0.4044027328491211,0.017101474106311798,0.4127230644226074,-0.28076478838920593,-5.876789569854736,-0.9594552935470473,1.3708848602926038,0.7225379042093824
1.7469499111175537,0.6746835112571716,0.3863322138786316,0.035878248512744904,0.5038207769393921,-0.16612876951694489,-5.980921268463135,-1.0164410111395423,1.3426539022136523,0.69139281836325
1.7574100494384766,0.7011135220527649,0.36385977268218994,0.07325798273086548,0.44537219405174255,-0.05680064111948013,-6.109809398651123,-1.0740150910536472,1.308102029106592,0.6527549790340363
1.7671480178833008,0.757002055644989,0.35972869396209717,0.10097701847553253,0.4242080748081207,0.01602509617805481,-6.1989593505859375,-1.1320163022647718,1.2656881626247043,0.6054426746389187
1.7771880626678467,0.8284386396408081,0.3558676838874817,0.10286307334899902,0.4814920127391815,0.08756107091903687,-6.305763244628906,-1.1896825480100974,1.2091275520429543,0.5432931370360404
1.787635087966919,0.8739235401153564,0.29510366916656494,0.08062094449996948,0.6079311370849609,0.19712138175964355,-6.424630165100098,-1.2462671769083162,1.1292229809163359,0.45664865154165213
1.7971022129058838,0.8706542253494263,0.295154333114624,0.05431932210922241,0.635779619216919,0.2692897319793701,-6.533261299133301,-1.300286124947353,1.0119851352873948,0.3316064926573303
1.8072490692138672,0.8700217604637146,0.320672869682312,0.05117392539978027,0.6026102304458618,0.29721617698669434,-6.635640621185303,-1.349330342463015,0.8364314107154612,0.14774272508552624
1.8173151016235352,0.8866377472877502,0.26238131523132324,0.0697365403175354,0.3622705340385437,0.3568689227104187,-6.701683044433594,-1.3892172472460698,0.5741143495817087,-0.1232077220405374
1.8273298740386963,0.8947591185569763,0.15138912200927734,0.06223048269748688,-0.02835046872496605,0.4166286587715149,-6.773953914642334,-1.413659461112159,0.2072242068495497,-0.499212820150037
1.8377411365509033,0.8871497511863708,0.06436812877655029,0.04961597919464111,-0.4980224072933197,0.5568298101425171,-6.882649898529053,-1.4157214822365625,-0.22610507265973084,-0.9425916119481951
1.8473670482635498,0.854351818561554,0.01669895648956299,0.06473183631896973,-0.8650038838386536,0.8058502674102783,-6.975575923919678,-1.3932360400379034,-0.6163955940654846,-1.3450489130378278
1.8573811054229736,0.8317056894302368,0.11362767219543457,0.1082349419593811,-0.7870259881019592,1.0388844013214111,-6.944587230682373,-1.3513478484131753,-0.89038721713777,-1.6338806286531864
1.8672130107879639,0.8793245553970337,0.298190176486969,0.1651536226272583,-0.3569667935371399,1.1303788423538208,-6.851236343383789,-1.2973913557975285,-1.053984706847466,-1.8137246152818933
1.8781390190124512,0.976955771446228,0.42690861225128174,0.20327980816364288,0.3215721547603607,1.1185280084609985,-6.750766277313232,-1.2368297962536021,-1.142493769297523,-1.9182821781793375
1.8901989459991455,1.049696445465088,0.4566071629524231,0.20251435041427612,1.0923594236373901,1.0812541246414185,-6.728320121765137,-1.172057391742836,-1.1838887301018037,-1.9743106837674627
1.8972690105438232,1.0763260126113892,0.36573755741119385,0.13971513509750366,1.7830036878585815,1.1098265647888184,-6.647587299346924,-1.1044549991004655,-1.198251388603015,-2.0021730263065183
1.907397985458374,1.0774744749069214,0.25140541791915894,0.0878676176071167,2.556035280227661,1.018898606300354,-6.456725597381592,-1.0354470393856758,-1.194251454847492,-2.009803668217629
1.9174201488494873,1.0902374982833862,0.015288472175598145,0.009710252285003662,2.8496899604797363,0.8885571360588074,-6.39028263092041,-0.9655965848618405,-1.182593837538966,-2.0072415057122655
1.9282610416412354,1.0662015676498413,-0.20296525955200195,0.014429688453674316,3.1004841327667236,0.7494506239891052,-6.202144145965576,-0.8958479473144152,-1.169954516964223,-2.001771010333902
1.9406390190124512,1.0208148956298828,-0.26059770584106445,0.06441771984100342,3.1596226692199707,0.5717564225196838,-5.956188678741455,-0.8274364039379987,-1.1576137052707052,-1.9941565872073366
1.9482901096343994,0.9980369210243225,-0.35910332202911377,0.12236383557319641,3.042314052581787,0.4871523082256317,-5.622513771057129,-0.7618128083525675,-1.1475407496326357,-1.9874876873714948
1.9572689533233643,0.9651762843132019,-0.40687769651412964,0.21289893984794617,2.865839719772339,0.31499364972114563,-5.2175445556640625,-0.7000934919387479,-1.139398228548235,-1.9813248667933436
1.9675319194793701,0.9442406892776489,-0.5804575085639954,0.2672542929649353,2.418351173400879,0.18022224307060242,-4.807296276092529,-0.6434106770100652,-1.1345499877499128,-1.9775264323315525
1.9778568744659424,0.9144965410232544,-0.7999295592308044,0.3442041575908661,1.740906834602356,0.08801553398370743,-4.369035720825195,-0.5928581688370036,-1.1335385164645748,-1.9780337980326963
1.9882090091705322,0.8602501153945923,-0.979259729385376,0.40795961022377014,0.8685023784637451,0.10686778277158737,-3.852050542831421,-0.5499629077302515,-1.1361541037957485,-1.9846048513478776
1.99760103225708,0.7937617301940918,-1.1175599098205566,0.4428350627422333,-0.0007928931154310703,0.1840275079011917,-3.197942018508911,-0.5160107597251772,-1.141147110644646,-1.9972776508208683
2.0079591274261475,0.7249080538749695,-1.1998919248580933,0.4217562675476074,-0.8089094161987305,0.3603151738643646,-2.3836262226104736,-0.4922005890899011,-1.1469363371782024,-2.0148142799788276
2.0176260471343994,0.6748204827308655,-1.1985832452774048,0.3392120897769928,-1.4378215074539185,0.474123477935791,-1.437272071838379,-0.47934971398906256,-1.152237874364729,-2.035357181321812
2.027787923812866,0.6487020254135132,-1.137208104133606,0.2535223960876465,-1.9359676837921143,0.5080097913742065,-0.48422467708587646,-0.4774712341322604,-1.1573615654141354,-2.057288215413913
2.039194107055664,0.6525976061820984,-1.114728331565857,0.19247356057167053,-2.105459690093994,0.43187186121940613,0.38628435134887695,-0.4852828627677623,-1.162473409760617,-2.0785794557567323
2.0474488735198975,0.6449927687644958,-1.12795889377594,0.15205305814743042,-1.9917418956756592,0.3456893265247345,1.0706448554992676,-0.500300470465082,-1.1672267466934825,-2.0968799420837394
2.0575010776519775,0.5940913558006287,-1.091434359550476,0.12218150496482849,-1.5360106229782104,0.23952458798885345,1.5918748378753662,-0.5196079391050322,-1.1705142332664888,-2.1096709676324594
2.0678670406341553,0.5244804620742798,-0.9083240628242493,0.13092613220214844,-0.8409483432769775,0.08158022165298462,2.0490899085998535,-0.541094512052422,-1.1711975022689511,-2.1142905193327035
2.0798351764678955,0.4758445620536804,-0.6554002165794373,0.14965283870697021,-0.06425628811120987,-0.0882871076464653,2.4667880535125732,-0.5636869833648347,-1.1683442084347166,-2.108774333591293
2.089529037475586,0.4378930330276489,-0.44315385818481445,0.15827012062072754,0.6015227437019348,-0.17212261259555817,2.8187081813812256,-0.5869520260468373,-1.1612494817315,-2.0932507749883604
2.097527027130127,0.3860781788825989,-0.31053847074508667,0.17521411180496216,1.0881304740905762,-0.19045306742191315,3.1197097301483154,-0.610726261140887,-1.1495206151878141,-2.069202428424105
2.1076149940490723,0.32001835107803345,-0.24359214305877686,0.18961337208747864,1.317663550376892,-0.14946383237838745,3.3553483486175537,-0.6351435205874646,-1.1335638742111969,-2.038851425035761
2.117453098297119,0.2576289772987366,-0.22204428911209106,0.1994844377040863,1.2754817008972168,-0.06416995823383331,3.5648844242095947,-0.660727621947679,-1.114375408337263,-2.0052638761533395
2.1276581287384033,0.21306264400482178,-0.23208028078079224,0.20359450578689575,1.030815839767456,0.0064850314520299435,3.7176408767700195,-0.6880924069815738,-1.0931615087237487,-1.9708583692072945
2.138056993484497,0.17527443170547485,-0.3155279755592346,0.20740476250648499,0.6376660466194153,0.07942035794258118,3.796271562576294,-0.7173847896652346,-1.0715132718427292,-1.9380206619226004
2.1476199626922607,0.1462995409965515,-0.41966599225997925,0.21829667687416077,0.30958908796310425,0.13602717220783234,3.888026237487793,-0.7486943331260816,-1.0498610264839159,-1.9073061736721308
2.1576650142669678,0.14052069187164307,-0.49273914098739624,0.1916062831878662,-0.05480065196752548,0.19727464020252228,3.888131856918335,-0.7815901436535196,-1.02808698994388,-1.8782094664618145
2.16766619682312,0.15386861562728882,-0.5040645003318787,0.14054623246192932,-0.36138322949409485,0.2658800780773163,3.936206102371216,-0.8160048763487903,-1.0065852967519462,-1.8514976544126864
2.177680015563965,0.18216782808303833,-0.37820327281951904,0.11446890234947205,-0.48616012930870056,0.24253296852111816,4.085968971252441,-0.8520837073284105,-0.9839479636251641,-1.8244360220623008
2.188603162765503,0.24078112840652466,-0.2992163896560669,0.0709637999534607,-0.7423325181007385,0.22580912709236145,4.046669006347656,-0.8891099544857054,-0.9600742218643752,-1.796193737611007
2.197777032852173,0.26659953594207764,-0.2089208960533142,0.05333194136619568,-0.9629042744636536,0.24398675560951233,4.074459075927734,-0.9271179980312327,-0.9365548973724668,-1.7694291009013474
2.2078020572662354,0.26169198751449585,0.02695012092590332,0.07202845811843872,-0.9797982573509216,0.11187532544136047,4.289097785949707,-0.9663946914890852,-0.9105010471627163,-1.7396255489316665
2.217794179916382,0.2876037061214447,0.08367985486984253,0.055513978004455566,-0.9290160536766052,-0.04434339702129364,4.438660144805908,-1.0065375928805087,-0.8800253316937042,-1.7034363605222198
2.2276031970977783,0.2699221670627594,-0.030748963356018066,0.06294983625411987,-0.9870873689651489,-0.10356543958187103,4.425650596618652,-1.0465057155146584,-0.8449883137290716,-1.661554373742601
2.2377920150756836,0.195200115442276,-0.18630897998809814,0.04816660284996033,-1.1382286548614502,-0.09898928552865982,4.30502462387085,-1.0858250977350181,-0.8062758056395716,-1.616151228687904
2.2479069232940674,0.13633188605308533,-0.33889704942703247,0.006323039531707764,-1.4878596067428589,-0.06456766277551651,4.175964832305908,-1.1251041627427802,-0.7660057664143812,-1.570164267687627
2.2578630447387695,0.12651613354682922,-0.40194791555404663,-0.014784902334213257,-1.7326643466949463,-0.0950467437505722,4.190972328186035,-1.165361524222881,-0.7230497229431664,-1.5222034730203489
2.2678160667419434,0.17129817605018616,-0.39783811569213867,-0.01145067811012268,-1.9775584936141968,-0.18258298933506012,4.23477840423584,-1.206736856539299,-0.6742838036773143,-1.4680975559955725
2.27793288230896,0.22467565536499023,-0.39705950021743774,-0.014913499355316162,-2.0200436115264893,-0.2486644834280014,4.345777988433838,-1.2486493205337272,-0.6142953373372282,-1.4020943134099775
2.2878968715667725,0.2438609004020691,-0.3551058769226074,-0.011598974466323853,-1.8959131240844727,-0.2916167378425598,4.500144004821777,-1.2892266439257576,-0.5318376764451975,-1.312906645369446
2.2978808879852295,0.24464058876037598,-0.32318103313446045,-0.015214607119560242,-1.5948327779769897,-0.3085016906261444,4.649936676025391,-1.325800302925901,-0.4129183061655166,-1.186671189899609
2.3078081607818604,0.233112171292305,-0.2989894151687622,-0.012829527258872986,-1.3022531270980835,-0.28374946117401123,4.708901405334473,-1.3547572805310508,-0.2466664391849295,-1.0128604910288108
2.31813907623291,0.2266606241464615,-0.2629076838493347,0.005622267723083496,-0.9454840421676636,-0.22975967824459076,4.848193168640137,-1.372746691749522,-0.031059048487222875,-0.7900104132272757
2.329280138015747,0.2423107922077179,-0.15031492710113525,0.036280810832977295,-0.6195501685142517,-0.2326606661081314,5.001402378082275,-1.3757250114331947,0.21795895516341957,-0.5338390897507723
2.3378751277923584,0.2937653958797455,-0.060773372650146484,0.04124875366687775,-0.7028962969779968,-0.23272910714149475,5.0061516761779785,-1.3650552544305037,0.45958209327792965,-0.2849325690674521
2.34794020652771,0.327048122882843,0.03687220811843872,0.06107904016971588,-0.8687167167663574,-0.20926639437675476,5.106328964233398,-1.3445298374458854,0.6714409263344376,-0.06580747790592083
2.358146905899048,0.344573974609375,0.10633659362792969,0.06398431956768036,-0.9889805912971497,-0.21083100140094757,5.2788214683532715,-1.3153337829608935,0.8493061907537749,0.11943756038262503
2.3680660724639893,0.3551234006881714,0.04747271537780762,0.026723384857177734,-1.0322353839874268,-0.1953180879354477,5.3183112144470215,-1.2790593848968077,0.9908896090005497,0.26861370536011564
2.3793141841888428,0.316707968711853,-0.08580183982849121,-0.006041720509529114,-1.0758897066116333,-0.0778287798166275,5.251758098602295,-1.2385566250714584,1.1002466700555447,0.38498889162276845
2.388209104537964,0.2534239888191223,-0.1565750241279602,-0.05292622745037079,-0.9387728571891785,0.05765074864029884,5.288251876831055,-1.1948205306667072,1.184533369940367,0.4748968519522206
2.3981029987335205,0.2608533203601837,-0.12368863821029663,-0.08810931444168091,-0.6579365730285645,0.1352945864200592,5.393703460693359,-1.1474730159111157,1.247468090645797,0.5420911528839281
2.408116102218628,0.3309133052825928,-0.0815809965133667,-0.10196290910243988,-0.2579587996006012,0.2175830602645874,5.5022735595703125,-1.0967247016588886,1.2920566112290621,0.5896098744234817
2.4180500507354736,0.38157665729522705,-0.05171608924865723,-0.0890813022851944,0.14808055758476257,0.3674575686454773,5.556432247161865,-1.04334780823073,1.3221713878655021,0.6206586685220732
2.4282948970794678,0.39676356315612793,0.012596309185028076,-0.07493110001087189,0.43994465470314026,0.6221721768379211,5.630845069885254,-0.9882973552143125,1.343722923165222,0.6402173318645222
2.439631223678589,0.4123048782348633,0.17062890529632568,-0.04118812084197998,0.758684515953064,0.8706560134887695,5.852608680725098,-0.9309372300455105,1.3607287789332367,0.651735963562549
2.4482309818267822,0.45768702030181885,0.30726420879364014,-0.004588603973388672,1.0188326835632324,0.9939789772033691,6.061185836791992,-0.8706645363983252,1.3742441039293063,0.656985734880899
2.4584691524505615,0.5027440190315247,0.3103647828102112,0.037873104214668274,1.1923447847366333,1.1354610919952393,6.154068946838379,-0.8084531076404671,1.385693402269984,0.6580944727446957
2.468433141708374,0.5009937286376953,0.23072552680969238,0.09757836163043976,1.3222367763519287,1.336739420890808,6.146955490112305,-0.7455524350702324,1.396649021972489,0.6561302539189906
2.4780771732330322,0.4749563932418823,0.13210874795913696,0.14496207237243652,1.4477465152740479,1.5709173679351807,6.056670188903809,-0.6829774077915938,1.4082826801251143,0.6515743272040926
2.4882771968841553,0.47208696603775024,0.07161474227905273,0.19048385322093964,1.5429843664169312,1.7598204612731934,5.968220233917236,-0.6212180346233412,1.4208966867369397,0.6448271744883489
2.498087167739868,0.5127683877944946,0.09693890810012817,0.22023789584636688,1.7827028036117554,1.8618963956832886,5.88905143737793,-0.5601116073191863,1.4337454418973952,0.6352901377154083
2.5080490112304688,0.5892650485038757,0.18215960264205933,0.20632706582546234,2.1147444248199463,1.9341442584991455,5.78873872756958,-0.49960640407682405,1.445956300854595,0.6217868317249773
2.5181150436401367,0.6655913591384888,0.29959285259246826,0.14355647563934326,2.4792075157165527,2.083137273788452,5.684535980224609,-0.4398400054152814,1.4579037573062033,0.6038584639034641
2.5281100273132324,0.7184107303619385,0.43890851736068726,0.04022926092147827,2.9088456630706787,2.0503411293029785,5.5431952476501465,-0.3810525839322427,1.4694569142034521,0.5811290948233375
2.5385138988494873,0.7338714599609375,0.5366358757019043,-0.03970974683761597,3.309796094894409,2.06107234954834,5.367164611816406,-0.3236608016200576,1.4806646327427986,0.5536670791131245
2.5481860637664795,0.7308687567710876,0.5983242988586426,-0.09415114670991898,3.5940427780151367,2.053985595703125,5.113683700561523,-0.26841247672822177,1.492098761810482,0.5221942786812505
2.5591518878936768,0.692383885383606,0.6469289064407349,-0.15556657314300537,3.697002410888672,2.0013511180877686,4.770926475524902,-0.2163423087639427,1.5043216481191708,0.4882531988175197
2.5681312084198,0.6312718987464905,0.6501578092575073,-0.1674823760986328,3.5637290477752686,1.8800075054168701,4.349334716796875,-0.16852513492051563,1.5172494141475714,0.4539335714993026
2.5781280994415283,0.5687496066093445,0.6002832055091858,-0.13027119636535645,3.2011139392852783,1.719417691230774,3.870328664779663,-0.1258021438414398,1.5305419505858486,0.4215627723659071
2.5885159969329834,0.4987702965736389,0.5140426754951477,-0.07286739349365234,2.6825311183929443,1.5531734228134155,3.3703041076660156,-0.08855102506419467,1.5438844958492657,0.39310599088599063
2.5981390476226807,0.42281681299209595,0.4299675226211548,-0.018792690709233284,2.0183050632476807,1.3887535333633423,2.834564685821533,-0.05700183186752819,1.5569426743787893,0.3700599338026941
2.6082189083099365,0.3571735620498657,0.3773873746395111,0.0038264989852905273,1.3060170412063599,1.214005947113037,2.325042247772217,-0.031080162813838685,1.5692577529153673,0.35361348563339645
2.618124008178711,0.3097580671310425,0.3732086718082428,-0.008486867882311344,0.6183618307113647,1.016982913017273,1.8664987087249756,-0.010168582738310158,1.5802296838838512,0.34394406737625705
2.62834095954895,0.2728537917137146,0.38887664675712585,-0.053458571434020996,0.039906468242406845,0.8241967558860779,1.469771385192871,0.006460914058442825,1.5894356963605822,0.3404775624787536
2.6386358737945557,0.23804473876953125,0.4257657825946808,-0.10779380798339844,-0.3982965350151062,0.6519039869308472,1.1177515983581543,0.01944069141589593,1.5967802494405094,0.3421104083342256
2.6482160091400146,0.1980862021446228,0.4591362178325653,-0.16080617904663086,-0.7208407521247864,0.5097314119338989,0.8048602938652039,0.02920869776647334,1.602455504558155,0.3474808397731519
2.658284902572632,0.1507757306098938,0.47976839542388916,-0.21282076835632324,-0.9314259886741638,0.4079553782939911,0.5368579030036926,0.036172761097406664,1.6067683939398176,0.3556019636445364
2.668344020843506,0.10719561576843262,0.4884822964668274,-0.2596398591995239,-1.032667875289917,0.3479767143726349,0.30849507451057434,0.04075491295878632,1.6101725691185016,0.36535695691098613
2.6792190074920654,0.06929880380630493,0.48796576261520386,-0.3038679361343384,-1.0002832412719727,0.30736228823661804,0.10856591910123825,0.043231295119851444,1.6130125875440153,0.37552809826961736
2.6894969940185547,0.0353548526763916,0.5038979053497314,-0.3318796157836914,-0.8832229971885681,0.289882630109787,-0.035524141043424606,0.04396638777931999,1.615594135087464,0.3849771073308051
2.6984620094299316,0.005691230297088623,0.5115821361541748,-0.3476139307022095,-0.7393239736557007,0.27205944061279297,-0.1407269388437271,0.043440872250027955,1.6180725578098127,0.3931444398854052
2.708487033843994,-0.015549004077911377,0.5003893375396729,-0.35495948791503906,-0.5987541079521179,0.2462795078754425,-0.2339216023683548,0.04189024193847266,1.6203842871274372,0.3999294609184147
2.718454122543335,-0.034293532371520996,0.47702398896217346,-0.3538017272949219,-0.4664921164512634,0.23109400272369385,-0.3181476294994354,0.03939682937037421,1.6225524341516193,0.4053839598364656
2.7284061908721924,-0.055014848709106445,0.4525812566280365,-0.33986663818359375,-0.35631394386291504,0.2113642394542694,-0.3819985091686249,0.036100415731360636,1.624621542553288,0.4096773355900844
2.7383291721343994,-0.07619839906692505,0.4331963360309601,-0.32814300060272217,-0.2774830460548401,0.17738570272922516,-0.4475945234298706,0.03212457893595645,1.62645938072263,0.41305723012515916
2.748382091522217,-0.09495735168457031,0.4087541699409485,-0.31464850902557373,-0.2175893485546112,0.14730291068553925,-0.5139815211296082,0.027455737021135126,1.628005354829057,0.41579608066826695
2.75844407081604,-0.11201506853103638,0.3822537064552307,-0.30133140087127686,-0.17022137343883514,0.11936133354902267,-0.5888314247131348,0.022056490572129824,1.6292857748439638,0.41804281471815086
2.7683651447296143,-0.12208455801010132,0.36325153708457947,-0.2946418523788452,-0.13394379615783691,0.07687326520681381,-0.6584874987602234,0.0159011070203691,1.6302510563277999,0.41993192975170257
2.7791879177093506,-0.12035983800888062,0.3553178906440735,-0.2851428985595703,-0.10140518844127655,0.00812358595430851,-0.726089358329773,0.00905029966835593,1.6306659744310812,0.42151336893689395
2.78843092918396,-0.10708487033843994,0.3511771857738495,-0.2667964696884155,-0.06593747437000275,-0.07879693061113358,-0.7980186343193054,0.0014914932585791984,1.6303066669949788,0.42280063259629685
2.7983791828155518,-0.09187930822372437,0.3400472104549408,-0.2410653829574585,-0.04569237306714058,-0.1813354343175888,-0.8841035962104797,-0.00687670590782364,1.629019300126262,0.4238402719703574
2.808490037918091,-0.07690995931625366,0.32839930057525635,-0.21798765659332275,-0.05927848815917969,-0.2986178398132324,-0.9815961122512817,-0.01616014896155795,1.6266191863303214,0.42487758796540126
2.818402051925659,-0.05986660718917847,0.3110314905643463,-0.20975220203399658,-0.10064318776130676,-0.4008128046989441,-1.07716703414917,-0.026419731638362767,1.623135147648439,0.4262168290038645
2.8285629749298096,-0.04467117786407471,0.28625524044036865,-0.22390031814575195,-0.1894412338733673,-0.5046979188919067,-1.1788556575775146,-0.03762144883250696,1.618677504850813,0.42820849078179657
2.8389430046081543,-0.031247198581695557,0.2646465599536896,-0.21939396858215332,-0.3545927405357361,-0.6315059661865234,-1.2990045547485352,-0.04988829821201586,1.6131314780753097,0.431437868112563
2.848422050476074,-0.020948171615600586,0.2396710067987442,-0.19578933715820312,-0.5484508872032166,-0.7319459915161133,-1.4193124771118164,-0.06331931361237503,1.60655433501368,0.43649564360813986
2.8585240840911865,-0.013301670551300049,0.21922150254249573,-0.17891860008239746,-0.765897810459137,-0.7982733249664307,-1.5279797315597534,-0.07786951123640012,1.5993688456912556,0.443550133408672
2.8684089183807373,-0.012956440448760986,0.20930194854736328,-0.18824827671051025,-0.9730057120323181,-0.8568410277366638,-1.6433806419372559,-0.09352293555068943,1.5918713178397916,0.4526898795910641
2.8787481784820557,-0.008792579174041748,0.2079174816608429,-0.19511878490447998,-1.151939034461975,-0.9227126240730286,-1.7653683423995972,-0.11040666420728901,1.5840809445236497,0.463687914948007
2.8885672092437744,0.0012798905372619629,0.20662914216518402,-0.18300294876098633,-1.2880059480667114,-0.9847522974014282,-1.8875685930252075,-0.12857899935775272,1.5760163569562786,0.47618884956623847
2.8985300064086914,0.01138460636138916,0.2244105488061905,-0.16242676973342896,-1.377130389213562,-1.044697880744934,-2.0229363441467285,-0.1481399799584271,1.5677075448225803,0.4897182006685467
2.908600091934204,0.024207115173339844,0.2543758749961853,-0.14897757768630981,-1.4420398473739624,-1.0987012386322021,-2.166938543319702,-0.1692211517657023,1.55920763720071,0.5038556034779101
2.918505907058716,0.04549574851989746,0.28244322538375854,-0.14350903034210205,-1.4703545570373535,-1.1717215776443481,-2.3242223262786865,-0.19192316750573554,1.5504475655284853,0.5183269441601287
2.9286739826202393,0.07638335227966309,0.3041485548019409,-0.1271703839302063,-1.5175007581710815,-1.2591779232025146,-2.500505208969116,-0.2164274976068384,1.541236417355467,0.5329694212856187
2.939375162124634,0.11314195394515991,0.3263149857521057,-0.11122947931289673,-1.578819751739502,-1.3182402849197388,-2.6899304389953613,-0.24293146469699292,1.5317295268395197,0.5479496413174919
2.9485630989074707,0.1458357572555542,0.36124590039253235,-0.08695566654205322,-1.6800332069396973,-1.3700132369995117,-2.9278852939605713,-0.27169254100773876,1.5222078434456066,0.5634782732945344
2.958648920059204,0.17610055208206177,0.37210655212402344,-0.057686276733875275,-1.855589509010315,-1.384399652481079,-3.214132308959961,-0.3033305568984184,1.513117349210087,0.5801731072015184
2.96858811378479,0.21506530046463013,0.38301703333854675,-0.04812335968017578,-2.033451795578003,-1.390019416809082,-3.498135805130005,-0.3380776207978412,1.5049969759057398,0.5984818749991492
2.9794108867645264,0.2734663486480713,0.38985100388526917,-0.05565614253282547,-2.1739580631256104,-1.4024231433868408,-3.821676254272461,-0.37607746332031067,1.4979328097612397,0.6182350355903611
2.9896130561828613,0.34377533197402954,0.3744198679924011,-0.03967446833848953,-2.2635302543640137,-1.420357346534729,-4.1512579917907715,-0.41759546313931106,1.4917731425879857,0.639003656433112
2.9988110065460205,0.40067416429519653,0.3930782973766327,-0.011504411697387695,-2.3079171180725098,-1.4015815258026123,-4.472628593444824,-0.46256684094006745,1.486670676739712,0.6603279555168705
3.0094799995422363,0.44905292987823486,0.447429895401001,0.02418404072523117,-2.1877756118774414,-1.3502696752548218,-4.713555335998535,-0.5105605084767947,1.4825726463791467,0.6813169006784099
3.018756151199341,0.5010755062103271,0.4962354302406311,0.045730769634246826,-1.9165260791778564,-1.2856740951538086,-4.918003559112549,-0.5604844410522647,1.4788793837855145,0.7001024670420989
3.0288050174713135,0.5469943881034851,0.5103297233581543,0.0641634464263916,-1.4716020822525024,-1.1527589559555054,-5.087723255157471,-0.6120229539495874,1.474750410480514,0.7148409227006205
3.0388081073760986,0.568891704082489,0.556148886680603,0.07343506067991257,-0.9167594313621521,-0.9980344772338867,-5.176863670349121,-0.6643921106971014,1.469049985886472,0.7233536950741787
3.0487680435180664,0.590045154094696,0.6096813082695007,0.04623311012983322,-0.4283607304096222,-0.8665161728858948,-5.268321514129639,-0.7170506160767998,1.4605691185507688,0.7247070071621893
3.0587332248687744,0.6203859448432922,0.6183329224586487,-0.0008701160550117493,-0.060125261545181274,-0.6937583088874817,-5.379793643951416,-0.7702979530656956,1.4492485449671766,0.7195744084476553
3.0688040256500244,0.6419776678085327,0.5804981589317322,-0.012230344116687775,0.26462435722351074,-0.5690200924873352,-5.481557846069336,-0.824081894683719,1.4346782830185574,0.7080138126977042
3.0787999629974365,0.6646360754966736,0.5093290209770203,-0.0014045238494873047,0.49881449341773987,-0.4639936685562134,-5.594336986541748,-0.8783843329830681,1.4159651738562684,0.6900198645144155
3.089258909225464,0.6938763856887817,0.4378432035446167,0.026284463703632355,0.6485264897346497,-0.37442728877067566,-5.739053249359131,-0.9333392360260016,1.392419133867113,0.6654286287957322
3.0987942218780518,0.7066112756729126,0.3819228410720825,0.05875718593597412,0.6096101403236389,-0.29269111156463623,-5.917007923126221,-0.989402514979911,1.3640934433650986,0.6350135426218175
3.108720064163208,0.7199318408966064,0.3264390826225281,0.07483260333538055,0.4717225730419159,-0.20666062831878662,-6.134829998016357,-1.046973390996816,1.331230558981854,0.5993341474325241
3.1188220977783203,0.7402307987213135,0.28833281993865967,0.07140839844942093,0.2961905300617218,-0.08026748895645142,-6.359480857849121,-1.1065566097459625,1.2933610858209053,0.557989633045929
3.128871202468872,0.7716128826141357,0.3146151900291443,0.06744557619094849,0.3448778986930847,-0.007230026181787252,-6.497544765472412,-1.1671571498957352,1.2453874296870404,0.5055481206504159
3.139151096343994,0.833980917930603,0.36794495582580566,0.06339341402053833,0.4433281421661377,0.016123898327350616,-6.685602188110352,-1.227471236703994,1.1764147319878158,0.43148727016708627
3.1488280296325684,0.892168402671814,0.39925074577331543,0.06456364691257477,0.5881865620613098,0.10995318740606308,-6.823553085327148,-1.2865195097202848,1.0730143098404723,0.3221821879370122
3.158966064453125,0.9110623598098755,0.46026796102523804,0.102330282330513,0.8454170227050781,0.11324600875377655,-6.906425476074219,-1.3401724309237477,0.9078759678246399,0.15030293758519161
3.1689488887786865,0.9326890707015991,0.4212570786476135,0.11521011590957642,1.0152531862258911,0.15943613648414612,-6.977612018585205,-1.3827340559470758,0.6441034445350404,-0.12056234700147271
3.178868055343628,0.9346381425857544,0.3107191324234009,0.13677269220352173,1.3883321285247803,0.16685806214809418,-6.931886196136475,-1.4029221359189414,0.26619132465153156,-0.5060745254773693
3.1903011798858643,0.9160597920417786,0.15349048376083374,0.1268911361694336,1.6413204669952393,0.17559295892715454,-6.908718585968018,-1.3920504284581765,-0.13566257443504448,-0.9155588839739958
3.1990790367126465,0.8774236440658569,-0.025850892066955566,0.11285480856895447,1.7631325721740723,0.2092275470495224,-6.874572277069092,-1.3554409473464384,-0.4419512535227916,-1.2297031692280775
3.2090671062469482,0.832709789276123,-0.12604516744613647,0.11683079600334167,1.8270184993743896,0.23086892068386078,-6.776305198669434,-1.3045289553171056,-0.6410885728348891,-1.43693707159234
3.218999147415161,0.8252742886543274,-0.19518423080444336,0.1251564621925354,1.8952890634536743,0.20301538705825806,-6.548996925354004,-1.2470578257435954,-0.7672145131816532,-1.570994681721279
3.22908091545105,0.8549612760543823,-0.3015303611755371,0.1554248332977295,2.0495541095733643,0.0833318755030632,-6.317274570465088,-1.186749268484819,-0.8470578101547062,-1.6576409296569534
3.2390811443328857,0.8842921257019043,-0.47196799516677856,0.17576244473457336,1.8789162635803223,0.04063541069626808,-6.168792724609375,-1.1261293571272024,-0.9035676532210208,-1.7199362484266254
3.2489330768585205,0.8570915460586548,-0.5424311757087708,0.20518672466278076,1.850545883178711,-0.01610856130719185,-5.851929664611816,-1.0667221650965588,-0.9449532112110153,-1.7666359059572703
3.2588889598846436,0.8244835138320923,-0.6055252552032471,0.21676844358444214,1.7074357271194458,-0.11439105868339539,-5.473197937011719,-1.0100494711076684,-0.9759840807432936,-1.8018736170643364
3.2689900398254395,0.8092823028564453,-0.7685812711715698,0.23595517873764038,1.463096022605896,-0.15615873038768768,-5.155118465423584,-0.9568462759037166,-1.0012814157501941,-1.830554666686916
3.2789762020111084,0.7595391869544983,-0.8694137930870056,0.2505609095096588,1.289139986038208,-0.11969949305057526,-4.823750972747803,-0.9072197882944169,-1.0227448202163332,-1.8555315857707644
3.289229154586792,0.703548014163971,-0.8834230899810791,0.23597055673599243,0.9429198503494263,-0.014625802636146545,-4.418173313140869,-0.8616630218608767,-1.040750404935675,-1.877927965460157
3.29902720451355,0.6735192537307739,-0.7856261134147644,0.21664178371429443,0.8081005811691284,0.04638082906603813,-3.8019235134124756,-0.8215986525507957,-1.055143807558739,-1.8975557437272654
3.309063196182251,0.6848067045211792,-0.6769564747810364,0.2267865538597107,0.5984869003295898,0.08026529103517532,-3.1936986446380615,-0.7875597735051262,-1.0657442513571174,-1.9130789758285944
3.319071054458618,0.6928983330726624,-0.7010199427604675,0.21481645107269287,0.2696235477924347,0.1645330786705017,-2.595003366470337,-0.7600606301702181,-1.0744761592851504,-1.9273670987629659
3.329102039337158,0.6438001394271851,-0.6548858880996704,0.2127566635608673,-0.014622822403907776,0.17737962305545807,-1.94704270362854,-0.7394104758630715,-1.0816520484312495,-1.940459369136668
3.3392179012298584,0.6147110462188721,-0.7086156010627747,0.19562852382659912,-0.35905689001083374,0.19406326115131378,-1.361047387123108,-0.7256848092885603,-1.0882302978353817,-1.95303253966292
3.349256992340088,0.5815845131874084,-0.7957119941711426,0.2013522982597351,-0.5522540807723999,0.23124977946281433,-0.8286105990409851,-0.7182019949066454,-1.094289326700852,-1.965402672133599
3.360159158706665,0.5246763825416565,-0.79812091588974,0.20526671409606934,-0.6001410484313965,0.2619760036468506,-0.3096943497657776,-0.7158308955463346,-1.0986606472745515,-1.975799598428963
3.3691341876983643,0.48378992080688477,-0.7472510933876038,0.19230669736862183,-0.45422646403312683,0.2582875192165375,0.16019965708255768,-0.7175955941163615,-1.1004063728375586,-1.9824438000327125
3.379171133041382,0.4533475637435913,-0.6286062002182007,0.1877841353416443,-0.2203982174396515,0.23285141587257385,0.6116030812263489,-0.7226191551001112,-1.0990820415007554,-1.9842596329242865
3.389357089996338,0.42423856258392334,-0.500249981880188,0.18133315443992615,0.01722445711493492,0.14030364155769348,1.0255885124206543,-0.7303974373415935,-1.094636466410276,-1.9803769311665584
3.3991858959198,0.3963596820831299,-0.4350854754447937,0.16830918192863464,0.19303783774375916,0.07469484210014343,1.3235713243484497,-0.7403848015327114,-1.0877462944656102,-1.9716404584123155
3.4093759059906006,0.3450063467025757,-0.41173309087753296,0.16783037781715393,0.2998979985713959,0.07930237799882889,1.5534671545028687,-0.7519506846196883,-1.0787455689421672,-1.9594903028446462
3.419157028198242,0.2831243872642517,-0.3398846983909607,0.16781115531921387,0.437101811170578,0.06472042202949524,1.7870594263076782,-0.7649063718941868,-1.0673690750911908,-1.9440667778127017
3.429347038269043,0.24149775505065918,-0.23343420028686523,0.1651776134967804,0.6139530539512634,0.03672793135046959,1.986952543258667,-0.7788462518854096,-1.0534174562204002,-1.9247653721271505
3.441014051437378,0.2129652500152588,-0.1631561517715454,0.15898668766021729,0.7568333148956299,0.04954759404063225,2.1465253829956055,-0.7932982388022847,-1.0366248055647473,-1.901620748280577
3.449665069580078,0.17940515279769897,-0.1373758316040039,0.14531147480010986,0.7963884472846985,0.08878421038389206,2.294174909591675,-0.808257115325362,-1.0171314969243257,-1.875422124857611
3.4593870639801025,0.14919602870941162,-0.17703765630722046,0.13204902410507202,0.7061398029327393,0.1313943862915039,2.4094159603118896,-0.8241461049504678,-0.995813882249036,-1.8476697126592492
3.4692330360412598,0.13008153438568115,-0.29023534059524536,0.13405412435531616,0.5536370873451233,0.19599388539791107,2.42672061920166,-0.8408216756825512,-0.9736226564222513,-1.8198367947746552
3.479430913925171,0.10992467403411865,-0.40205180644989014,0.1420944333076477,0.41665634512901306,0.29719123244285583,2.5088655948638916,-0.8582918937367137,-0.9506797185044968,-1.7926021498684936
3.4895498752593994,0.10334277153015137,-0.38983678817749023,0.13193410634994507,0.4636118710041046,0.324455589056015,2.646284580230713,-0.8766110605666716,-0.9253836471936305,-1.7635931208677413
3.4992902278900146,0.12912499904632568,-0.35466665029525757,0.11713224649429321,0.3714086413383484,0.40734797716140747,2.6871135234832764,-0.8950889509298439,-0.8976953533055769,-1.732455150689003
3.50934100151062,0.1347842514514923,-0.27207672595977783,0.09671372175216675,0.3122614324092865,0.48351600766181946,2.8722376823425293,-0.914335476082257,-0.8673595922639649,-1.699654018933389
3.519301176071167,0.14173385500907898,-0.11796218156814575,0.08018982410430908,0.1856255978345871,0.45353227853775024,3.1093852519989014,-0.935194285550285,-0.833913363419755,-1.6636667868664963
3.529371976852417,0.15966221690177917,-0.13191044330596924,0.0786704421043396,0.029254106804728508,0.44238588213920593,3.2758495807647705,-0.9577511576905288,-0.7978854307064567,-1.6247349112126777
3.539592981338501,0.129644513130188,-0.2540072798728943,0.08941155672073364,-0.19314107298851013,0.4890666604042053,3.383268356323242,-0.9817593406113045,-0.7594429681849909,-1.5837606150007233
3.5493550300598145,0.07669207453727722,-0.38615185022354126,0.08810025453567505,-0.3873952329158783,0.5214126706123352,3.4741029739379883,-1.0070765751893367,-0.7183558920188904,-1.5408210297291227
3.559486150741577,0.04806157946586609,-0.5116046667098999,0.10046106576919556,-0.4630902409553528,0.5330004692077637,3.5127530097961426,-1.0328988774461143,-0.673822484595523,-1.4947468662897625
3.569439172744751,0.04798486828804016,-0.6159531474113464,0.09766548871994019,-0.6258618235588074,0.5918004512786865,3.442624807357788,-1.058205689017298,-0.6259969429538764,-1.445925316426988
3.5794379711151123,0.06571012735366821,-0.5559102296829224,0.05507856607437134,-0.6732816696166992,0.632110059261322,3.5492937564849854,-1.0834147030445682,-0.5740031254415636,-1.3937666096602972
3.589449167251587,0.11460494995117188,-0.3250389099121094,0.022718429565429688,-0.6244062781333923,0.5608430504798889,3.6828675270080566,-1.1077142292712063,-0.5141201050559862,-1.3331716180782869
3.5993540287017822,0.1858799308538437,-0.17514747381210327,-0.013032257556915283,-0.6703990697860718,0.5161190032958984,3.7749884128570557,-1.1307122537721406,-0.4467755533778548,-1.2643032734231878
3.6103010177612305,0.2046947330236435,0.018045008182525635,-0.039725929498672485,-0.6526485681533813,0.43259724974632263,3.9690308570861816,-1.1521905087868562,-0.3700245961960301,-1.1851888664665582
3.6192739009857178,0.20145568251609802,0.13483548164367676,-0.042088836431503296,-0.6624383926391602,0.3178168535232544,4.134369850158691,-1.1714143740099834,-0.28233082409463195,-1.093699618093421
3.6294028759002686,0.17237672209739685,0.028098464012145996,-0.03009018301963806,-0.726260781288147,0.2763269543647766,4.212472438812256,-1.1878683607243186,-0.18452787699909529,-0.9910757830222583
3.6394760608673096,0.09808988869190216,-0.15593081712722778,-0.010587960481643677,-0.8023403286933899,0.3158876597881317,4.198217868804932,-1.2010102738450255,-0.07833057448877515,-0.8800486270425336
3.6493279933929443,0.02193015068769455,-0.3520396947860718,0.010164737701416016,-0.9430378079414368,0.3905225098133087,4.047760486602783,-1.2105509365823706,0.03293784939093179,-0.7647021283840835
3.659349203109741,-0.01775868982076645,-0.4719138741493225,0.013588666915893555,-1.160393238067627,0.4836435914039612,3.9358386993408203,-1.2175891900809968,0.1465275932972486,-0.6481856952422311
3.6695380210876465,-0.0029710382223129272,-0.42092978954315186,0.017773091793060303,-1.3364571332931519,0.5311890244483948,3.9041106700897217,-1.2217909882214524,0.2634320346306082,-0.529134682319876
3.67948317527771,0.07242201268672943,-0.2805045247077942,0.03319191932678223,-1.4770985841751099,0.5580525994300842,3.9953300952911377,-1.2226884484363356,0.384270788375305,-0.40640260244855436
3.6896610260009766,0.15291273593902588,-0.07055836915969849,0.04494693875312805,-1.470536231994629,0.5400562882423401,4.219727516174316,-1.2183294657153818,0.5088463091355202,-0.2796904707076478
3.699510097503662,0.21904006600379944,0.07718640565872192,0.04683256149291992,-1.3473225831985474,0.5040342211723328,4.429617881774902,-1.2068139545249088,0.6320076478045764,-0.15376627108826957
3.709625005722046,0.23827138543128967,0.05645173788070679,0.048307716846466064,-1.163415551185608,0.5352461934089661,4.546802043914795,-1.1878620206291728,0.7462817181586731,-0.03658242514643811
3.7197511196136475,0.19460272789001465,-0.05065762996673584,0.03851318359375,-1.056042194366455,0.6471909284591675,4.57321834564209,-1.1629247437352472,0.8477161963321537,0.06693587759583274
3.7296979427337646,0.13040420413017273,-0.14521396160125732,0.024355769157409668,-0.8161610960960388,0.7880119681358337,4.584012031555176,-1.1331643460260943,0.9354233648832344,0.15518382822164603
3.739621877670288,0.10757073760032654,-0.2025410532951355,0.01824834942817688,-0.6225112080574036,0.9287561178207397,4.477665901184082,-1.0996155944031412,1.0083943542621592,0.22681973610853398
3.7496280670166016,0.13549470901489258,-0.1730007529258728,-0.012551307678222656,-0.44486987590789795,1.0629488229751587,4.4779839515686035,-1.0638550268980655,1.06982773241809,0.2850501073530511
3.759608030319214,0.2039087414741516,0.039757370948791504,-0.02375255525112152,-0.2057870477437973,1.0942087173461914,4.620826244354248,-1.0247915627689832,1.1214194415484853,0.33212876336891095
3.76963210105896,0.30615806579589844,0.18156510591506958,-0.029983162879943848,-0.1237931177020073,1.0850045680999756,4.680686950683594,-0.9830330140210322,1.165003527234956,0.37086501591040916
3.7795979976654053,0.36307430267333984,0.18667393922805786,0.004148960113525391,-0.010763085447251797,1.1260961294174194,4.695168495178223,-0.9398191282121577,1.202372565053594,0.4029537945196457
3.7897260189056396,0.35291075706481934,0.1515570878982544,0.05583027005195618,0.10793905705213547,1.1724979877471924,4.6846022605896,-0.8955558024858066,1.2344860849506845,0.428874175388858
3.799574136734009,0.3330296277999878,0.11008459329605103,0.05992424488067627,0.20053954422473907,1.2137678861618042,4.637381076812744,-0.8507767201899306,1.2623200420528993,0.44957634771462174
3.809763193130493,0.32250386476516724,0.08745968341827393,0.06751784682273865,0.2676043212413788,1.26730215549469,4.561694145202637,-0.8060327611522783,1.286959114231015,0.46615696794278444
3.81974720954895,0.32565462589263916,0.06122446060180664,0.08031606674194336,0.3093719482421875,1.3072165250778198,4.518130779266357,-0.7615259929835142,1.3092630666658318,0.4794998830850886
3.8306620121002197,0.3358767628669739,0.04447883367538452,0.08658748865127563,0.3621864318847656,1.3527687788009644,4.532098770141602,-0.7168098083338631,1.3298751404341658,0.49031993590210154
3.839851140975952,0.3533945083618164,0.06493538618087769,0.07730741798877716,0.43795305490493774,1.419290542602539,4.563469409942627,-0.6716061059480312,1.3492267804470581,0.49888059718156935
3.849687099456787,0.3758494257926941,0.10882711410522461,0.05908167362213135,0.5396685004234314,1.4752986431121826,4.573032379150391,-0.6258464386721582,1.3674391909321695,0.5049809379857674
3.859884023666382,0.39639127254486084,0.15445661544799805,0.033464863896369934,0.7001634240150452,1.529554843902588,4.610542297363281,-0.5795664827569442,1.3843927488262027,0.5084014429431659
3.871622085571289,0.41991275548934937,0.20220869779586792,0.012419000267982483,0.8594608902931213,1.571109414100647,4.6318678855896,-0.5326090312352778,1.4002904049012372,0.5090351177138859
3.8798229694366455,0.4363154172897339,0.24474459886550903,-0.016207218170166016,1.0192492008209229,1.6483827829360962,4.6203083992004395,-0.48536203328233546,1.4154138838782442,0.5070308379032048
3.889765977859497,0.444768488407135,0.25926530361175537,-0.038414642214775085,1.1858198642730713,1.7738605737686157,4.597003936767578,-0.43808530189901157,1.4306945509195208,0.5025382535572863
3.8997020721435547,0.4503421187400818,0.28156572580337524,-0.07354617118835449,1.4366233348846436,1.7671116590499878,4.544915676116943,-0.3909946837739819,1.4452799763166135,0.4949034172211742
3.9098331928253174,0.4607650637626648,0.3135985732078552,-0.08859967440366745,1.6802330017089844,1.7165731191635132,4.456026077270508,-0.34436683181694133,1.458863540495682,0.48401601776415987
3.9199740886688232,0.4920805096626282,0.3486923277378082,-0.09390467405319214,1.8638190031051636,1.6576374769210815,4.315317630767822,-0.29880053316146465,1.4714046090926551,0.4702626874998868
3.930422067642212,0.5042959451675415,0.3680582344532013,-0.09820849448442459,1.9573122262954712,1.5916690826416016,4.142078876495361,-0.2548231292163504,1.4833648862180289,0.4544950619562561
3.939945936203003,0.49669861793518066,0.3742029666900635,-0.09668887406587601,1.9519387483596802,1.5192066431045532,3.9320199489593506,-0.21292791843576264,1.4950650486194816,0.43779720051401005
3.949815034866333,0.47487109899520874,0.3743168115615845,-0.08404046297073364,1.8929779529571533,1.4414191246032715,3.6972014904022217,-0.1734572294757109,1.5066599380378476,0.4209067275145742
3.959834098815918,0.4456444978713989,0.37396982312202454,-0.071250319480896,1.7781709432601929,1.3289204835891724,3.4391543865203857,-0.13669411747709592,1.5180099178427318,0.4044349233453531
3.9699389934539795,0.4122529625892639,0.37812766432762146,-0.05957353115081787,1.6393036842346191,1.2059248685836792,3.1716465950012207,-0.10281204969499107,1.528848163055547,0.38878689213485146
3.979858160018921,0.3744713068008423,0.3722948431968689,-0.04165750741958618,1.4831931591033936,1.0799463987350464,2.888975143432617,-0.07190468526741052,1.5390172601198813,0.3742258880557346
3.9897820949554443,0.32958662509918213,0.3635433316230774,-0.026957450434565544,1.3186962604522705,0.9842702150344849,2.5996346473693848,-0.04406371076599398,1.54856643853341,0.3609164345754217
3.9998409748077393,0.2787156105041504,0.35085487365722656,-0.020746946334838867,1.116762638092041,0.9009084701538086,2.3004915714263916,-0.019324560489949304,1.5576352914124723,0.3491358996957805
4.009895086288452,0.23425114154815674,0.33640357851982117,-0.023187100887298584,0.87129145860672,0.8197299838066101,2.011282205581665,0.002342901373538759,1.5661664745611783,0.3393296776739677
4.019918203353882,0.2008194923400879,0.3132684528827667,-0.02953493595123291,0.5680513978004456,0.7403720617294312,1.732120156288147,0.021079433704168836,1.574056185994005,0.33213860492677894
4.02993106842041,0.17542147636413574,0.2868983745574951,-0.03616440296173096,0.26916539669036865,0.6588479280471802,1.4549541473388672,0.037013617505463954,1.5811958586003922,0.32783406551245986
4.03987193107605,0.15380346775054932,0.2658049166202545,-0.0550236701965332,-0.03753877431154251,0.5705908536911011,1.1907628774642944,0.05021933732229689,1.587419964341259,0.3264891409398173
4.050006151199341,0.12977182865142822,0.26147621870040894,-0.08396041393280029,-0.3140755593776703,0.5044741630554199,0.9707016944885254,0.06104414785259083,1.5926805746940675,0.3280886706685258
4.060551881790161,0.10541123151779175,0.26861873269081116,-0.10930430889129639,-0.5394983887672424,0.4710038900375366,0.7897270917892456,0.06994527274686681,1.597313234296755,0.3321450453247507
4.0716941356658936,0.08397883176803589,0.2783665955066681,-0.14151859283447266,-0.7658796310424805,0.40004128217697144,0.6330908536911011,0.07724097610907664,1.6012193748637769,0.3385235014506862
4.080021142959595,0.06854128837585449,0.30051788687705994,-0.1556764841079712,-0.9445034265518188,0.3342640995979309,0.4978817403316498,0.08316067922552363,1.604203611009766,0.3469599017740735
4.0906689167022705,0.05942690372467041,0.3051965832710266,-0.15813231468200684,-1.0776699781417847,0.29385435581207275,0.3823772370815277,0.08790250452712013,1.6064847406822025,0.3570021520337658
4.100015878677368,0.04027646780014038,0.3168075978755951,-0.16325318813323975,-1.1504992246627808,0.24814097583293915,0.28249019384384155,0.091624455486054,1.6082079730086711,0.3681104285568191
4.109844923019409,0.018517673015594482,0.3324326276779175,-0.1631608009338379,-1.1717296838760376,0.2064281404018402,0.19383516907691956,0.0944289634320776,1.609397967011716,0.37972797806609926
4.1211631298065186,-0.0030501484870910645,0.3393101096153259,-0.15924692153930664,-1.1445629596710205,0.1748928278684616,0.11798717081546783,0.09643275956036648,1.6101954217364662,0.391331142207242
4.130111932754517,-0.023605406284332275,0.3495188057422638,-0.16110730171203613,-1.0830652713775635,0.15864434838294983,0.0603899285197258,0.09775178569333572,1.6107824171201541,0.40250739945567604
4.140060186386108,-0.04397016763687134,0.35949957370758057,-0.16520869731903076,-0.999900758266449,0.14029550552368164,0.017216995358467102,0.09855060113129785,1.6112579993803195,0.41297282116272555
4.150315046310425,-0.05763602256774902,0.36112573742866516,-0.16505014896392822,-0.8935766816139221,0.12056628614664078,-0.015740688890218735,0.09892736395258156,1.6116218687681092,0.4225061205597857
4.161144018173218,-0.07019215822219849,0.3494061827659607,-0.16196119785308838,-0.7746407389640808,0.1161879152059555,-0.0457727313041687,0.09895722276012496,1.6119681683096359,0.4309059311886586
4.1717541217803955,-0.0828351378440857,0.3332195281982422,-0.1643000841140747,-0.6633607745170593,0.12370149046182632,-0.07060164213180542,0.09866882766881864,1.6124471197843322,0.43816188091105523
4.180153131484985,-0.09319394826889038,0.32032179832458496,-0.1690157651901245,-0.5594213604927063,0.12746307253837585,-0.09420939534902573,0.09809743530020155,1.613105271720503,0.4443380404232554
4.190232038497925,-0.09620261192321777,0.30288445949554443,-0.1715233325958252,-0.4679633677005768,0.13065460324287415,-0.11751765012741089,0.09725766117257115,1.6138896219555177,0.4495365645016803
4.200077056884766,-0.09560894966125488,0.28333109617233276,-0.17137277126312256,-0.39017146825790405,0.14556875824928284,-0.13272972404956818,0.09617762000765175,1.614853790981283,0.4538939570176191
4.2101850509643555,-0.0923309326171875,0.27447837591171265,-0.16700315475463867,-0.3204648494720459,0.15340404212474823,-0.1417120397090912,0.09496405162410704,1.6160244803156572,0.45751824909794847
4.222053050994873,-0.08207231760025024,0.2628139555454254,-0.15742409229278564,-0.25733429193496704,0.14528809487819672,-0.15691132843494415,0.09360851933949149,1.617249500705553,0.46049345690115245
4.230391025543213,-0.06932657957077026,0.23992618918418884,-0.13873183727264404,-0.19900335371494293,0.13214299082756042,-0.17122875154018402,0.09207647189046864,1.6184238582791237,0.4628511120084745
4.240487098693848,-0.06102091073989868,0.21892517805099487,-0.1197352409362793,-0.14985129237174988,0.11714248359203339,-0.18373554944992065,0.09038605865593545,1.6195062307415884,0.4646894273024556
4.250325918197632,-0.054683029651641846,0.19501417875289917,-0.10498785227537155,-0.10432454198598862,0.10852715373039246,-0.19987910985946655,0.08853185874821845,1.6205028802881514,0.46605427315835035
4.260184049606323,-0.05452316999435425,0.16852352023124695,-0.09051132947206497,-0.05636987090110779,0.1149764433503151,-0.22127386927604675,0.08644726677230306,1.6215406469442193,0.46697729987800357
4.271690130233765,-0.05715930461883545,0.1539597511291504,-0.08645999431610107,-0.0038842903450131416,0.13115887343883514,-0.2375473827123642,0.08415852190999736,1.6227342494627548,0.4673942505343529
4.280232191085815,-0.05484646558761597,0.14645297825336456,-0.08813560009002686,0.03974975645542145,0.14901798963546753,-0.2497396469116211,0.08170924451818223,1.6241465832599824,0.46733372377199595
4.290241956710815,-0.04641449451446533,0.14130350947380066,-0.0890035629272461,0.08654948323965073,0.1390327364206314,-0.263791561126709,0.07909955985617059,1.6256511763428818,0.4668464351434026
4.300181150436401,-0.03038012981414795,0.1343483179807663,-0.08673941344022751,0.1172981932759285,0.11487071961164474,-0.27746838331222534,0.07633219853661105,1.6269976242344246,0.4659668242599551
4.310267210006714,-0.016050279140472412,0.11684626340866089,-0.07965123653411865,0.14238809049129486,0.10606471449136734,-0.29148539900779724,0.07342464113575525,1.6281725186613836,0.46482397251418917
4.321758985519409,-0.014294624328613281,0.10011902451515198,-0.07435405254364014,0.16099871695041656,0.11441349238157272,-0.30716148018836975,0.07034606826878356,1.6293677911800915,0.4634778201388255
4.330320119857788,-0.01853179931640625,0.08298280835151672,-0.0703587532043457,0.17517419159412384,0.11739623546600342,-0.32102879881858826,0.06710295417136893,1.6306287748510486,0.46197691764619075
4.340948104858398,-0.020351886749267578,0.06685461848974228,-0.06607306748628616,0.1845378875732422,0.1176174059510231,-0.325991690158844,0.06375445871070225,1.6319044342726614,0.4603821795649802
4.350311994552612,-0.01889777183532715,0.049165286123752594,-0.05806267261505127,0.1859448254108429,0.1139446422457695,-0.331670343875885,0.060356072349245074,1.6331631442396062,0.4587207577176889
4.360361099243164,-0.014166593551635742,0.03341781347990036,-0.05186616629362106,0.17919425666332245,0.12334853410720825,-0.33491942286491394,0.056901255385627875,1.6344508157476114,0.4571059181425301
4.371722936630249,-0.011815905570983887,0.026435203850269318,-0.049344658851623535,0.1676795482635498,0.12340285629034042,-0.3366241157054901,0.053422867362687955,1.6357821701076707,0.45559044374232366
4.380475997924805,-0.003811359405517578,0.023290786892175674,-0.04460704326629639,0.14860041439533234,0.10766162723302841,-0.3353726863861084,0.049953379589936606,1.6370185331031217,0.4542163793796278
4.390514135360718,0.009286165237426758,0.01578192412853241,-0.033986449241638184,0.11800310015678406,0.07048922777175903,-0.3317830264568329,0.04652988905128491,1.6379715978814633,0.4531004375292155
4.400430917739868,0.02208048105239868,0.0014364086091518402,-0.022129885852336884,0.0771469995379448,0.03384115546941757,-0.33060359954833984,0.04315205253400853,1.638512012198711,0.4523406505871791
4.410891056060791,0.02374166250228882,-0.016069024801254272,-0.008222229778766632,0.029594656080007553,0.009845541790127754,-0.3318299949169159,0.039803883037425665,1.6387251941119538,0.45204199409661455
4.422220945358276,0.013041913509368896,-0.029788564890623093,0.004262082278728485,-0.017357472330331802,-0.0018762731924653053,-0.3334452509880066,0.03647315604136299,1.638744613694309,0.4522009422662014
4.4304358959198,-0.0006996989250183105,-0.04782892018556595,0.009820692241191864,-0.059972576797008514,0.007278875447809696,-0.3385947644710541,0.03314025198548017,1.638747587261448,0.4528232963968667
4.44038987159729,-0.01477205753326416,-0.05684995651245117,0.01031135767698288,-0.09394991397857666,0.02697179652750492,-0.340823233127594,0.029793829654140475,1.6388909839218462,0.45384225177285226
4.4506590366363525,-0.023177504539489746,-0.05813495069742203,0.009076476097106934,-0.10979918390512466,0.03609205782413483,-0.33835288882255554,0.026462841394870148,1.6391741833444298,0.4551042229035946
4.4604408740997314,-0.019909918308258057,-0.0562974289059639,0.008095748722553253,-0.11118324846029282,0.03384634852409363,-0.3296562135219574,0.023202923591115688,1.6394941901125473,0.4564454447766179
4.471904039382935,-0.010313451290130615,-0.05333234369754791,0.0075331926345825195,-0.10102169215679169,0.035826675593853,-0.3220398426055908,0.020017968627314635,1.6398086345398417,0.457732735824591
4.480457067489624,-0.0037401914596557617,-0.050314053893089294,0.006892688572406769,-0.08265387266874313,0.0348716638982296,-0.30752986669540405,0.01693221623848544,1.6401409319249167,0.45886819498487075
4.4905149936676025,-0.000867009162902832,-0.04834243655204773,0.004937998950481415,-0.055749550461769104,0.023766018450260162,-0.2861742377281189,0.014020669182918812,1.6404147268014135,0.4597678942573314
4.500622034072876,0.0030822157859802246,-0.058216825127601624,0.0085679292678833,-0.025081321597099304,0.030550597235560417,-0.275942325592041,0.011241397729758601,1.6406586804665206,0.46036754290778803
4.511149168014526,0.0035587549209594727,-0.06804899871349335,0.0077245235443115234,0.006315217353403568,0.05620109662413597,-0.26240280270576477,0.008550201677219288,1.6410892381070439,0.46063860604389495
4.522615194320679,-3.1828880310058594e-05,-0.06355460733175278,-0.0011383146047592163,0.027308564633131027,0.06504683196544647,-0.23739616572856903,0.006025485663112137,1.6417126644027593,0.4606451156811159
4.5306642055511475,0.006513237953186035,-0.05645804479718208,6.080418825149536e-05,0.038918085396289825,0.04883510619401932,-0.21218241751194,0.003753123526109779,1.6422841839509976,0.4604730519487011
4.540657043457031,0.017463326454162598,-0.06331481039524078,0.00825798511505127,0.037853799760341644,0.038815099745988846,-0.19505511224269867,0.0016876087692638355,1.6427089066476857,0.46022675503732147
4.550522089004517,0.02083146572113037,-0.0691230371594429,0.014646537601947784,0.03667508810758591,0.03881536424160004,-0.1691577285528183,-0.00015333478289156533,1.643096213241852,0.4599924389993906
4.5607030391693115,0.016282975673675537,-0.07345542311668396,0.01986752450466156,0.029821889474987984,0.03980761393904686,-0.15613055229187012,-0.0018001731947781758,1.6434763157748067,0.45977873462949803
4.572532892227173,0.012855052947998047,-0.08554592728614807,0.022955767810344696,0.02565404400229454,0.05044614151120186,-0.14494341611862183,-0.0033316020381714915,1.643914252825959,0.4596114684574416
4.580812215805054,0.008810818195343018,-0.08346233516931534,0.022692561149597168,0.032099079340696335,0.05532287806272507,-0.12525327503681183,-0.004711764042711499,1.644454032523442,0.4594385157749402
4.590590000152588,0.01099163293838501,-0.07298751175403595,0.018255114555358887,0.04108165204524994,0.050739843398332596,-0.11019443720579147,-0.005909932120387323,1.6449717836646314,0.45915868011360766
4.6006200313568115,0.015933752059936523,-0.06711293011903763,0.01621829718351364,0.051844071596860886,0.052588120102882385,-0.10104285180568695,-0.006001539596016952,1.6447344551457335,0.45877028117218743
4.610818147659302,0.019663095474243164,-0.059543177485466,0.013979077339172363,0.06648027151823044,0.05266349017620087,-0.09470213204622269,-0.006061181086603733,1.6446082367667973,0.45825684005874495
