timestamp,accel_x,accel_y,accel_z,rotation_x,rotation_y,rotation_z, pitch,roll,yaw
0.03928804397583008,0.026479508727788925,-0.013864566572010517,0.00028246641159057617,0.010551907122135162,0.021689550951123238,-0.005270451307296753,-0.0008030506922081316,-0.04637878510798851,-1.862559847623436e-05
0.04790687561035156,0.03003932535648346,-0.015470607206225395,-0.0019515752792358398,0.005223686806857586,0.016143428161740303,0.0014064130373299122,-0.0007153652289505585,-0.04618473213034931,-3.7816912462514385e-05
0.06008100509643555,0.02944326028227806,-0.018134884536266327,-0.004203438758850098,0.0008811366278678179,0.010059170424938202,0.0066469814628362656,-0.0006788383330721471,-0.04604628521107485,3.5197504760068572e-06
0.06769895553588867,0.029699351638555527,-0.01996324025094509,-0.003009617328643799,-7.741828449070454e-05,0.0048265475779771805,0.01111342292279005,-0.0006608807340987404,-0.04596659919683275,9.97808363526493e-05
0.07517480850219727,0.03032558038830757,-0.023596934974193573,0.0012489557266235352,-0.005956878885626793,-0.0009903288446366787,0.016520438715815544,-0.0006935006736935754,-0.045936666825702036,0.0002343049630613843
0.08188581466674805,0.03111143782734871,-0.02441805973649025,0.0026509761810302734,-0.010114106349647045,-0.009199167601764202,0.018224062398076057,-0.0007669449450789098,-0.0459748883513332,0.0004118187494327234
0.09203886985778809,0.030188903212547302,-0.022817956283688545,0.004980862140655518,-0.015634041279554367,-0.01150413416326046,0.020305322483181953,-0.0009063424244018576,-0.04607480583436703,0.0006007929555620748
0.10192084312438965,0.028345704078674316,-0.023036785423755646,0.008743822574615479,-0.01355141494423151,-0.013987354934215546,0.02390218898653984,-0.0010641372493890868,-0.04620013051198843,0.0008079082552228217
0.1119379997253418,0.023835226893424988,-0.022979198023676872,0.008860528469085693,-0.009156666696071625,-0.010167049244046211,0.025006335228681564,-0.0011896556462640373,-0.04631318943578839,0.001049886756926932
0.12197089195251465,0.021713975816965103,-0.019138971343636513,0.006704747676849365,-0.0006199374329298735,-0.009043638594448566,0.025733910501003265,-0.0012404199254306511,-0.04640456537973702,0.0013042443011966217
0.13197684288024902,0.02135562151670456,-0.015092384070158005,0.00813591480255127,0.005496012046933174,-0.007369842380285263,0.0220254585146904,-0.0012068938016690208,-0.04647352774144512,0.001546692474908091
0.14192676544189453,0.02001853659749031,-0.014073250815272331,0.007188260555267334,0.00838326197117567,-0.002246852032840252,0.020717473700642586,-0.0011338069740833953,-0.04650976987706268,0.0017736874413604566
0.1522839069366455,0.01994946226477623,-0.013654133304953575,0.007722795009613037,0.01202220469713211,0.0015803766436874866,0.01569581776857376,-0.001019864126730109,-0.04650171953199416,0.0019642389936315313
0.1623239517211914,0.0195833221077919,-0.016904622316360474,0.009402096271514893,0.005513005889952183,-0.0009611668065190315,0.010587980970740318,-0.0009286784846981441,-0.04648651027363504,0.002092952733539695
0.1724228858947754,0.020162805914878845,-0.015335669741034508,0.011612474918365479,-0.0031004557386040688,-0.008657436817884445,0.007911769673228264,-0.0009161220600471818,-0.04653198505447256,0.0021924179393144963
0.18243694305419922,0.022941749542951584,-0.013598201796412468,0.010876357555389404,-0.008955548517405987,-0.00842955894768238,0.002828221768140793,-0.0009791925040298218,-0.04661021176278163,0.0022413143825597546
0.19224786758422852,0.023348141461610794,-0.01580723375082016,0.007455050945281982,-0.00957872811704874,-0.006725667975842953,0.0002673260751180351,-0.0010672514273689646,-0.04668098660859093,0.002249745390406671
0.20218276977539062,0.021140288561582565,-0.015031908638775349,0.0030979514122009277,-0.0021849775221198797,-0.008238298818469048,0.002297027502208948,-0.0005208086600763421,-0.04621211512740869,0.002260867914799623
0.21221399307250977,0.02056138962507248,-0.00901029072701931,0.0004932284355163574,0.005543516017496586,-0.008177045732736588,-0.000988248037174344,-5.339033856016737e-05,-0.04578533950772873,0.0022691116439728476
0.2221980094909668,0.022210806608200073,-0.008119571954011917,0.0021271705627441406,0.006534844636917114,-0.009792963974177837,-0.00455081183463335,0.0004100826980408558,-0.045420224895829635,0.0022396799366153374
0.23212099075317383,0.02178807556629181,-0.011227576993405819,0.0050258636474609375,0.0015747067518532276,-0.011527481488883495,-0.004666126798838377,0.0008115988104479697,-0.04508871817192505,0.002192324824907616
0.24218082427978516,0.02100847288966179,-0.012680089101195335,0.00470280647277832,-0.00381411612033844,-0.01356191374361515,-0.007985064759850502,0.001251177209458965,-0.04479712234581055,0.0021287050239955857
0.2521369457244873,0.02306807041168213,-0.01126310508698225,0.0026692748069763184,-0.004603210836648941,-0.01619817689061165,-0.007497439626604319,0.0015847877705323819,-0.04453714482972185,0.0020452697623411266
0.2621598243713379,0.02455008029937744,-0.009083825163543224,0.0036740899085998535,-4.1432445868849754e-05,-0.01629232056438923,-0.010289550758898258,0.0018719781469439618,-0.04423359609574988,0.0019516897219884898
0.27228784561157227,0.0248781219124794,-0.007230570539832115,0.0035796165466308594,0.0020824384409934282,-0.01604890637099743,-0.012879475019872189,0.0022451301718793065,-0.04393577438863991,0.0018356236078991592
0.28238677978515625,0.025362245738506317,-0.008870239369571209,0.004687070846557617,-0.009390875697135925,-0.01981155388057232,-0.009914950467646122,0.00254332943875344,-0.043717813618182444,0.0017157955945720817
0.29229307174682617,0.02724810317158699,-0.01156487874686718,0.006755232810974121,-0.019324731081724167,-0.020388927310705185,-0.00915381871163845,0.0025647539088890815,-0.04352829872350958,0.0016146728700277872
0.30232787132263184,0.028045829385519028,-0.016169294714927673,0.00900810956954956,-0.02029324136674404,-0.01774880290031433,-0.009157015010714531,0.002522716092406517,-0.04330347085499233,0.0015147024374620646
0.3127739429473877,0.026915941387414932,-0.01804794743657112,0.00822383165359497,-0.01854514144361019,-0.02158348821103573,-0.008047276176512241,0.0025666720754235948,-0.04308891272530588,0.0014083645716706774
0.32497406005859375,0.028553318232297897,-0.010039026848971844,0.0066277384757995605,-0.017500417307019234,-0.025955334305763245,-0.0032941193785518408,0.00267153956256195,-0.04294088375853303,0.0013434322781022525
0.3323788642883301,0.030579447746276855,-0.005033167079091072,0.007062792778015137,-0.016977638006210327,-0.021039670333266258,-0.002862687222659588,0.002748811044033813,-0.04275432774034462,0.001295918541092289
0.34230995178222656,0.02525928243994713,-0.009442970156669617,0.005029499530792236,-0.01642085425555706,-0.01431940495967865,-0.003106259973719716,0.0027793145505637528,-0.04248457885240397,0.001252548887337773
0.3523428440093994,0.021045424044132233,-0.010432361625134945,0.00396043062210083,-0.01172783225774765,-0.00800425186753273,-0.005415752995759249,0.002797004110177277,-0.0421461462750035,0.0012036638223331126
0.362454891204834,0.018047697842121124,-0.007997527718544006,0.005181252956390381,-0.009526746347546577,-0.006553140003234148,-0.00916585698723793,0.0028972426367845374,-0.04177261586193316,0.001122672114330471
0.37255287170410156,0.016338147222995758,-0.007027574349194765,0.009790778160095215,-0.007749885320663452,-0.003032973501831293,-0.009925124235451221,0.0030737402520188534,-0.041359726360212706,0.0010226601138418232
0.38245582580566406,0.013889577239751816,-0.008826879784464836,0.013379514217376709,-0.005929231643676758,0.0010700258426368237,-0.010499142110347748,0.003364891157353127,-0.04089444257948021,0.0009149200571512547
0.39251184463500977,0.010418254882097244,-0.01213162299245596,0.014450013637542725,-2.2340798750519753e-05,0.001776029821485281,-0.008830138482153416,0.0037222594930261237,-0.04042876645939803,0.0008117085926893578
0.40248584747314453,0.008541468530893326,-0.010447170585393906,0.014865398406982422,0.008906856179237366,0.004537683911621571,-0.007149151526391506,0.003972386562202815,-0.039940170054831046,0.0007272260989280197
0.41248393058776855,0.009171683341264725,-0.006244828458875418,0.011301517486572266,0.01706038974225521,0.011793999001383781,-0.004760828800499439,0.004192187683283795,-0.03936452043036912,0.0006646933664682018
0.4227879047393799,0.007470913231372833,-0.006408458109945059,0.004881858825683594,0.022598616778850555,0.019191861152648926,0.0018149421084672213,0.004562618729572598,-0.038823062135025274,0.000658066763593465
0.4324319362640381,0.007080536335706711,-0.005628469865769148,0.0013895630836486816,0.024444986134767532,0.01759822480380535,0.005062400829046965,0.004976401186480474,-0.03832557515407519,0.0007050360776878046
0.44241786003112793,0.009191896766424179,-0.004585046786814928,0.0028070807456970215,0.0182107575237751,0.013597268611192703,0.004830599296838045,0.005317923918177596,-0.03791900207256509,0.0007587351895174596
0.45250797271728516,0.012759219855070114,-0.005986988078802824,0.002741217613220215,0.007235338911414146,0.007596634794026613,0.005679348949342966,0.0055486772016934095,-0.037610414923138186,0.0008163233074094742
0.462615966796875,0.013745944947004318,-0.006196438334882259,0.004380702972412109,-0.005957977846264839,0.00016717007383704185,0.006319466046988964,0.005690181355643043,-0.03740683596713354,0.0008785682517304004
0.47249507904052734,0.012330669909715652,-0.007407188881188631,0.0036815404891967773,-0.013474483042955399,-0.005650239065289497,0.0036893279757350683,0.005791688507321717,-0.03731903683127043,0.0009250117923334533
0.4826498031616211,0.009631328284740448,-0.0057897623628377914,0.0022317171096801758,-0.014831630513072014,-0.00985679030418396,-0.001714811660349369,0.005822200709635927,-0.03732050424702458,0.000935041092030483
0.49262475967407227,0.00769183412194252,-0.0011275825090706348,0.0011941790580749512,-0.0053334664553403854,-0.010897021740674973,-0.0047620004042983055,0.005815190867279451,-0.03731887679319526,0.0008981511180407321
0.5026228427886963,0.003958307206630707,0.004701663739979267,-0.0032921433448791504,0.005640837363898754,-0.005659160204231739,-0.01105254702270031,0.005922393313422729,-0.03730851234705934,0.0008226494707216142
0.5127010345458984,0.0001409389078617096,0.00690424581989646,-0.005884945392608643,0.01730921119451523,-0.0011248625814914703,-0.015700828284025192,0.006126078204016623,-0.037244806678412026,0.0006991915676516344
0.5248928070068359,-0.0014100819826126099,0.004758019465953112,-0.0030285120010375977,0.026822390034794807,-0.0002469071187078953,-0.019255774095654488,0.00642126381770244,-0.03711282367124177,0.0005266578390523047
0.5330078601837158,0.0004014819860458374,0.002915552817285061,-1.811981201171875e-05,0.029277825728058815,-0.0005995100364089012,-0.024884365499019623,0.006806588467730789,-0.036925448700714326,0.00031274038640654943
0.5426640510559082,0.0030885860323905945,-0.0013292906805872917,0.004060924053192139,0.03125780075788498,0.0013694984372705221,-0.027735013514757156,0.007215685989164095,-0.03671333740516736,7.032568937165912e-05
0.5526409149169922,0.0033387988805770874,-0.005719347856938839,0.004858195781707764,0.030033811926841736,8.878437802195549e-05,-0.0243887510150671,0.007647418720725429,-0.03652103202212268,-0.00018990698771829026
0.5630598068237305,0.007283870130777359,-0.00652232114225626,0.003073573112487793,0.027596186846494675,-0.00782684050500393,-0.01920650526881218,0.008019384013024293,-0.03642256215862383,-0.0003956490789147144
0.5742359161376953,0.01558578759431839,-0.007734611630439758,0.0025205016136169434,0.025305602699518204,-0.02288142405450344,-0.01322398241609335,0.008271943792263545,-0.0364695822302531,-0.0005471063823596732
0.5826959609985352,0.019443824887275696,-0.010485747829079628,0.006006896495819092,0.015834087505936623,-0.02549092099070549,-0.005853789858520031,0.008358945596337245,-0.03666566970180523,-0.0006408423581987212
0.5927648544311523,0.021433070302009583,-0.013300152495503426,0.011002421379089355,0.005721531808376312,-0.02639053761959076,0.00493574095889926,0.008306379624890342,-0.03693085192487193,-0.0006400617718093367
0.6027419567108154,0.021629411727190018,-0.01350368931889534,0.007451355457305908,0.0010701874271035194,-0.03232042118906975,0.0074986605904996395,0.008209652529280033,-0.03724946192363433,-0.00057272457539969
0.6128740310668945,0.023526635020971298,-0.01040281169116497,0.0032288432121276855,0.00260869599878788,-0.03016033209860325,0.009216931648552418,0.008151957985243144,-0.03755997685419078,-0.0004937292078152181
0.6262898445129395,0.023775018751621246,-0.011079268530011177,0.0020000338554382324,0.009869870729744434,-0.021127155050635338,0.014755348674952984,0.00820792573315624,-0.037762755053547044,-0.00037379140843535487
0.6340527534484863,0.021664969623088837,-0.006272223778069019,0.0042822957038879395,0.009664807468652725,-0.01873430423438549,0.014747092500329018,0.008391563065765667,-0.037895908463786536,-0.0002247265185382132
0.6429429054260254,0.021346911787986755,-0.007335903123021126,0.011954307556152344,8.634990081191063e-06,-0.016384731978178024,0.014167056418955326,0.008548592378266565,-0.03794414952348263,-8.523098216415697e-05
0.6526949405670166,0.021501407027244568,-0.013151447288691998,0.019218921661376953,-0.0077805789187550545,-0.01888437569141388,0.011221333406865597,0.008638202857917205,-0.0378850026333882,3.56493257121213e-05
0.6628549098968506,0.02242911607027054,-0.012182623147964478,0.022106170654296875,-0.0066381655633449554,-0.012974065728485584,0.011155872605741024,0.00873728011070628,-0.03777506562243765,0.0001392217937714278
0.6742548942565918,0.021629463881254196,-0.007924103178083897,0.018404245376586914,0.0024650515988469124,-0.004171252250671387,0.011152144521474838,0.008936969684353733,-0.03757041351285152,0.00025339859472754613
0.6828980445861816,0.01867733523249626,-0.00602338183671236,0.010232806205749512,0.01425127126276493,-0.00035014888271689415,0.009760962799191475,0.009235530188267723,-0.03730373670644323,0.0003572126004248288
0.692929744720459,0.018875285983085632,-0.0040934402495622635,0.0075865983963012695,0.017949070781469345,0.0028491064440459013,0.010054709389805794,0.009563313391119236,-0.03698276812643558,0.00044868138706865006
0.7027859687805176,0.019564032554626465,-0.0030560698360204697,0.00948786735534668,0.012644019909203053,0.004084191285073757,0.010819622315466404,0.009883536036341735,-0.036649048177522334,0.0005674312693331143
0.7129249572753906,0.018345322459936142,-0.006753779947757721,0.014227688312530518,0.0017583486624062061,0.0031132029835134745,0.017404554411768913,0.010031047585843007,-0.03634570688141991,0.0007040550402407443
0.7252159118652344,0.016852017492055893,-0.009810009971261024,0.0148468017578125,-0.004758256953209639,0.0008964319713413715,0.01866880990564823,0.01008761284468644,-0.0360881971297529,0.0008819647675499079
0.7333929538726807,0.017190348356962204,-0.0073118628934025764,0.011146247386932373,-0.001194947399199009,0.004912212491035461,0.018341774120926857,0.01022065630124864,-0.035846579924285464,0.001065934748220553
0.7428879737854004,0.016313623636960983,-0.005612973123788834,0.005845010280609131,0.004797747824341059,0.008533001877367496,0.019661476835608482,0.010393673854171576,-0.035549540793213666,0.0012466841682978167
0.7531538009643555,0.01377919688820839,-0.004516509361565113,0.0007430911064147949,0.006758899427950382,0.008008092641830444,0.019447358325123787,0.010544102329406857,-0.0352274784766187,0.001444058767501049
0.7629189491271973,0.01367463544011116,-0.0024925563484430313,-0.0011860132217407227,0.004885448142886162,0.008588174358010292,0.019624406471848488,0.010675971997059386,-0.03493966534474219,0.001647949087273628
0.7742629051208496,0.013733170926570892,-0.007405894808471203,0.0002879500389099121,-0.0029453099705278873,0.004883983172476292,0.010081767104566097,0.010721742704869027,-0.034662341901392835,0.001788858809915934
0.7829327583312988,0.012341435998678207,-0.012002606876194477,-3.933906555175781e-05,-0.010764234699308872,-0.0006474466063082218,0.009192484430968761,0.010687407629176044,-0.03443011227382212,0.001877779583750641
0.7929978370666504,0.013190347701311111,-0.009293273091316223,-0.0010405778884887695,-0.016817865893244743,-0.00601957505568862,0.0072720786556601524,0.010650154560598228,-0.03427182386940912,0.001963173480363583
0.8029308319091797,0.011873386800289154,-0.007628791965544224,-0.0008833408355712891,-0.016515564173460007,-0.0049838717095553875,0.004075806122273207,0.010620909822994377,-0.03414495754353634,0.0020031846354182283
0.8131718635559082,0.0066522397100925446,-0.013645804487168789,0.001959562301635742,-0.01520955003798008,-0.007950900122523308,0.00036575651029124856,0.010570081149188875,-0.03402015181080837,0.002015776907260646
0.8243727684020996,0.008261878043413162,-0.014255310408771038,0.007456183433532715,-0.013896378688514233,-0.011410524137318134,-0.0013964571990072727,0.010509888135464896,-0.03393598864017592,0.0020005810955047157
0.833000898361206,0.007847756147384644,-0.012164585292339325,0.012020707130432129,-0.008186561055481434,-0.0069329505786299706,-0.0024425468873232603,0.010464381421495686,-0.033888033975065276,0.0019734783123029303
0.8430318832397461,0.003954395651817322,-0.017852943390607834,0.012528181076049805,-0.004537647124379873,-0.0036492287181317806,-0.006095604971051216,0.010437031954263536,-0.03377877270727769,0.001913980686766239
0.8530130386352539,0.0023681633174419403,-0.018858138471841812,0.008732438087463379,-0.0003556853625923395,-2.7329660952091217e-05,-0.008981406688690186,0.01053047335523908,-0.0336420711831451,0.0018442012889569805
0.8631539344787598,0.0030525848269462585,-0.01493083592504263,0.006446480751037598,0.00851408950984478,0.004236347042024136,-0.009325806051492691,0.010749903589088578,-0.03348723829839647,0.0017301824033185728
0.8764190673828125,0.002562306821346283,-0.015543237328529358,0.008204281330108643,0.009985486045479774,0.002503428142517805,-0.006163568701595068,0.01099200863781594,-0.03331737915376675,0.0016598585263582952
0.8830409049987793,0.0010843686759471893,-0.014405318535864353,0.009900867938995361,0.013887549750506878,0.0035127662122249603,-0.006192064378410578,0.01122967347799389,-0.03315168456424229,0.0015890677653655006
0.8930850028991699,-0.0006100758910179138,-0.014948341064155102,0.013912081718444824,0.017496397718787193,-0.0066738249734044075,0.0021590758115053177,0.01157168273853443,-0.033090021467420336,0.0015750026384121667
0.9030537605285645,-0.0001420639455318451,-0.01368908304721117,0.014550268650054932,-0.008919395506381989,-0.0011815880425274372,0.0031922757625579834,0.011854398975561547,-0.033069852992082184,0.00160326792295395
0.9130887985229492,0.00037232041358947754,-0.007898344658315182,0.011347174644470215,-0.01295754685997963,-0.006355044431984425,0.00407777726650238,0.011892575513718466,-0.03301964188830463,0.0016310452841101475
0.924807071685791,-0.006652504205703735,-0.015568955801427364,0.013553082942962646,0.003981239162385464,-0.023721206933259964,0.0034246097784489393,0.012080254291104398,-0.033151345317219076,0.0016668238415521724
0.9331469535827637,-0.005916789174079895,-0.005784030072391033,0.008139252662658691,0.029903385788202286,-0.018692094832658768,0.0056808399967849255,0.012526834878373257,-0.03335331576270426,0.0017131783033112599
0.9430999755859375,-0.001339934766292572,0.02151329442858696,0.002329230308532715,0.03180902451276779,-0.016368530690670013,0.007113088387995958,0.013045026102310594,-0.03350543563156179,0.0017963586044684886
0.9531798362731934,-0.007219262421131134,0.0154851283878088,0.00042575597763061523,0.014975183643400669,-0.023775313049554825,-0.0008111477363854647,0.013486626550448461,-0.03366889553070356,0.0018362440008686475
0.9633049964904785,-0.008173752576112747,0.0032458025962114334,0.0003966689109802246,-0.0041950480081140995,-0.04160810634493828,0.002352421171963215,0.013729013203391212,-0.0339812002546395,0.00184059340193801
0.9756429195404053,0.000696137547492981,0.009258226491510868,0.0034159421920776367,-0.02138841710984707,-0.0534282810986042,0.001966529292985797,0.013790515550373085,-0.03445911480362005,0.001858783331155806
0.9832808971405029,0.0044554248452186584,0.011061936616897583,0.005335569381713867,-0.027674641460180283,-0.05905767157673836,0.0017777110915631056,0.013717385210053832,-0.035014403565313594,0.0018607793724549546
0.9932308197021484,0.004802092909812927,0.009728965349495411,0.004218459129333496,-0.03444359824061394,-0.06785116344690323,0.004117830656468868,0.013498288668447432,-0.03562080602115663,0.0018818242897274725
1.0031988620758057,0.008275389671325684,0.01094463374465704,0.0010332465171813965,-0.03340926021337509,-0.07856621593236923,0.007847747765481472,0.013371170515884682,-0.03640907511764261,0.0019321516014198274
1.0132479667663574,0.011942345649003983,0.010614034719765186,0.003630399703979492,-0.0380956269800663,-0.0829646959900856,0.01276607345789671,0.013086323348455288,-0.03725366039589375,0.0020178396971738213
1.0249979496002197,0.013642638921737671,0.005341541953384876,0.005546391010284424,-0.04620647802948952,-0.08950310945510864,0.02140861563384533,0.012345631704907448,-0.03808451025006281,0.002178912975727707
1.0332717895507812,0.015642013400793076,0.000497942790389061,0.008646190166473389,-0.05827033147215843,-0.09666088223457336,0.025734655559062958,0.011606593563265577,-0.039046727697328434,0.0023952457611684497
1.0432400703430176,0.020663540810346603,-0.0024386048316955566,0.009543240070343018,-0.07606898993253708,-0.10628088563680649,0.025648316368460655,0.010897782913809571,-0.040101547284582345,0.0026250429183535045
1.0532560348510742,0.02087288349866867,-0.007809686474502087,0.011799633502960205,-0.08763669431209564,-0.1122884452342987,0.03988530859351158,0.009982218384985085,-0.04113538602460374,0.0029189124913073304
1.063499927520752,0.020817674696445465,-0.004608496092259884,0.005829513072967529,-0.07761475443840027,-0.11740295588970184,0.043143101036548615,0.00903297383057704,-0.04217938290612313,0.0033092670951182838
1.075671911239624,0.01932435855269432,-0.0015392210334539413,0.00367128849029541,-0.08561862260103226,-0.11856835335493088,0.04563156142830849,0.008119671731232217,-0.04323495665245124,0.003708278380259712
1.0834698677062988,0.01621123030781746,-0.009851379320025444,0.006942629814147949,-0.0938948541879654,-0.1315394639968872,0.055902305990457535,0.00711644438278695,-0.0443187270743034,0.0041692771177712275
1.0934038162231445,0.014953598380088806,-0.006554685533046722,0.0060427188873291016,-0.07885359227657318,-0.13760428130626678,0.05604398623108864,0.006155914337374601,-0.0454728911877495,0.004700739371211268
1.103395938873291,0.01244945079088211,-0.007923195138573647,0.0071242451667785645,-0.06853894889354706,-0.13369400799274445,0.044319260865449905,0.005413002365123865,-0.0466013521803649,0.005175519799219017
1.1137237548828125,0.004604242742061615,-0.009566208347678185,-0.0014540553092956543,-0.06302700936794281,-0.13626901805400848,0.049732934683561325,0.004807580359221214,-0.0476988820840469,0.0056078518489094354
1.1258387565612793,0.0015986897051334381,-0.0005631218664348125,-0.007580757141113281,-0.0671597495675087,-0.15170669555664062,0.03353404253721237,0.004289175599777577,-0.04886022798592306,0.006001440319907335
1.1333339214324951,0.0034728050231933594,-0.002232830971479416,-0.008922815322875977,-0.07545256614685059,-0.16062934696674347,0.025961611419916153,0.0037180951097185015,-0.05012543549148916,0.006249626353456757
1.1433899402618408,-0.0005184337496757507,-0.00819830596446991,-0.014315366744995117,-0.07361030578613281,-0.17095224559307098,0.01475747860968113,0.0030931931385451412,-0.051491696978199906,0.006422953400409248
1.1535289287567139,-0.003742951899766922,-0.0033626637887209654,-0.02371227741241455,-0.0700395405292511,-0.17515072226524353,0.0027149308007210493,0.0024661854289132136,-0.0529382545542164,0.006469195653645631
1.1635799407958984,-0.005258612334728241,0.004428490996360779,-0.031668245792388916,-0.05721244215965271,-0.18567772209644318,-0.01147076953202486,0.0020328516183584842,-0.054491805205770585,0.006388997640197556
1.17547607421875,-0.009652350097894669,0.005678222980350256,-0.03387993574142456,-0.03587466478347778,-0.1926938146352768,-0.024006802588701248,0.0017261867972827708,-0.056143040763105424,0.006192644583296859
1.1838617324829102,-0.01539137214422226,0.003686949610710144,-0.030819475650787354,-0.02492680773139,-0.19704505801200867,-0.037796542048454285,0.0016117444649821826,-0.057868364245805916,0.0058600007691665314
1.195295810699463,-0.01924430951476097,0.0014318678295239806,-0.026229798793792725,-0.01473409216850996,-0.20852355659008026,-0.046635039150714874,0.0016149641398549327,-0.05974071150558324,0.0054185591103335816
1.2036757469177246,-0.02098802849650383,-0.005310347769409418,-0.023467063903808594,-0.016107717528939247,-0.2177676558494568,-0.04809040576219559,0.0015408394440818277,-0.06173907693634705,0.004930832261784741
1.213944911956787,-0.02079211175441742,-0.012242895551025867,-0.02903127670288086,-0.019277678802609444,-0.2285396009683609,-0.04222133010625839,0.0014289700048726096,-0.06384648580667833,0.004469501627133807
1.2250709533691406,-0.019018836319446564,-0.02102712169289589,-0.03184860944747925,-0.01529458723962307,-0.2406967580318451,-0.03631066158413887,0.0013727713227938742,-0.0661128171256109,0.00405695761748154
1.233494758605957,-0.019226744771003723,-0.03011849895119667,-0.03677326440811157,-0.013295885175466537,-0.2605926990509033,-0.024708064272999763,0.0012840789210456227,-0.0685502002222147,0.003743038215862232
1.24367094039917,-0.015233509242534637,-0.02979430928826332,-0.036655545234680176,-0.02054271288216114,-0.2849763333797455,-0.0057787420228123665,0.0011047296696015919,-0.07123773084154063,0.0035781146152531022
1.2535209655761719,-0.013630814850330353,-0.03880566731095314,-0.03262680768966675,-0.014766315929591656,-0.3085029721260071,0.016530292108654976,0.0008976910610635775,-0.07417569274571482,0.003625441828186532
1.263631820678711,-0.014192044734954834,-0.04991580545902252,-0.03483623266220093,-0.014344687573611736,-0.32849252223968506,0.03784831240773201,0.000712849156818762,-0.07736199593398607,0.0038746292322088373
1.2744159698486328,-0.013614341616630554,-0.04697047919034958,-0.032773494720458984,-0.00750968512147665,-0.3568362891674042,0.06169505417346954,0.0005606367680604879,-0.0808038457295445,0.004367817927901148
1.2835688591003418,-0.012152045965194702,-0.04777343198657036,-0.03585624694824219,-0.0007855361327528954,-0.38229548931121826,0.08603949099779129,0.00047484967040533845,-0.08450656698647681,0.00510191535192999
1.293698787689209,-0.012840554118156433,-0.04797566309571266,-0.03761643171310425,0.02177809551358223,-0.4075888395309448,0.106936514377594,0.0005320175249230464,-0.08845622317798148,0.006084821966574484
1.3036768436431885,-0.013754025101661682,-0.04269491136074066,-0.034499287605285645,0.0246877484023571,-0.4263540506362915,0.12032875418663025,0.0006858148112593648,-0.09262576851087191,0.007238437977693245
1.3137938976287842,-0.013772033154964447,-0.04172506928443909,-0.03364908695220947,0.016820771619677544,-0.4518628716468811,0.1459108144044876,0.0007706476590985575,-0.09702204739136183,0.008590341957400943
1.325016975402832,-0.01373261958360672,-0.03951322287321091,-0.031161189079284668,0.0002737692557275295,-0.4664595425128937,0.15330204367637634,0.0007089344087241829,-0.10163130771237773,0.010095843505798304
1.333695888519287,-0.013475686311721802,-0.04467225447297096,-0.027875244617462158,-0.016228774562478065,-0.49422138929367065,0.17171140015125275,0.0004479718524089781,-0.10643078008202533,0.011699921425171107
1.3436989784240723,-0.011505626142024994,-0.04028015211224556,-0.027134299278259277,-0.03938412666320801,-0.5263044834136963,0.18818125128746033,-1.2222801993713018e-05,-0.1115439526987409,0.013468966120418478
1.3536429405212402,-0.006626717746257782,-0.03419516235589981,-0.0227392315864563,-0.05799136683344841,-0.5659109950065613,0.203129842877388,-0.0007173930893758669,-0.11702322322153084,0.015349518656699567
1.3638739585876465,-0.00860605388879776,-0.04742999002337456,-0.0081329345703125,-0.04758591577410698,-0.627479612827301,0.2399263083934784,-0.0015468274990529886,-0.12297561417417947,0.0174718602221567
1.3760979175567627,-0.011586979031562805,-0.04842396080493927,0.006033122539520264,-0.0018639666959643364,-0.6938442587852478,0.2877345681190491,-0.00211355263407717,-0.12958421152609148,0.020072029008905326
1.383612871170044,-0.012093663215637207,-0.041606515645980835,0.01983654499053955,0.06529133766889572,-0.7648118734359741,0.34152159094810486,-0.002238858198512417,-0.13686303555023696,0.023219736143221287
1.3938398361206055,-0.02291285991668701,-0.05042578652501106,0.021193087100982666,0.1583549678325653,-0.848418116569519,0.40875044465065,-0.0016587162721524073,-0.14492240258003672,0.027101374540216362
1.403824806213379,-0.04271714389324188,-0.07770439237356186,0.022058069705963135,0.31651321053504944,-0.964393138885498,0.48039233684539795,8.595296448049974e-06,-0.153981768504829,0.031843649773834054
1.413877010345459,-0.05787841975688934,-0.10325354337692261,0.024655699729919434,0.4631045162677765,-1.099359154701233,0.5578088164329529,0.003084937727848488,-0.16432741309042265,0.037603816035198925
1.4250407218933105,-0.07300642132759094,-0.1108410656452179,0.011587917804718018,0.5171866416931152,-1.2118890285491943,0.6265621185302734,0.006941555501883578,-0.17596707593132987,0.04427252268167909
1.4338428974151611,-0.0965641587972641,-0.122214674949646,-0.009658634662628174,0.539692759513855,-1.3187938928604126,0.7102850079536438,0.010948960680501251,-0.18868374189460757,0.051793466750893705
1.4479990005493164,-0.12547314167022705,-0.1601656973361969,-0.019806623458862305,0.544803261756897,-1.4720571041107178,0.7970812916755676,0.014853130769954334,-0.202717288889582,0.06026542945780926
1.455716848373413,-0.1344447135925293,-0.1502949446439743,-0.016411960124969482,0.5020584464073181,-1.6166722774505615,0.8941372632980347,0.01820883435048597,-0.21841351030629588,0.0695973860455115
1.4649529457092285,-0.1315540075302124,-0.10229618847370148,-0.004968404769897461,0.3544418513774872,-1.72946035861969,0.9465681314468384,0.02040110893075178,-0.2353308554982996,0.07962805518105244
1.4745030403137207,-0.13743558526039124,-0.09882483631372452,0.014894366264343262,0.07643235474824905,-1.9877734184265137,0.8544096946716309,0.02031713828274572,-0.2542478074652189,0.08888391089586363
1.483922004699707,-0.15633472800254822,-0.13888052105903625,0.03168845176696777,-0.25478509068489075,-2.1531331539154053,0.8598393797874451,0.0172482099766453,-0.27519058780185734,0.09692345840538179
1.4938907623291016,-0.19188910722732544,-0.1647123098373413,0.00591510534286499,-0.7921534180641174,-2.1458017826080322,0.8559858202934265,0.010031463710301199,-0.2968412126355213,0.10382589137808175
1.5039129257202148,-0.23010244965553284,-0.14169351756572723,-0.03970682621002197,-1.3416893482208252,-2.282301902770996,0.8870707750320435,-0.002960665272801342,-0.31898243336642135,0.10872758898224437
1.5139639377593994,-0.27154308557510376,-0.20195825397968292,-0.07712608575820923,-1.7835866212844849,-2.1517882347106934,0.8231623768806458,-0.020471707362948306,-0.3414144204501617,0.11207598092268851
1.525202751159668,-0.2677760422229767,-0.3312316834926605,-0.15826255083084106,-1.9966607093811035,-2.117839813232422,0.7930116057395935,-0.0412654175971185,-0.3626621991516713,0.11266386745164385
1.5340237617492676,-0.2627871334552765,-0.3042067587375641,-0.2775614857673645,-1.893200397491455,-1.9994125366210938,0.8427839279174805,-0.06250249684879457,-0.38334141691559276,0.11332547032831253
1.5442118644714355,-0.2541542053222656,-0.2685297429561615,-0.3448498845100403,-1.4127700328826904,-1.9065020084381104,0.7703392505645752,-0.08114934953685912,-0.40270813330964816,0.11424182280207572
1.5539979934692383,-0.27658307552337646,-0.2919473946094513,-0.3508492112159729,-0.5724127888679504,-1.8058955669403076,0.7406255602836609,-0.09324523145750982,-0.4211076005681901,0.11736398101171669
1.565375804901123,-0.2063886821269989,-0.1662173718214035,-0.28098857402801514,0.1894589215517044,-1.6391419172286987,0.5995330214500427,-0.09758561955768373,-0.4378925726406631,0.1227114554205774
1.5750689506530762,-0.16543397307395935,0.022450827062129974,-0.207719087600708,0.6543328166007996,-1.5395127534866333,0.6062593460083008,-0.09615130185987616,-0.45309924950598773,0.1300485235834315
1.584223747253418,-0.22670388221740723,-0.0819031298160553,-0.14502257108688354,0.8182325959205627,-1.4135901927947998,0.5971646904945374,-0.09215013488130766,-0.467085975816803,0.13880337343300633
1.5940890312194824,-0.23906299471855164,-0.22102800011634827,-0.1006353497505188,0.9296534061431885,-1.2652965784072876,0.6706527471542358,-0.08728878802679242,-0.4796693282391122,0.14836615134083506
1.6042499542236328,-0.28760209679603577,-0.296697199344635,0.015723347663879395,1.075730562210083,-1.0162039995193481,0.7369130849838257,-0.08171555128225881,-0.49016856045361096,0.1593556369166422
1.6139719486236572,-0.3182693123817444,-0.22181759774684906,0.1666325330734253,1.157326579093933,-0.8314922451972961,0.8156135082244873,-0.07546594471479123,-0.49837421581382807,0.1715360690884276
1.6266639232635498,-0.3383479416370392,-0.19949203729629517,0.30129706859588623,1.3321322202682495,-0.6710550785064697,1.1115336418151855,-0.06919147774266556,-0.5049495811340252,0.18587652026195525
1.633988857269287,-0.3359690010547638,-0.2733326256275177,0.3849327564239502,1.1502753496170044,-0.3634096682071686,1.1073397397994995,-0.06347544401612676,-0.5090928607230746,0.20213039493186977
1.6443438529968262,-0.330268532037735,-0.3139215111732483,0.3522486090660095,0.7074940800666809,-0.16476106643676758,1.2188585996627808,-0.0609686593188462,-0.5107499378833035,0.21657334560433475
1.6539230346679688,-0.3686954379081726,-0.48400524258613586,0.3831719160079956,0.5856941342353821,0.03134852647781372,1.3670076131820679,-0.06187992727970517,-0.5106000529916985,0.2310805846005578
1.6645407676696777,-0.29749366641044617,-0.488915354013443,0.3730219602584839,0.5817715525627136,0.3064030110836029,1.503173828125,-0.06372665213416026,-0.507920568230508,0.24645313546383182
1.6748988628387451,-0.28906261920928955,-0.3722386360168457,0.30617642402648926,0.5134137868881226,0.5180089473724365,1.6701034307479858,-0.06653220411940709,-0.502718683003338,0.2630849529421482
1.6844098567962646,-0.2657715678215027,-0.370878666639328,0.317253053188324,0.40080803632736206,0.7341652512550354,1.859547734260559,-0.0709352199372011,-0.4952613825395897,0.28081536921406947
1.6943879127502441,-0.19125506281852722,-0.3715871274471283,0.3623824715614319,0.3145122826099396,0.9686264991760254,2.0438919067382812,-0.07692432551937511,-0.4853780707732806,0.29984597865851614
1.7043237686157227,-0.18923071026802063,-0.34239065647125244,0.41683733463287354,0.27485939860343933,1.1940704584121704,2.2555274963378906,-0.08429661873479695,-0.472950132013642,0.32031043372034546
1.7141337394714355,-0.17614364624023438,-0.3326689600944519,0.47090965509414673,0.2997378408908844,1.4619317054748535,2.4829044342041016,-0.09232168945105887,-0.45771980581856603,0.3428833195048663
1.7245738506317139,-0.10844478011131287,-0.3194153308868408,0.46930575370788574,0.28939011693000793,1.7802648544311523,2.730573892593384,-0.10085163046485453,-0.43921118556080524,0.3678115197357783
1.7340478897094727,-0.02282378077507019,-0.27175381779670715,0.41277724504470825,0.2341018170118332,2.111557960510254,2.9928691387176514,-0.11020324822245804,-0.41703213881574286,0.39504329811181527
1.744309902191162,0.07106548547744751,-0.22803853452205658,0.3676379919052124,0.2557735741138458,2.4659183025360107,3.2815935611724854,-0.12029642401201288,-0.3907380695507013,0.42509213641353344
1.7544159889221191,0.17458802461624146,-0.20128662884235382,0.35689646005630493,0.21493825316429138,2.8159284591674805,3.4940266609191895,-0.1304744471604197,-0.36022048988361816,0.457809094586465
1.7643718719482422,0.2960697412490845,-0.12311746180057526,0.35720938444137573,0.12366575747728348,3.1324431896209717,3.6839511394500732,-0.14101005066358538,-0.325711281256975,0.49251391225636215
1.7747459411621094,0.4369845688343048,-0.0826064944267273,0.3593413233757019,0.09541894495487213,3.420557975769043,3.851393699645996,-0.1513757013531065,-0.28759079024641976,0.5292089171658315
1.784322738647461,0.6170660853385925,-0.05008915066719055,0.3553043603897095,0.14306993782520294,3.650672197341919,3.9498863220214844,-0.1606117872101537,-0.24617103979770225,0.5676810150176441
1.7942538261413574,0.8176091909408569,0.0017388761043548584,0.3100491166114807,0.2956264615058899,3.813931703567505,4.061513423919678,-0.167392220338871,-0.20220866752017208,0.6078380469578764
1.8041808605194092,1.003833293914795,0.025735363364219666,0.24649286270141602,0.4669910669326782,3.888420820236206,4.0913519859313965,-0.17098922245388826,-0.15658824034841123,0.6492492379645242
1.8141489028930664,1.1578088998794556,0.07440686225891113,0.16280126571655273,0.7105483412742615,3.8577232360839844,4.039831161499023,-0.17054429338583646,-0.11064069339562266,0.6910938370895656
1.8247990608215332,1.2694727182388306,0.14263902604579926,0.06918072700500488,0.8443480730056763,3.67588210105896,3.8458409309387207,-0.16624671410054317,-0.06597736254386359,0.7317179830272621
1.834277868270874,1.2755249738693237,0.22609061002731323,-0.030571937561035156,0.7782622575759888,3.289686441421509,3.5040717124938965,-0.15956518198788175,-0.024882615475723797,0.7694793188552899
1.8442578315734863,1.1876200437545776,0.259566992521286,-0.13907647132873535,0.3071404695510864,2.6300787925720215,2.871385335922241,-0.1540670064361194,0.010023581643237868,0.8020493916364937
1.85434889793396,1.0343166589736938,0.3757885694503784,-0.2154063582420349,-0.6060971021652222,1.700808048248291,1.886789083480835,-0.1548283896242125,0.03555850726789916,0.8263905545992861
1.8645849227905273,0.796470582485199,0.6161539554595947,-0.20966893434524536,-1.5579622983932495,0.6504872441291809,0.7523993849754333,-0.1652368970714768,0.049514638806839074,0.840244626750355
1.875962734222412,0.5324013233184814,0.8566918969154358,-0.22064661979675293,-1.8316303491592407,-0.24295218288898468,-0.18801842629909515,-0.18266791463645732,0.051951307629716864,0.8438145716615083
1.8843040466308594,0.35118764638900757,0.8921943306922913,-0.2867577075958252,-1.4078810214996338,-0.7436048984527588,-0.7768755555152893,-0.19938007814513165,0.04590110764119004,0.8395106390204395
1.8942508697509766,0.26792117953300476,0.6870944499969482,-0.3323594331741333,-0.6536048054695129,-0.7920592427253723,-1.0697166919708252,-0.21021797452934915,0.036103656232221816,0.830327914707964
1.9042508602142334,0.19135475158691406,0.33146899938583374,-0.2597513198852539,0.25391054153442383,-0.5164244771003723,-1.088782548904419,-0.21260994204746245,0.02704583794427778,0.8191868955414622
1.9142117500305176,0.128914475440979,0.05570511519908905,-0.15662646293640137,1.0782744884490967,-0.0726345106959343,-0.9000510573387146,-0.20604980943136228,0.021894937115500213,0.8087557173411241
1.9247617721557617,0.08576713502407074,-0.06452631950378418,-0.06486064195632935,1.5924605131149292,0.31884804368019104,-0.5892806649208069,-0.19259183962596824,0.021628727469705736,0.8008209749651993
1.9341797828674316,0.06047576293349266,-0.1377301812171936,0.03457528352737427,1.669041395187378,0.5579955577850342,-0.30080074071884155,-0.17609957060493078,0.025228624818712533,0.7959241596687653
1.944389820098877,0.05570843443274498,-0.18770426511764526,0.13352668285369873,1.3105307817459106,0.6165503859519958,-0.11658883094787598,-0.16099436144872217,0.030815169805257135,0.7934418986863802
1.9544048309326172,0.05104101821780205,-0.19851967692375183,0.1543290615081787,0.6676239371299744,0.49329957365989685,-0.0025437469594180584,-0.15104371470834752,0.036324722018204914,0.7925401057041747
1.9645109176635742,0.07426679134368896,-0.17985625565052032,0.0960993766784668,0.05731486529111862,0.2903415858745575,0.06509287655353546,-0.14747735885292676,0.04030164804835329,0.7927462661882851
1.974538803100586,0.10355648398399353,-0.14653430879116058,0.034533560276031494,-0.39923909306526184,0.11926727741956711,0.08242180198431015,-0.1492394810263093,0.042435300970562514,0.7935995729523586
1.9844648838043213,0.10827712714672089,-0.11156213283538818,0.01053476333618164,-0.6814571022987366,0.014755744487047195,0.09067120403051376,-0.15475139358004075,0.04320737730088164,0.7947104869507704
1.994457721710205,0.09199100732803345,-0.10699957609176636,-0.005508303642272949,-0.7403236031532288,0.01917978748679161,0.10250602662563324,-0.16196736426927494,0.043525380294378954,0.7959907077111822
2.00439190864563,0.0673777386546135,-0.09746550023555756,-0.013983607292175293,-0.5609014630317688,0.11041737347841263,0.12628395855426788,-0.16856012884193342,0.044379796555653654,0.7974381934705094
2.0145487785339355,0.05103155970573425,-0.08577214181423187,-0.036632657051086426,-0.2407948076725006,0.23143567144870758,0.14931124448776245,-0.17256513396931641,0.04636812060305986,0.7990478260826396
2.025024890899658,0.03684919700026512,-0.06981797516345978,-0.04702180624008179,0.052826859056949615,0.324853777885437,0.14221978187561035,-0.17339273071300906,0.049452657626675084,0.800599605870621
2.034553050994873,0.04192396253347397,-0.041495367884635925,-0.04984760284423828,0.2573717534542084,0.3650136888027191,0.10398983210325241,-0.1717021340754091,0.05313523829488407,0.8017803081732062
2.04486083984375,0.04133572056889534,-0.014385879039764404,-0.03758871555328369,0.3439081907272339,0.34725508093833923,0.05641038343310356,-0.168580159624284,0.056851154422227906,0.8024241431635607
2.054529905319214,0.04672834277153015,0.015166550874710083,-0.034991562366485596,0.35087502002716064,0.2823096513748169,-0.000614819407928735,-0.16505607847119766,0.06004958328514206,0.8024886009350025
2.064558982849121,0.04662608355283737,0.03704841434955597,-0.05578052997589111,0.2710092067718506,0.17666497826576233,-0.05683761090040207,-0.16191589333255352,0.06229085145029896,0.8019924662873181
2.074800968170166,0.03926698863506317,0.061298027634620667,-0.09554821252822876,0.13584205508232117,0.05963768810033798,-0.10475639998912811,-0.15991831953967325,0.06331265254863024,0.8010422926872219
2.0845298767089844,0.03784223273396492,0.0661437064409256,-0.11749380826950073,0.011008422821760178,-0.025278355926275253,-0.12869641184806824,-0.15929136618313872,0.06325008524959934,0.7998092571792143
2.094618797302246,0.030909065157175064,0.05433465540409088,-0.10299324989318848,-0.07420660555362701,-0.06707853078842163,-0.1278710961341858,-0.1597228243163088,0.06256336710897477,0.7985071515326941
2.1045618057250977,0.029214616864919662,0.035868629813194275,-0.07548868656158447,-0.11605831235647202,-0.061175908893346786,-0.10452444106340408,-0.1607613599853721,0.06172277607683186,0.7973836084338853
2.114607810974121,0.03282402828335762,0.008190616965293884,-0.058653414249420166,-0.13755109906196594,-0.03267661854624748,-0.08173231035470963,-0.16210489513271548,0.06110820552777607,0.7965354829023392
2.1266589164733887,0.03727439418435097,-0.006873637437820435,-0.03500324487686157,-0.13085518777370453,0.01025242730975151,-0.061730850487947464,-0.16351595553771245,0.06087976616552266,0.7959016970093956
2.1348679065704346,0.032679907977581024,-0.018624410033226013,-0.0033271312713623047,-0.08970056474208832,0.03696712851524353,-0.05310513824224472,-0.16467745788291754,0.06104807841926344,0.7953790049923837
2.1447629928588867,0.025882821530103683,-0.022918015718460083,0.004473447799682617,-0.02109403721988201,0.045681968331336975,-0.04511459171772003,-0.16527124063569928,0.0614021233057593,0.7949236187941681
2.1546239852905273,0.031209778040647507,-0.022568479180336,-0.012341797351837158,0.038321882486343384,0.05164851248264313,-0.05369928851723671,-0.16521079746012055,0.061818306691422534,0.7944253383706874
2.1646618843078613,0.034400518983602524,-0.018792688846588135,-0.023067235946655273,0.049640171229839325,0.038817983120679855,-0.07934632897377014,-0.16478617897822573,0.06218420230998729,0.7937350916447116
2.175260066986084,0.032655298709869385,-0.012133464217185974,-0.03485149145126343,0.0384325236082077,0.005653103813529015,-0.10195177048444748,-0.1644857973451446,0.06231088541751292,0.7928042031356727
2.1848859786987305,0.039376016706228256,-0.02003556489944458,-0.04000747203826904,0.04639619216322899,-0.03485104441642761,-0.11566156893968582,-0.16420543126825576,0.06203757817217764,0.7916810761879756
2.1950597763061523,0.0469634011387825,-0.020700842142105103,-0.04765290021896362,0.04497885704040527,-0.07489007711410522,-0.11249320209026337,-0.16381256227933988,0.0613479204104192,0.7905002749343459
2.2049150466918945,0.05085961893200874,-0.01965250074863434,-0.056549668312072754,0.0429636612534523,-0.09260973334312439,-0.11368182301521301,-0.16343051198659966,0.06036264740473566,0.78934547094374
2.2148358821868896,0.0460420697927475,-0.021096616983413696,-0.04186689853668213,0.08403412997722626,-0.09274981170892715,-0.11089403182268143,-0.1628527906171897,0.059299213087439656,0.7881790721357804
2.225759983062744,0.030354000627994537,-0.023651927709579468,-0.03212332725524902,0.14057427644729614,-0.0865948423743248,-0.10754670202732086,-0.1617467165986984,0.05828385297320653,0.7870177638238051
2.234740734100342,0.02278750017285347,-0.01674841344356537,-0.05000263452529907,0.169481560587883,-0.0929105281829834,-0.130123108625412,-0.16017877951278472,0.05726074979147232,0.7857600777459309
2.2447519302368164,0.021206822246313095,-0.010064616799354553,-0.06396156549453735,0.1653163582086563,-0.11390382796525955,-0.1673492044210434,-0.15855558890335486,0.05607866042151836,0.7841680364123279
2.2548317909240723,0.01840651035308838,-0.011897221207618713,-0.06521356105804443,0.17048662900924683,-0.15184961259365082,-0.19722774624824524,-0.15695029695324428,0.05455609943270191,0.7822628900542474
2.264893054962158,0.02772543579339981,-0.023323416709899902,-0.0498124361038208,0.1443895548582077,-0.18673086166381836,-0.23122896254062653,-0.1554029402668796,0.052660057357149445,0.7800158106481304
2.2750840187072754,0.03292388468980789,-0.0516190230846405,-0.01709073781967163,0.07615165412425995,-0.22946900129318237,-0.2543947100639343,-0.15432774812246677,0.050383031655558304,0.7775258864027035
2.2849318981170654,0.048765357583761215,-0.06540095806121826,-0.01584392786026001,-0.04365985095500946,-0.2651938199996948,-0.2907992899417877,-0.15420751637086,0.047704519560731906,0.7748009664545591
2.296144962310791,0.06035357341170311,-0.05521845817565918,-0.018882334232330322,-0.19048365950584412,-0.31619149446487427,-0.3430726230144501,-0.15545348882248985,0.04453731172112919,0.7716873376434538
2.304914951324463,0.060835178941488266,-0.04234716296195984,-0.0255889892578125,-0.30453819036483765,-0.38131383061408997,-0.40740934014320374,-0.1580250945065679,0.04063399436239033,0.7680332501136077
2.315427780151367,0.06825278699398041,-0.024402454495429993,-0.03385716676712036,-0.3698681890964508,-0.46337008476257324,-0.4805474579334259,-0.16154861316900007,0.03584361340576434,0.7636987937829622
2.3260178565979004,0.07127624750137329,-0.011953756213188171,-0.04503351449966431,-0.35530102252960205,-0.5534573793411255,-0.5653522610664368,-0.1654019004704456,0.029905014188095356,0.7585038145222508
2.3349647521972656,0.0800180584192276,-0.009487971663475037,-0.05910998582839966,-0.29614394903182983,-0.625735342502594,-0.6369220614433289,-0.1688279548572271,0.02298683164579484,0.752488327372522
2.344843864440918,0.09925300627946854,0.0006448328495025635,-0.07564365863800049,-0.23590295016765594,-0.691077709197998,-0.702812135219574,-0.1716293305819298,0.01525978842644965,0.7457548703114655
2.3549327850341797,0.11588406562805176,0.0035291463136672974,-0.07767146825790405,-0.1952953338623047,-0.7480717897415161,-0.7928317785263062,-0.17384387499370552,0.006745407194696882,0.7381855102533319
2.3651628494262695,0.12757965922355652,0.01124909520149231,-0.04784858226776123,-0.2056282013654709,-0.7982895374298096,-0.8915695548057556,-0.17584373876961734,-0.0024809197538500703,0.7296381570242632
2.3758928775787354,0.14493153989315033,0.03211209177970886,-0.01790529489517212,-0.25640669465065,-0.8414396643638611,-1.02043879032135,-0.1780870755131806,-0.012391962209757044,0.7198988204223244
2.3851890563964844,0.16637447476387024,0.05968634784221649,-0.01106172800064087,-0.31345099210739136,-0.8849248290061951,-1.1577403545379639,-0.18076824315161585,-0.023029521109257888,0.708782753090328
2.3950068950653076,0.20363879203796387,0.07926015555858612,-0.021971940994262695,-0.33974358439445496,-0.9095044732093811,-1.2756339311599731,-0.18373503699658716,-0.034285682576389184,0.6962850616201894
2.405681848526001,0.2436860203742981,0.07228890061378479,-0.01757979393005371,-0.2835266888141632,-0.8974108099937439,-1.358006238937378,-0.1864186293816232,-0.04584220216757116,0.6827238974742601
2.4149527549743652,0.2541464567184448,0.052673861384391785,0.03141707181930542,-0.10471328347921371,-0.8853344321250916,-1.4065990447998047,-0.18769968126346046,-0.057385974154341275,0.6685549044262803
2.4252829551696777,0.23514658212661743,0.03474406898021698,0.09024405479431152,0.0868699699640274,-0.8706164956092834,-1.4552961587905884,-0.18687728854090696,-0.06888885779460498,0.6539878645031735
2.434950828552246,0.21628108620643616,0.028084874153137207,0.11932748556137085,0.23198294639587402,-0.8552229404449463,-1.4800018072128296,-0.18418238269903797,-0.08024155245979163,0.6392024538074625
2.4451348781585693,0.21817412972450256,0.015999212861061096,0.09637594223022461,0.3279000222682953,-0.8410566449165344,-1.5286229848861694,-0.18005599919449602,-0.09145185612848268,0.6242277756802839
2.455002784729004,0.24044665694236755,0.02871611714363098,0.06699889898300171,0.35538649559020996,-0.8239996433258057,-1.5811316967010498,-0.17515071972635388,-0.10246645876095467,0.6088074948406871
2.4651548862457275,0.2530616521835327,0.05434134602546692,0.03566938638687134,0.38942956924438477,-0.8446208238601685,-1.6390432119369507,-0.16972390536536222,-0.11351472546362981,0.5929509925600821
2.475421905517578,0.27740025520324707,0.05018496513366699,0.027759015560150146,0.4081515967845917,-0.8654590249061584,-1.7149200439453125,-0.16375724435678096,-0.12481845105387972,0.5765323207839962
2.485764980316162,0.2944414019584656,0.06620071828365326,0.032096028327941895,0.4605126678943634,-0.890595555305481,-1.7610608339309692,-0.15720934309370538,-0.1363066321616798,0.5595859677588184
2.4956228733062744,0.29855960607528687,0.056575074791908264,0.011075317859649658,0.5234690308570862,-0.9380764961242676,-1.7500097751617432,-0.1498569907970993,-0.14802771597000172,0.5426669073306427
2.5051488876342773,0.3323724865913391,0.047004684805870056,0.003895998001098633,0.5529672503471375,-0.967306911945343,-1.7345325946807861,-0.14184041642826034,-0.15998692812660634,0.5260899456671938
2.515166759490967,0.34121042490005493,0.06077292561531067,0.01268237829208374,0.555395245552063,-0.9769387245178223,-1.743801236152649,-0.1334862759382201,-0.17194814303694347,0.5096979610405218
2.525418758392334,0.32025039196014404,0.0795547217130661,0.0007940530776977539,0.5186894536018372,-1.0043292045593262,-1.754518747329712,-0.1250712412269337,-0.1839518273138704,0.4932744797475846
2.535106897354126,0.3283548355102539,0.11620365083217621,-0.013810932636260986,0.44815507531166077,-1.0221681594848633,-1.764352560043335,-0.11697328038010714,-0.19608351651429404,0.47678798646343107
2.545095920562744,0.3432663679122925,0.12815356254577637,-0.022718727588653564,0.3401305079460144,-1.0117926597595215,-1.7885982990264893,-0.10955344428690465,-0.20814205498703467,0.46005555257908887
2.5551319122314453,0.353935569524765,0.1272333562374115,-0.0209047794342041,0.289875328540802,-1.0189448595046997,-1.8142503499984741,-0.10268350441934024,-0.22010973723817728,0.4429823979443218
2.5656518936157227,0.36902856826782227,0.14205412566661835,-0.0001906752586364746,0.2997877299785614,-1.0264480113983154,-1.8329098224639893,-0.09574792986513721,-0.23203737619919776,0.4257551803824312
2.575415849685669,0.36884960532188416,0.1482030600309372,0.01979905366897583,0.3307672142982483,-1.0207123756408691,-1.8475006818771362,-0.08837756987022777,-0.2438762067230377,0.40851320873372454
2.5853068828582764,0.3402373194694519,0.14862093329429626,0.024205923080444336,0.35810306668281555,-0.9943249821662903,-1.8402520418167114,-0.08045465306213467,-0.25538181880463867,0.3914070923573813
2.5954527854919434,0.3029248118400574,0.13881844282150269,0.019072115421295166,0.37978121638298035,-0.9712803363800049,-1.8304466009140015,-0.07216658496326576,-0.26650139995977656,0.3745464525570431
2.605257034301758,0.2757953703403473,0.11459184437990189,0.04212164878845215,0.31983423233032227,-0.9272068738937378,-1.8276115655899048,-0.06382688566752763,-0.27710863235422595,0.35782777193701426
2.6152899265289307,0.2500128448009491,0.06407864391803741,0.07869642972946167,0.29638561606407166,-0.9236922860145569,-1.8273388147354126,-0.05580826851103419,-0.2873835239863646,0.3410674635754376
2.626102924346924,0.23275244235992432,0.023647714406251907,0.13402926921844482,0.2731618285179138,-0.877413809299469,-1.8616284132003784,-0.04775118522274136,-0.2972915861151608,0.324202780990544
2.635246753692627,0.22581303119659424,0.0257384292781353,0.16399991512298584,0.23933221399784088,-0.8091175556182861,-1.891147494316101,-0.03970182676237159,-0.3064796923352692,0.3069924535264606
2.6460938453674316,0.22761213779449463,0.06446345150470734,0.14958935976028442,0.14944709837436676,-0.7748756408691406,-1.8592464923858643,-0.03213034882643203,-0.3149383830322213,0.28966222580019596
2.6552820205688477,0.23712363839149475,0.08043619990348816,0.15374410152435303,0.16479888558387756,-0.79689621925354,-1.8035999536514282,-0.024913189196106213,-0.3233323557919879,0.27275583194497277
2.6652169227600098,0.20531252026557922,0.04084349423646927,0.17933052778244019,0.20768223702907562,-0.703788161277771,-1.7814911603927612,-0.01743082644515628,-0.3312606178124035,0.25635199911076606
2.6753108501434326,0.09921953082084656,-0.001336817629635334,0.17668509483337402,0.2917347848415375,-0.5124368071556091,-1.7555652856826782,-0.00925637563499963,-0.33758934975867244,0.24045918043102316
2.6853418350219727,-0.004865139722824097,0.004832196515053511,0.1558021903038025,0.32644420862197876,-0.33301278948783875,-1.7191565036773682,-0.0005237435071559903,-0.3418583066622946,0.22509578252798276
2.6953577995300293,-0.040981441736221313,-0.006022836081683636,0.1343497633934021,0.24506600201129913,-0.18228080868721008,-1.6964282989501953,0.007999974955853924,-0.3443501405940988,0.21000005415852482
2.7051868438720703,-0.03676798939704895,-0.05620457977056503,0.13021647930145264,0.1753990203142166,-0.055733248591423035,-1.6648560762405396,0.015634337058063264,-0.3453575617940328,0.1948491211320858
2.7152090072631836,-0.030606359243392944,-0.11416280269622803,0.12188667058944702,0.14526322484016418,0.05236126482486725,-1.6454226970672607,0.022756189666015152,-0.34506307894819005,0.1798156121572569
2.725580930709839,-0.01751422882080078,-0.13981445133686066,0.08393603563308716,0.0166686549782753,0.17430776357650757,-1.6073644161224365,0.029012775709950072,-0.3435321146700526,0.16472357385544337
2.7351438999176025,0.0034551620483398438,-0.05858800187706947,0.0823318362236023,-0.06185544654726982,0.2630498707294464,-1.5542442798614502,0.03413094998512857,-0.34085493993374666,0.14974714548073406
2.7450969219207764,0.017135262489318848,0.009438108652830124,0.1253339648246765,-0.11441529542207718,0.3313855230808258,-1.5143707990646362,0.03833231465761016,-0.3373391832773713,0.13495975341808852
2.7551839351654053,0.002620786428451538,-0.025801487267017365,0.1759132742881775,-0.16125629842281342,0.3884490728378296,-1.5109847784042358,0.04202087788053532,-0.3331180614510771,0.12021768834654901
2.765105724334717,-0.032772839069366455,-0.060007307678461075,0.18757200241088867,-0.16892677545547485,0.45405107736587524,-1.4772248268127441,0.045263212064000295,-0.3282808477948203,0.10546698535623802
2.775338888168335,-0.06559360027313232,-0.03858064487576485,0.18259155750274658,-0.11688248068094254,0.5573809146881104,-1.405741572380066,0.04850497610013462,-0.32254543230558597,0.09128973599559713
2.785098075866699,-0.08356916904449463,-0.04325428232550621,0.14436089992523193,-0.13538837432861328,0.6128827929496765,-1.3594099283218384,0.051693616973231826,-0.31595192738110806,0.07787316609932794
2.795659065246582,-0.09529837965965271,-0.10671117901802063,0.07811516523361206,-0.13069695234298706,0.6802303791046143,-1.3348511457443237,0.054509617681782516,-0.30869929291067943,0.06455308149123375
2.8058218955993652,-0.10301494598388672,-0.2172178030014038,0.0023325681686401367,-0.18296310305595398,0.6963003873825073,-1.2911860942840576,0.057074621060893185,-0.30109067840095316,0.051552909665972105
2.815786838531494,-0.08275178074836731,-0.28513988852500916,-0.0981951355934143,-0.2763007879257202,0.6729103922843933,-1.2286626100540161,0.058475564650057876,-0.29342594843240594,0.0387435999659986
2.82611083984375,-0.04490160942077637,-0.2473578006029129,-0.1390141248703003,-0.2584323585033417,0.621405303478241,-1.1726140975952148,0.05933287141463866,-0.2862560782183912,0.026451849118165362
2.83585786819458,-0.04108491539955139,-0.26150768995285034,-0.09794032573699951,-0.35050317645072937,0.616327702999115,-1.1247378587722778,0.059679458432047874,-0.2794033516315422,0.014506579427151684
2.845719814300537,-0.08725029230117798,-0.2568070888519287,-0.023961663246154785,-0.45701831579208374,0.6662884950637817,-1.003179669380188,0.05871736012702648,-0.2722941512332708,0.003091746636984236
2.855480909347534,-0.14146655797958374,-0.170243039727211,0.0874670147895813,-0.5931820273399353,0.7598474621772766,-0.7865304350852966,0.056043613582891845,-0.26457782550162334,-0.007005903968744428
2.865668773651123,-0.16688033938407898,-0.0772317424416542,0.21041041612625122,-0.7296506762504578,0.8346437811851501,-0.5376209020614624,0.051330832747993486,-0.2561365948186454,-0.01512412155448842
2.876889944076538,-0.15687984228134155,-0.011547449976205826,0.30836522579193115,-0.8242900967597961,0.8505628108978271,-0.3423222303390503,0.0448946353296875,-0.24737173188135692,-0.021282820346734902
2.8860678672790527,-0.13037832081317902,-0.06460399925708771,0.31963062286376953,-0.9165186882019043,0.792933464050293,-0.21665023267269135,0.037012729850826875,-0.23888630505531772,-0.02607525541002484
2.895854949951172,-0.10491319000720978,-0.1864892691373825,0.27497750520706177,-0.9552647471427917,0.7431853413581848,-0.17234215140342712,0.02837355048810045,-0.23110880975114761,-0.03009602151958006
2.9092869758605957,-0.09678317606449127,-0.27252891659736633,0.1792486310005188,-0.9361342787742615,0.7442460656166077,-0.15168312191963196,0.019433994327737864,-0.22361475888558233,-0.03385231444637531
2.917308807373047,-0.10888314247131348,-0.2654225528240204,0.03884005546569824,-0.827663779258728,0.7928991317749023,-0.08943970501422882,0.010975372400168184,-0.21584612574709183,-0.036992525652649086
2.9275639057159424,-0.125881627202034,-0.2151617705821991,-0.05990457534790039,-0.6269084811210632,0.8192794919013977,-0.028573907911777496,0.004015494596382428,-0.20776530500862112,-0.03909466986624077
2.935628890991211,-0.14270634949207306,-0.2099270075559616,-0.1032874584197998,-0.46486896276474,0.8439739346504211,0.02369941584765911,-0.0013088300201788802,-0.1994339677297213,-0.04022137290590644
2.9456419944763184,-0.15139153599739075,-0.2061195820569992,-0.11387842893600464,-0.4175727665424347,0.8883737325668335,0.07764706760644913,-0.005649637295267953,-0.19078588234445454,-0.040564759474605035
2.9558088779449463,-0.15120498836040497,-0.17250654101371765,-0.09297400712966919,-0.43489235639572144,0.9476748704910278,0.13978394865989685,-0.010046373538448974,-0.18161898240655594,-0.040285957829839986
2.9657039642333984,-0.15835508704185486,-0.14551988244056702,-0.037907540798187256,-0.503838837146759,0.957998514175415,0.1959354728460312,-0.014920456653327342,-0.17200962237129155,-0.03944459260221922
2.97560977935791,-0.16731888055801392,-0.13044089078903198,0.03790771961212158,-0.6302928924560547,0.9554746747016907,0.27177029848098755,-0.020884295722324423,-0.16242480748438212,-0.0381017188313303
2.9856209754943848,-0.1690519005060196,-0.06383068114519119,0.10805070400238037,-0.7705468535423279,0.9460210800170898,0.3503885865211487,-0.028281462723156063,-0.15283170410401825,-0.036116857260348946
2.9956579208374023,-0.17307530343532562,-0.021311722695827484,0.14612489938735962,-0.9500353932380676,0.922709047794342,0.4154472053050995,-0.03737266047330065,-0.14335708427145777,-0.033586108716291176
3.0056228637695312,-0.17962658405303955,-0.05667319521307945,0.1404123306274414,-1.0932135581970215,0.8429016470909119,0.44038376212120056,-0.04810103686500156,-0.1343789097649601,-0.030721701901957717
3.015641927719116,-0.17271487414836884,-0.13108253479003906,0.08481019735336304,-1.2681046724319458,0.757938027381897,0.4263233244419098,-0.06042531820439358,-0.126205148333842,-0.027934038445968826
3.025753974914551,-0.16179165244102478,-0.17401106655597687,0.010298669338226318,-1.3309195041656494,0.6806060671806335,0.399669349193573,-0.0739196721018988,-0.11885680226832634,-0.025418070562952977
3.035773754119873,-0.16010482609272003,-0.17102454602718353,-0.04947000741958618,-1.3026617765426636,0.618554949760437,0.38986441493034363,-0.08751804724447024,-0.11216547768763574,-0.02303285965818203
3.0456929206848145,-0.16315773129463196,-0.15213070809841156,-0.11703300476074219,-1.1854569911956787,0.5665057301521301,0.405815988779068,-0.10038884431960149,-0.10599104684044233,-0.02042887596973084
3.0558619499206543,-0.16309989988803864,-0.10063925385475159,-0.16927146911621094,-1.0298298597335815,0.5237561464309692,0.41988199949264526,-0.11185870032047142,-0.10022098845910225,-0.017439221881166745
3.0657758712768555,-0.15513071417808533,-0.054315194487571716,-0.20117026567459106,-0.8634613156318665,0.47065356373786926,0.4370284080505371,-0.12167759625134386,-0.0948422741028915,-0.014067177788101936
3.0757570266723633,-0.14693838357925415,-0.026138335466384888,-0.2083151936531067,-0.7624772191047668,0.40962907671928406,0.45296424627304077,-0.13015848632055435,-0.08996628406321402,-0.010347500983710331
3.0858099460601807,-0.13900655508041382,-0.01877470314502716,-0.20022141933441162,-0.7042005658149719,0.34435147047042847,0.4500463604927063,-0.13784792173283808,-0.08566511585407119,-0.006438713972964255
3.0958900451660156,-0.13202407956123352,-0.03016240894794464,-0.17542403936386108,-0.7022700905799866,0.27650025486946106,0.43097707629203796,-0.14520460681963504,-0.08200398162965905,-0.002584287845104636
3.1058108806610107,-0.12930366396903992,-0.05603574216365814,-0.14014112949371338,-0.6967558860778809,0.20067612826824188,0.4025743901729584,-0.15252796648432487,-0.07907849372042271,0.0010638373948065386
3.1158499717712402,-0.12366142868995667,-0.07265247404575348,-0.09963399171829224,-0.7312244176864624,0.12894707918167114,0.36366748809814453,-0.15992698227336913,-0.0769193705615508,0.004373290040943671
3.1258349418640137,-0.11318642646074295,-0.06292161345481873,-0.06942975521087646,-0.7948958873748779,0.0716460570693016,0.3231183588504791,-0.16778799443471146,-0.07544404698789381,0.007249382835111655
3.1358680725097656,-0.10486629605293274,-0.038688480854034424,-0.05081838369369507,-0.8381820917129517,0.01243573147803545,0.2869936525821686,-0.17613343218383484,-0.07460976525635873,0.00974262849169226
3.1458029747009277,-0.09988773614168167,-0.030446752905845642,-0.047221243381500244,-0.9004180431365967,-0.02424500696361065,0.2446521520614624,-0.1850502720348496,-0.07431552269256962,0.011784037908741444
3.1583199501037598,-0.09579100459814072,-0.02697274088859558,-0.05768042802810669,-0.8843352198600769,-0.046423278748989105,0.20180748403072357,-0.19414466635096758,-0.07440633866824083,0.013385230317795491
3.166691780090332,-0.09684066474437714,-0.03143899142742157,-0.07894116640090942,-0.8559801578521729,-0.03512415289878845,0.136770099401474,-0.20301186934214338,-0.07462084583186186,0.014401368340928297
3.17588472366333,-0.10055724531412125,-0.03286062180995941,-0.10763412714004517,-0.7506324648857117,-0.028641220182180405,0.07316795736551285,-0.21115350466956156,-0.07483382255091818,0.014887794743052808
3.186008930206299,-0.0961032509803772,-0.037722036242485046,-0.10982978343963623,-0.5870459079742432,-0.018878605216741562,0.0003121736808679998,-0.21787805567413351,-0.07511451930304754,0.014710289936575341
3.1960089206695557,-0.08884989470243454,-0.030925363302230835,-0.10472267866134644,-0.39161810278892517,-0.00036590639501810074,-0.047571197152137756,-0.22271874398145433,-0.07535862454976712,0.014089888311900427
3.2073750495910645,-0.08038771152496338,-0.004962563514709473,-0.1067272424697876,-0.21738693118095398,0.011107790283858776,-0.06839264184236526,-0.22573151313874684,-0.07548238573401912,0.01323773516712278
3.215975761413574,-0.07033056765794754,0.0016963332891464233,-0.10539650917053223,-0.10141772031784058,0.019670119509100914,-0.09582746028900146,-0.22719718442195605,-0.07554098799945898,0.012293644274226414
3.22597074508667,-0.06134907156229019,-0.015293195843696594,-0.09589672088623047,-0.024419059976935387,0.02257309854030609,-0.12386825680732727,-0.22775203885464257,-0.07559172747257456,0.011115057593121518
3.2360458374023438,-0.05111820995807648,-0.02728109061717987,-0.08902686834335327,0.034069549292325974,0.02280372753739357,-0.14476847648620605,-0.22757408805532325,-0.07567484759974787,0.00974308539197086
3.246358871459961,-0.03869379311800003,-0.04213978350162506,-0.07856160402297974,0.06620268523693085,0.028564145788550377,-0.15745316445827484,-0.22694417005621875,-0.07576190379901906,0.008233106110281585
3.2585299015045166,-0.031675659120082855,-0.044845953583717346,-0.06358528137207031,0.08135581016540527,0.04180831462144852,-0.16726025938987732,-0.22608844468713019,-0.07577739783457842,0.006618320582268976
3.2660088539123535,-0.02702011913061142,-0.04583685100078583,-0.055619657039642334,0.09114255756139755,0.05791288986802101,-0.17167450487613678,-0.22510121699634233,-0.0756519762512825,0.00495253917479372
3.2763848304748535,-0.018699772655963898,-0.03855077922344208,-0.048436880111694336,0.09607233852148056,0.05979334935545921,-0.1622098982334137,-0.2240290530242053,-0.0754181080020147,0.003307081366833236
3.2861318588256836,-0.008155375719070435,-0.022231772541999817,-0.03853422403335571,0.08916299045085907,0.04172699525952339,-0.14170067012310028,-0.22298874593969256,-0.07522824288524677,0.0018213913643230911
3.297584056854248,0.002287536859512329,-0.013284280896186829,-0.026821613311767578,0.08165314793586731,0.01223834790289402,-0.12148568779230118,-0.22204407160518924,-0.07523389084091073,0.0005526717830931392
3.3088109493255615,0.007897704839706421,-0.022945761680603027,-0.010065138339996338,0.056748080998659134,-0.014564195647835732,-0.10567998886108398,-0.2212490891668861,-0.07549749597358797,-0.0005543793262801571
3.317180871963501,0.009004518389701843,-0.037895068526268005,-0.0070269107818603516,0.028607524931430817,-0.018660403788089752,-0.08830312639474869,-0.22075985540629808,-0.0758896672303629,-0.0014969963547508238
3.326511859893799,0.008126586675643921,-0.039071813225746155,-0.016285479068756104,0.01642248034477234,-0.011796148493885994,-0.09304073452949524,-0.22048025774420602,-0.07625289152076414,-0.0023850366856615272
3.33616304397583,0.007328338921070099,-0.037810295820236206,-0.025785207748413086,0.01351217646151781,-0.017287852242588997,-0.08551277220249176,-0.22011006238047173,-0.07663368114357194,-0.003326740645617845
3.346073865890503,0.003291584551334381,-0.03296451270580292,-0.02150595188140869,0.024054914712905884,-0.015573976561427116,-0.08325760066509247,-0.2196633213916751,-0.0770250374785236,-0.004179202510877748
3.357548952102661,0.0031875744462013245,-0.02057063579559326,-0.012118518352508545,0.041947897523641586,-0.00465714605525136,-0.08422087132930756,-0.2190497663950876,-0.07733093875954349,-0.005011990787509862
3.3661727905273438,-0.001082204282283783,-0.008075907826423645,-0.006734013557434082,0.058907173573970795,0.009297994896769524,-0.09106791764497757,-0.2183017447626319,-0.07747758626939821,-0.005869251957166269
3.3761067390441895,-0.004120044410228729,-0.0036570727825164795,-0.0003133416175842285,0.08427191525697708,0.01186315156519413,-0.09671967476606369,-0.21738604703096637,-0.0775074888045125,-0.006757847151893798
3.3861918449401855,-0.006450004875659943,-0.010805204510688782,0.0058991312980651855,0.09987987577915192,0.017607413232326508,-0.09595028311014175,-0.21611204771180978,-0.07745912203848061,-0.007635063469168329
3.3961730003356934,-0.004953794181346893,-0.010135546326637268,0.0023031234741210938,0.1317983865737915,0.027763111516833305,-0.11166639626026154,-0.21430200138375408,-0.07724134909153821,-0.008560686021350645
3.4075958728790283,-0.003534369170665741,-0.0016777962446212769,0.001753091812133789,0.17527680099010468,0.031858742237091064,-0.12930233776569366,-0.21181523799648297,-0.07691830989234816,-0.009640574120118529
3.416165828704834,-0.003951497375965118,0.0013474076986312866,-0.00034034252166748047,0.204668790102005,0.040822409093379974,-0.1313183456659317,-0.20875309284598328,-0.07650288845036747,-0.010755609455086673
3.426262855529785,-0.0014939531683921814,0.01413506269454956,-0.0022981762886047363,0.22930559515953064,0.048603057861328125,-0.13947847485542297,-0.2055714874232887,-0.07610863484699452,-0.01194099491345533
3.4362077713012695,-0.0030068382620811462,0.019384115934371948,-0.0015851855278015137,0.22859880328178406,0.04442162811756134,-0.13366825878620148,-0.20284451027147396,-0.07578203933397477,-0.013143183890000423
3.4464287757873535,-0.0017834082245826721,0.015239834785461426,0.0017206072807312012,0.23499584197998047,0.04485199227929115,-0.13785390555858612,-0.20062666501689783,-0.07565671547271303,-0.014333732105730686
3.458021879196167,0.0023657605051994324,0.016603857278823853,0.006463110446929932,0.22262199223041534,0.05108219385147095,-0.13837242126464844,-0.1986589837703649,-0.07559407322752529,-0.015619639149655825
3.466364860534668,0.002695024013519287,0.018378764390945435,0.009675979614257812,0.2027820348739624,0.05424056947231293,-0.13654793798923492,-0.1966932110811694,-0.0755264644913482,-0.01690086214861898
3.4763689041137695,0.0026783496141433716,0.017802312970161438,0.017544806003570557,0.1723514199256897,0.0644519254565239,-0.1370329111814499,-0.194978571366019,-0.07534330402983141,-0.018179863942383294
3.486297845840454,0.004645779728889465,0.013072699308395386,0.019761860370635986,0.13485802710056305,0.06817116588354111,-0.13160032033920288,-0.19379604189927258,-0.07505966537815466,-0.01948739984393267
3.4963488578796387,0.008994430303573608,0.014174103736877441,0.022630810737609863,0.10515472292900085,0.07785174995660782,-0.14248785376548767,-0.1929691458273178,-0.0747199725420336,-0.020823684185848176
3.5077829360961914,0.012156687676906586,0.00869014859199524,0.0268743634223938,0.0865430235862732,0.0820494294166565,-0.14134924113750458,-0.1926488190332651,-0.07428255019238875,-0.02221539281666658
3.516237735748291,0.013055399060249329,-0.002944439649581909,0.03011244535446167,0.07666083425283432,0.08243931829929352,-0.13520000874996185,-0.19254751992127672,-0.07387417652785568,-0.023600424161165163
3.52643084526062,0.012529417872428894,-0.009324505925178528,0.034688353538513184,0.07068295031785965,0.08228569477796555,-0.12591196596622467,-0.1923318006669536,-0.07341168175699023,-0.02491031005067889
3.536501884460449,0.012734055519104004,-0.010009273886680603,0.030003130435943604,0.07425504922866821,0.08191072195768356,-0.11097962409257889,-0.19206562252704915,-0.07285316574917754,-0.02607138520520193
3.546535015106201,0.013752825558185577,-0.0072336941957473755,0.025429904460906982,0.08460555970668793,0.07708871364593506,-0.09158313274383545,-0.19169410154970615,-0.07228321255357323,-0.027043238851140173
3.5576987266540527,0.01443459838628769,-0.009556591510772705,0.025120437145233154,0.09015052765607834,0.07503914088010788,-0.0781237781047821,-0.19120038593717884,-0.07172594167774847,-0.027843879386489998
3.566520929336548,0.014111660420894623,-0.011261671781539917,0.024244844913482666,0.10425356030464172,0.06994247436523438,-0.055821776390075684,-0.19048151837160215,-0.07113696196100862,-0.0284638577735942
3.576542854309082,0.013576880097389221,-0.006639137864112854,0.02488577365875244,0.10913407057523727,0.07457131892442703,-0.034528736025094986,-0.18967438435226291,-0.07047093242903016,-0.028846043934443826
3.5863869190216064,0.014154985547065735,-0.0013080090284347534,0.021578073501586914,0.11707662791013718,0.07901928573846817,-0.02622436173260212,-0.18872079135331785,-0.06969322984732398,-0.029048892458859752
3.5964279174804688,0.015138469636440277,0.002189144492149353,0.01972562074661255,0.10305189341306686,0.07956656068563461,-0.02243441715836525,-0.18766160331021095,-0.0688766257734812,-0.029205810551205847
3.608135938644409,0.016931921243667603,-0.00010418891906738281,0.018368422985076904,0.0853424221277237,0.0784047544002533,-0.018597973510622978,-0.1867188596058189,-0.0680632484085856,-0.029338801911270314
3.6164538860321045,0.017631731927394867,0.0035825371742248535,0.015829086303710938,0.06874959915876389,0.07413890957832336,-0.023265963420271873,-0.1859640129938722,-0.06727332074712808,-0.02949242783899969
3.6264688968658447,0.02128424495458603,0.006558135151863098,0.017830193042755127,0.050389133393764496,0.06682737916707993,-0.03126109018921852,-0.18537389992993356,-0.06657145108659787,-0.029727112336878077
3.636422872543335,0.02132478356361389,0.009528741240501404,0.015751242637634277,0.031855929642915726,0.06302305310964584,-0.03328962251543999,-0.18495969797332698,-0.06592307316810923,-0.03001070256423342
3.6464390754699707,0.021016530692577362,0.01753273606300354,0.01194387674331665,0.025856243446469307,0.05648690089583397,-0.04352889209985733,-0.1846251667715761,-0.06534022515337584,-0.03037363114192785
3.658284902572632,0.015544585883617401,0.016923874616622925,0.014045000076293945,0.017482466995716095,0.051404789090156555,-0.052999891340732574,-0.1844063473680712,-0.06484587281419607,-0.030853044952062206
3.66652774810791,0.01089940220117569,0.017751336097717285,0.01541745662689209,0.003623676486313343,0.05234825983643532,-0.053485386073589325,-0.18432519469884787,-0.06437162713580258,-0.03138478675842673
3.677353858947754,0.009058132767677307,0.025245562195777893,0.013049542903900146,-0.012498302385210991,0.05275891721248627,-0.05253863334655762,-0.18443163726144665,-0.06386477284603995,-0.031917053697239864
3.686628818511963,0.00596313551068306,0.023309797048568726,0.011027753353118896,-0.028819283470511436,0.057748619467020035,-0.05508312210440636,-0.18466233820585962,-0.06331015772295949,-0.03245756143277871
3.6969170570373535,0.002187974750995636,0.013622820377349854,0.010301351547241211,-0.05916094407439232,0.06452663242816925,-0.05844642594456673,-0.18517221984554028,-0.06268764545197353,-0.0330373712609186
