timestamp,accel_x,accel_y,accel_z,rotation_x,rotation_y,rotation_z, pitch,roll,yaw
0.04116392135620117,0.0004010722041130066,-0.009269490838050842,0.006614863872528076,0.0001875758171081543,0.01502370834350586,-0.03699178993701935,-0.10008909393197378,0.09635996413439382,0.004830049099276037
0.04852890968322754,0.0018038377165794373,-0.011162221431732178,0.005163729190826416,-0.0034482551272958517,0.007343018893152475,-0.035674694925546646,-0.10005907267129427,0.09640695689919791,0.004468442747153152
0.06123495101928711,0.0013928934931755066,-0.014322593808174133,0.0030913949012756348,-0.011541868560016155,-0.0018230490386486053,-0.038196440786123276,-0.10007621473365831,0.09635984201152029,0.004108103085927791
0.06969785690307617,0.0032135993242263794,-0.01069805771112442,0.004053473472595215,-0.02133188024163246,-0.004147544037550688,-0.037534914910793304,-0.1001753301496984,0.09624800679904251,0.003740495496362859
0.07769584655761719,0.004139691591262817,-0.009434990584850311,0.0057686567306518555,-0.0353318527340889,-0.006017615552991629,-0.038431067019701004,-0.1003781249060937,0.09613145669739799,0.003387155985673627
0.08310079574584961,0.000684097409248352,-0.012762442231178284,0.005422055721282959,-0.04807744175195694,-0.0028270608745515347,-0.03994177281856537,-0.10074723749671605,0.09601896053872946,0.003033637854083245
0.09238696098327637,-0.0021996572613716125,-0.013901978731155396,0.004980504512786865,-0.05938815325498581,0.0048646810464560986,-0.042922649532556534,-0.10124844439844911,0.09596205656984358,0.00267460835837134
0.10213994979858398,-0.00204506516456604,-0.010924480855464935,0.0048561692237854,-0.06601925939321518,0.012127121910452843,-0.041157931089401245,-0.10181390770437457,0.09602722075945525,0.0023100460979283565
0.11219406127929688,-0.0025356486439704895,-0.00971415638923645,0.0023621320724487305,-0.05079130083322525,0.019416725262999535,-0.03338602930307388,-0.10234585160906719,0.09617348849597965,0.0020017497116952957
0.12207984924316406,-0.0014292523264884949,-0.002653680741786957,0.0007217526435852051,-0.0198068730533123,0.006483572069555521,-0.026731854304671288,-0.1025956516060362,0.0963068235517841,0.0017401815034341214
0.13215994834899902,0.0005446970462799072,0.005326882004737854,0.005279123783111572,0.01321126613765955,-0.0001186705194413662,-0.02259490080177784,-0.10247271811705765,0.09633080029079638,0.001493614771435488
0.14222192764282227,0.0015897005796432495,0.008603028953075409,0.010561525821685791,0.02859441749751568,0.0010931571014225483,-0.014971389435231686,-0.10213977346524705,0.09633542750684351,0.0012868623465775793
0.1521749496459961,-0.00293663889169693,0.004559926688671112,0.010039865970611572,0.016481827944517136,0.005310805514454842,-0.019204217940568924,-0.10181718605413566,0.09638830099273209,0.0011026155334828318
0.16218996047973633,-0.0040279775857925415,-0.004221871495246887,0.0102769136428833,-0.01029945258051157,0.013469487428665161,-0.02837555669248104,-0.10167183583625816,0.09645653618178408,0.000860128262477164
0.17226886749267578,-0.003711126744747162,-0.013177134096622467,0.010710060596466064,-0.03685329854488373,0.018557989969849586,-0.03656531125307083,-0.10180823360810413,0.09656938206134866,0.0005574025554371533
0.1821749210357666,-0.0035032927989959717,-0.016261711716651917,0.014535307884216309,-0.05469098687171936,0.013999013230204582,-0.05006258189678192,-0.10220934731654316,0.09667167039015598,0.00017651160605377663
0.19310808181762695,-0.0031123682856559753,-0.014566630125045776,0.016984939575195312,-0.0786258801817894,0.011170202866196632,-0.06054318696260452,-0.10283689714160207,0.09671462101606912,-0.0003195616925347577
0.20223188400268555,-0.0027573183178901672,-0.016453728079795837,0.01784878969192505,-0.10155508667230606,0.007010922767221928,-0.06632496416568756,-0.1037676486992389,0.09673524708500264,-0.0008680295588389833
0.2122809886932373,-0.0029358863830566406,-0.01848667860031128,0.015462040901184082,-0.12380659580230713,0.006076153367757797,-0.0760795846581459,-0.10499858737238002,0.09674318794907145,-0.0014638748466327337
0.22239208221435547,-0.003156609833240509,-0.021185383200645447,0.014536499977111816,-0.14462077617645264,0.019694272428750992,-0.07585790753364563,-0.10646954790823318,0.09682718137318308,-0.0020927846929448437
0.2322220802307129,-0.006859727203845978,-0.020351998507976532,0.012767910957336426,-0.15232397615909576,0.029453160241246223,-0.06826683133840561,-0.108025467008866,0.09699283388275501,-0.0026747100506375166
0.24247097969055176,-0.007615834474563599,-0.016845695674419403,0.010532200336456299,-0.129964679479599,0.037640202790498734,-0.05904904752969742,-0.10942551087182814,0.09724758258732018,-0.0031734451769524215
0.25241899490356445,-0.004846356809139252,-0.010559752583503723,0.006154119968414307,-0.09021061658859253,0.033617500215768814,-0.04033501446247101,-0.11042402873863096,0.09752825719983992,-0.0035681673880696425
0.26248884201049805,-0.0033124685287475586,-0.0009932667016983032,0.003223419189453125,-0.03614436835050583,0.03204352781176567,-0.022712718695402145,-0.11088538304173193,0.09780286242698291,-0.003836893698461125
0.27243494987487793,-0.0029787272214889526,0.005868099629878998,0.002062559127807617,0.012890554964542389,0.02024226076900959,-0.005516687873750925,-0.11082910484044615,0.09803563166002813,-0.003961026045849555
0.28243398666381836,-0.0016913115978240967,0.00935545563697815,-0.0012722611427307129,0.037350356578826904,0.011021243408322334,0.0009394540684297681,-0.11037547275856681,0.09816377209891683,-0.004005617701510308
0.29252195358276367,-0.00036994367837905884,0.004655666649341583,-0.0005815029144287109,0.032237354665994644,0.018174227327108383,-0.0007015857845544815,-0.10982288833043401,0.09827194578954618,-0.004029013972292096
0.3024430274963379,-0.005410276353359222,-0.006479524075984955,-0.0008291006088256836,0.0028208428993821144,0.019810562953352928,-0.004704743158072233,-0.10943536220977022,0.09842697284015105,-0.004071847699347561
0.3125748634338379,-0.008318029344081879,-0.010966740548610687,-0.0017371773719787598,-0.025769256055355072,0.026232510805130005,-0.019594743847846985,-0.10937510675443848,0.09857382441715679,-0.004183417583337767
0.32238197326660156,-0.005392186343669891,-0.01297839730978012,-0.0031660795211791992,-0.03843981400132179,0.025270752608776093,-0.02749761939048767,-0.10958749842267973,0.09874970633134918,-0.004414154419994223
0.3323860168457031,-0.0053120627999305725,-0.009485013782978058,-0.008204519748687744,-0.03432176634669304,0.01706981472671032,-0.03861631825566292,-0.10991076207462633,0.09888820303142255,-0.004715727859930774
0.34293198585510254,-0.003520287573337555,0.0008150637149810791,-0.010287284851074219,-0.022735517472028732,0.0035088215954601765,-0.04863150790333748,-0.11024810321708972,0.09890076639112821,-0.005129831214680865
0.3527109622955322,-0.00045812129974365234,0.0040691569447517395,-0.01297914981842041,-0.011033320799469948,-0.004379195161163807,-0.055049460381269455,-0.11052044210062698,0.09881609788479814,-0.0056417695281151415
0.36267995834350586,-0.0024550482630729675,0.002319842576980591,-0.016344189643859863,-0.007279961369931698,-0.013009967282414436,-0.05824221670627594,-0.1107452561650006,0.09864686742845712,-0.006202685313452675
0.3723630905151367,-0.004636697471141815,-0.0012462958693504333,-0.014084935188293457,-0.015023368410766125,-0.015788443386554718,-0.06699203699827194,-0.11094039393921404,0.09841723148048495,-0.006824007969261877
0.38242292404174805,-0.007949255406856537,-0.006817057728767395,-0.01175779104232788,-0.021549612283706665,-0.015502242371439934,-0.06964310258626938,-0.11112594831750072,0.09812756540185662,-0.007499981324543468
0.3925659656524658,-0.012455493211746216,-0.01088639348745346,-0.0075331926345825195,-0.010766205377876759,-0.014500094577670097,-0.06886386126279831,-0.11125932932069621,0.09784084466274261,-0.008199196194915659
0.40244483947753906,-0.014592006802558899,-0.011578455567359924,-0.007807433605194092,0.0010913526639342308,-0.024112775921821594,-0.06342313438653946,-0.11124944306826261,0.09753249099280857,-0.00886370850243181
0.4126458168029785,-0.01279836893081665,-0.004543691873550415,-0.010044634342193604,0.012147998437285423,-0.03477340564131737,-0.05890534445643425,-0.11114149854058622,0.0971217684177192,-0.00949004820601113
0.4224870204925537,-0.007892884314060211,-0.00032777339220046997,-0.009386718273162842,0.025335989892482758,-0.04356090724468231,-0.052747420966625214,-0.11098343173304186,0.09664978348136201,-0.010064293699559997
0.4325129985809326,-0.009587541222572327,-0.005305767059326172,-0.0070258378982543945,0.03178643062710762,-0.045208074152469635,-0.04791777953505516,-0.11077215105040274,0.09613944136852808,-0.010593832579361688
0.44453001022338867,-0.010804988443851471,-0.008616618812084198,-0.0035749077796936035,0.022029224783182144,-0.05170241370797157,-0.04253478720784187,-0.11054155335416331,0.09557842637810685,-0.011075129155470103
0.4528019428253174,-0.00741972029209137,-0.009095676243305206,-0.0010452866554260254,0.012599504552781582,-0.052259545773267746,-0.04021836817264557,-0.11039410602443854,0.094977619284789,-0.011516178032437329
0.462878942489624,-0.004834555089473724,-0.010904967784881592,0.0022881627082824707,0.002702548401430249,-0.05072614550590515,-0.03936642408370972,-0.11029543975099562,0.09436864439096745,-0.011935172466708286
0.47263193130493164,-0.006916172802448273,-0.011326171457767487,0.006275534629821777,0.00029371934942901134,-0.04973411560058594,-0.03919598087668419,-0.1102279540296337,0.0937422059872405,-0.01233383692358098
0.48272705078125,-0.0058249980211257935,-0.0072245001792907715,0.01195371150970459,0.0019924496300518513,-0.044590484350919724,-0.038675494492053986,-0.11016950810009746,0.09313237126988529,-0.012736433930955995
0.49286603927612305,-0.0040494948625564575,-0.0012023895978927612,0.012927412986755371,0.0121691869571805,-0.03896642103791237,-0.03348312899470329,-0.11009788483794761,0.0925864410062306,-0.01310243875334824
0.5027430057525635,-0.0019032284617424011,0.006413370370864868,0.0109671950340271,0.015536654740571976,-0.03791376203298569,-0.03540145605802536,-0.10998879915010462,0.09212808987819773,-0.013465554084955865
0.5128350257873535,0.0003035888075828552,0.008390508592128754,0.011470913887023926,0.01641043834388256,-0.03344018757343292,-0.040488626807928085,-0.10981112434101964,0.09166955737240699,-0.013871968907425581
0.5227999687194824,0.003746628761291504,0.005825810134410858,0.013769686222076416,0.012875640764832497,-0.02597876265645027,-0.04498739540576935,-0.10964349005243827,0.09125714521298606,-0.01432630842618192
0.5329070091247559,0.002667754888534546,0.005370110273361206,0.0172768235206604,0.005410800687968731,-0.023290567100048065,-0.050864994525909424,-0.1095186144426522,0.09092763322555501,-0.01481643131590418
0.5432379245758057,0.0026267394423484802,0.0015911385416984558,0.01948988437652588,-0.0015635858289897442,-0.019611766561865807,-0.057866498827934265,-0.10946731794201477,0.09064486114407101,-0.015364888784128668
0.5530591011047363,0.0051055848598480225,-0.0033798515796661377,0.022058188915252686,-0.005800142418593168,-0.011403905227780342,-0.05754345655441284,-0.1094792770209468,0.09040677772289138,-0.0159543394479978
0.5635769367218018,0.007513701915740967,-0.0035415366291999817,0.021424531936645508,-0.005524355452507734,-0.006311717908829451,-0.05605475232005119,-0.10954983163770995,0.09024073093464954,-0.016524733439937767
0.5728998184204102,0.008381687104701996,-0.0019904449582099915,0.019873082637786865,0.0024890960194170475,-0.007297887001186609,-0.0564504973590374,-0.10961657189858254,0.090104457279563,-0.017091169734477277
0.5828869342803955,0.013323016464710236,-0.002065718173980713,0.021313250064849854,0.009751519188284874,-0.004964291583746672,-0.054273784160614014,-0.1096615963090411,0.08998413600628527,-0.017651694101530592
0.5931410789489746,0.013843990862369537,-0.0012561678886413574,0.022892653942108154,0.018254993483424187,0.0017133180517703295,-0.04594794660806656,-0.1096300548205023,0.08993539833690688,-0.018161662971419655
0.6028928756713867,0.010808221995830536,-0.0008659735321998596,0.020479679107666016,0.023807549849152565,0.002154781250283122,-0.04135170206427574,-0.10949847477084894,0.08994876284997483,-0.018615698865875642
0.6129989624023438,0.010049358010292053,-0.004985518753528595,0.01790153980255127,0.021694066002964973,0.004574263002723455,-0.03905845433473587,-0.10934463599631526,0.08995853582857764,-0.019037324173314968
0.6228909492492676,0.011387094855308533,-0.004285767674446106,0.016970813274383545,0.02397163398563862,0.007748662494122982,-0.03375636786222458,-0.10916259559254869,0.09000805303529273,-0.019424364592801502
0.6329929828643799,0.00949656218290329,-0.00668894499540329,0.016816914081573486,0.016532626003026962,0.0050082700327038765,-0.02954324707388878,-0.10898598848121827,0.09006639220689908,-0.019755804439693204
0.6429839134216309,0.00811070203781128,-0.010954774916172028,0.015600085258483887,0.0058756377547979355,0.0034564905799925327,-0.026002734899520874,-0.10890256136044425,0.0901244915291029,-0.020035089275355644
0.6531000137329102,0.01012672483921051,-0.012168638408184052,0.015929460525512695,-0.0026800327468663454,0.002876720391213894,-0.0184505432844162,-0.10891104340425907,0.09018434458712103,-0.020260374408434922
0.6634669303894043,0.008856095373630524,-0.010103397071361542,0.014449238777160645,-0.009857019409537315,-0.000588051974773407,-0.012703227810561657,-0.10899780624536462,0.09025104956052385,-0.020398713668799875
0.6730771064758301,0.0080060213804245,-0.007787354290485382,0.01209712028503418,-0.012312985956668854,-0.0021191034466028214,-0.008522331714630127,-0.1091239202272573,0.09029407599156423,-0.020489123481081326
0.6833429336547852,0.008811578154563904,-0.0072513967752456665,0.009437739849090576,-0.014573493972420692,0.0001878594048321247,-0.00487502571195364,-0.10927550773940042,0.09032959209513,-0.020543146361730494
0.693228006362915,0.0073896124958992004,-0.004145495593547821,0.006243586540222168,-0.017735198140144348,-0.00035036541521549225,0.0006030967924743891,-0.10942059492389374,0.09038021098810131,-0.020538094376452782
0.7030329704284668,0.0033947154879570007,-0.004219479858875275,0.005284786224365234,-0.021022453904151917,0.0028222142718732357,0.0011354627786204219,-0.10960247820239201,0.09047156192951769,-0.02050807096941508
0.7129909992218018,0.003702037036418915,-0.0033256039023399353,0.003214120864868164,-0.01876302808523178,0.000600605271756649,0.001388995791785419,-0.10977777018413311,0.09054821580881395,-0.020474395277660415
0.7230138778686523,0.006754592061042786,-0.0019267424941062927,0.003982365131378174,-0.006325067952275276,-0.008555875159800053,0.0027327202260494232,-0.1098441458833732,0.09057890325093805,-0.020439680658736508
0.7329587936401367,0.00786454975605011,0.0031793788075447083,0.004817664623260498,0.0024367317091673613,-0.01837095431983471,-7.212103810161352e-05,-0.10978834618039111,0.09052066066337092,-0.020411701616918396
0.7432229518890381,0.008246161043643951,0.002510644495487213,0.004245758056640625,0.0063302237540483475,-0.019058894366025925,-0.005880368873476982,-0.10967822152271144,0.0903961058359566,-0.020441783464708076
0.7531249523162842,0.009172089397907257,0.001179240643978119,0.002973794937133789,0.00619280431419611,-0.020573167130351067,-0.004929620306938887,-0.10955933695884236,0.0902611076110985,-0.020496216383911928
0.7640089988708496,0.0066623687744140625,4.559755325317383e-06,0.0005692243576049805,-0.00011386093683540821,-0.023656485602259636,-0.01128525473177433,-0.10948233588159478,0.09011356243632829,-0.020573425557336666
0.7731869220733643,0.004375949501991272,-0.002613767981529236,0.0007650256156921387,-0.006623425520956516,-0.020480932667851448,-0.014498624950647354,-0.10950681304025192,0.08994183726946306,-0.02069856275850578
0.783195972442627,0.0022903382778167725,-0.005888700485229492,0.0033803582191467285,-0.01591978780925274,-0.020111463963985443,-0.013846736401319504,-0.10959317646053254,0.08976826004598781,-0.020823174789045707
0.7931089401245117,-0.001352563500404358,-0.006589911878108978,0.0038910508155822754,-0.02927420847117901,-0.019217707216739655,-0.01646781899034977,-0.10980740075388451,0.0895968462204298,-0.020944217304541924
0.803095817565918,-0.0024949461221694946,-0.010190904140472412,0.007357895374298096,-0.03727947175502777,-0.012577559798955917,-0.014678227715194225,-0.1101450476201764,0.08949025593902885,-0.021062208879632296
0.8131389617919922,-0.004837974905967712,-0.010617345571517944,0.005825936794281006,-0.0368666835129261,-0.016675898805260658,-0.011919192969799042,-0.1105433924683449,0.08941025372202613,-0.021155516513345234
0.8231339454650879,-0.009121328592300415,-0.01089717447757721,0.007561385631561279,-0.03608044981956482,-0.013222930952906609,-0.017816709354519844,-0.11093241540087083,0.08931722734254119,-0.02126365424032794
0.833266019821167,-0.008054770529270172,-0.011651292443275452,0.007401168346405029,-0.0405295267701149,-0.011011974886059761,-0.018128300085663795,-0.11132273222202745,0.08926104203390574,-0.02140234400568785
0.8434000015258789,-0.009535714983940125,-0.01013588160276413,0.0052176713943481445,-0.054507579654455185,-0.007923019118607044,-0.025631330907344818,-0.11179389341631728,0.08920494962426316,-0.021562574649828723
0.8532638549804688,-0.01131553202867508,-0.015481032431125641,0.0064206719398498535,-0.0999019593000412,-0.002536243759095669,-0.04169605299830437,-0.11253554272187616,0.08916065104579117,-0.021829125501028383
0.8634181022644043,-0.012015677988529205,-0.02469172328710556,0.009824812412261963,-0.1767558604478836,0.00910150445997715,-0.06802171468734741,-0.11388131913022298,0.08915714632402083,-0.022251210852918417
0.8732860088348389,-0.013862036168575287,-0.03596971929073334,0.01479947566986084,-0.26957207918167114,0.019101673737168312,-0.0924740582704544,-0.11609495219890216,0.08922630892287993,-0.022862594860005695
0.8833889961242676,-0.014936782419681549,-0.046187348663806915,0.015970885753631592,-0.35697028040885925,0.017593348398804665,-0.11932133138179779,-0.11919289140626375,0.08931207287885072,-0.023643045326053158
0.8934249877929688,-0.012391723692417145,-0.046461962163448334,0.017156541347503662,-0.4162873923778534,0.009480560198426247,-0.137722447514534,-0.12303568489094271,0.0893108399871782,-0.024605364404922177
0.9033150672912598,-0.007180266082286835,-0.042313188314437866,0.01805722713470459,-0.4464212656021118,0.002440627897158265,-0.14174093306064606,-0.1272973175453846,0.08918066826731329,-0.02563046926906514
0.91339111328125,-0.0024504438042640686,-0.03186634182929993,0.012775421142578125,-0.4504077434539795,-0.005776555277407169,-0.13519275188446045,-0.13171906277496767,0.088985334664929,-0.026631657215974477
0.923469066619873,0.0008940771222114563,-0.020947515964508057,0.0067636966705322266,-0.43079084157943726,-0.01440129242837429,-0.12444739043712616,-0.1360212350036335,0.08872492050252764,-0.027551765751653058
0.9339790344238281,0.003411531448364258,-0.015902802348136902,0.0018289685249328613,-0.44556206464767456,-0.02762921154499054,-0.14152172207832336,-0.1402329420029041,0.08829767980275399,-0.028511387014157116
0.9450387954711914,0.0012564510107040405,-0.016200393438339233,0.007730543613433838,-0.500511109828949,-0.019412828609347343,-0.14549781382083893,-0.14474188179245556,0.08784775561588241,-0.02954892887979259
0.9534049034118652,-0.00033661723136901855,-0.03503285348415375,0.01159125566482544,-0.5659835338592529,-0.04050825908780098,-0.1509072333574295,-0.1498200976061743,0.0873781885289035,-0.03057410222404291
0.9633898735046387,-0.003784462809562683,-0.042987972497940063,0.01884084939956665,-0.6158778667449951,-0.07554324716329575,-0.16722477972507477,-0.15586203952379035,0.08663736826029902,-0.03164530731395065
0.9733469486236572,0.0018961504101753235,-0.03855331242084503,0.029850661754608154,-0.6263870000839233,-0.11386027932167053,-0.18191877007484436,-0.16223473397383473,0.08548022661245573,-0.03288157463083458
0.9835600852966309,0.009418785572052002,-0.028852075338363647,0.04175436496734619,-0.6014723181724548,-0.16761986911296844,-0.17415262758731842,-0.16853440924219207,0.08386160939000566,-0.03415402201414754
0.9938650131225586,0.01043693721294403,-0.004503235220909119,0.03498309850692749,-0.571052610874176,-0.23511075973510742,-0.16815651953220367,-0.17457823952484366,0.08168399863902984,-0.03537701724357858
1.0035400390625,0.0206870436668396,0.00929415225982666,0.01754903793334961,-0.5531272888183594,-0.2840236723423004,-0.21237990260124207,-0.1802640438974894,0.07878381241491517,-0.036827014702637544
1.0137519836425781,0.024532727897167206,-0.005803272128105164,0.01329958438873291,-0.6051177978515625,-0.300946980714798,-0.25477316975593567,-0.1862142642017951,0.07549096586042028,-0.03878055626674987
1.0259690284729004,0.0061827898025512695,-0.023214295506477356,0.011953532695770264,-0.7109912633895874,-0.2817258834838867,-0.26633134484291077,-0.1929581699237268,0.0721526168988661,-0.040919910896830176
1.0334978103637695,0.0011918842792510986,-0.03890612721443176,0.004402101039886475,-0.8012332916259766,-0.24146927893161774,-0.2974895238876343,-0.20075929914159113,0.06909752820889171,-0.043243055314086086
1.0434818267822266,-0.0029291510581970215,-0.04090146720409393,0.0037398934364318848,-0.7800857424736023,-0.2546772360801697,-0.3238791525363922,-0.20892202983796512,0.06605818637618743,-0.04588050583278705
1.0534191131591797,-0.010791376233100891,-0.021458789706230164,0.014985978603363037,-0.6463137865066528,-0.2131582796573639,-0.304395467042923,-0.21638078162940574,0.06316294203585396,-0.04862954487305144
1.06358003616333,-0.013225913047790527,0.018778428435325623,0.015061259269714355,-0.27946704626083374,-0.15120072662830353,-0.30267640948295593,-0.22138315650034543,0.060640662951199305,-0.051418434978961314
1.073472023010254,-0.027788382023572922,0.08831556141376495,0.02114236354827881,0.48660749197006226,-0.11588854342699051,-0.20899546146392822,-0.22072338965844593,0.05878879066461726,-0.05415489643338842
1.0835509300231934,-0.04740673676133156,0.19176794588565826,0.010091185569763184,1.5154552459716797,-0.17498230934143066,-0.1503521054983139,-0.21097794106868661,0.056845422738504923,-0.05651896518805794
1.094115972518921,-0.04908128082752228,0.3268187642097473,-0.0031602978706359863,2.8345398902893066,-0.14786067605018616,-0.08820565789937973,-0.18946483616344173,0.05472619748955775,-0.0590472665168374
1.1035959720611572,-0.047911811619997025,0.3984025716781616,-0.04147464036941528,4.224859714508057,-0.23532621562480927,0.006725757382810116,-0.15411732225421965,0.05252562944943999,-0.0613244123312218
1.1137380599975586,-0.05192951858043671,0.466388076543808,-0.057128965854644775,5.445249080657959,-0.17236988246440887,0.01743113063275814,-0.10567753442735128,0.04998613518677122,-0.06370952089846159
1.123650074005127,-0.060549698770046234,0.49732935428619385,-0.029596388339996338,6.467321395874023,-0.08367086946964264,0.03747967630624771,-0.045915054560510433,0.04836680682713787,-0.06637732926892181
1.133552074432373,-0.0880386084318161,0.45723167061805725,-0.0005255341529846191,7.137069225311279,0.041225261986255646,-0.05887375771999359,0.02237318596373382,0.04818293830612916,-0.06959636733259891
1.1436150074005127,-0.11550270766019821,0.4375232458114624,0.07342052459716797,7.2914204597473145,0.3539144694805145,-0.4227435290813446,0.09475408495760643,0.05024325245902532,-0.07547009320161055
1.153527021408081,-0.14039596915245056,0.31248772144317627,0.15852731466293335,6.920215129852295,0.7632772326469421,-0.8582473397254944,0.16584689823666127,0.05715023928585255,-0.08573201604407682
1.1635539531707764,-0.18142874538898468,0.13462643325328827,0.20119988918304443,6.204127311706543,1.324819803237915,-1.290900707244873,0.23077007844075165,0.07057918398188161,-0.10103832895832605
1.1734628677368164,-0.2020873725414276,0.07256320118904114,0.24182933568954468,5.432529449462891,1.9530129432678223,-1.5455130338668823,0.28764936981744493,0.09200909645926157,-0.12065448733284291
1.1835529804229736,-0.16659963130950928,0.1481243371963501,0.21399033069610596,5.017594814300537,2.382554769515991,-1.697295069694519,0.3377035532920858,0.12089510982789456,-0.14340353606188477
1.1939048767089844,-0.0865849107503891,0.29197725653648376,0.1705133318901062,4.8548784255981445,2.689314603805542,-1.9035792350769043,0.38391970693342486,0.15574117531382983,-0.1697160548930242
1.2035279273986816,-0.01497630774974823,0.4000176191329956,0.22911357879638672,5.00920295715332,2.744176149368286,-2.134474515914917,0.42896786938783543,0.19529705970770816,-0.20066436238973626
1.213545799255371,0.028468549251556396,0.40793851017951965,0.30527031421661377,5.032837867736816,2.8133058547973633,-2.416198253631592,0.4732423502246273,0.2390703238360584,-0.23747864639389812
1.2253589630126953,0.08142012357711792,0.2926819920539856,0.351717472076416,4.951638221740723,3.003692388534546,-2.5737061500549316,0.5150777607944041,0.28817702674445067,-0.27976966643044615
1.2336010932922363,0.12694570422172546,0.16277176141738892,0.37602847814559937,4.8741841316223145,3.1248950958251953,-2.703122854232788,0.5535220856310806,0.3429043241277113,-0.32667720642409365
1.2437589168548584,0.1645406186580658,0.05718386173248291,0.3784264326095581,4.698718070983887,3.24113130569458,-2.6514694690704346,0.5884934338853818,0.40215065493615154,-0.37730044280824476
1.253669023513794,0.22091519832611084,-0.054617464542388916,0.357377290725708,4.400768280029297,3.2700705528259277,-2.5524868965148926,0.6190227818975403,0.4643776380601009,-0.4291666965599124
1.2638731002807617,0.300605446100235,-0.15117710828781128,0.3505750298500061,4.070417881011963,3.06852388381958,-2.553560256958008,0.6441468344383309,0.5274553533190608,-0.48203261314361656
1.2757019996643066,0.29903444647789,-0.3515719771385193,0.34741973876953125,3.7713429927825928,2.7153704166412354,-2.503636360168457,0.6639685538667215,0.5888809183400237,-0.5353199088507323
1.2841079235076904,0.3116491436958313,-0.40850985050201416,0.3005216717720032,3.6097652912139893,2.342088460922241,-2.317352533340454,0.6800453418255814,0.6468532744354757,-0.5878495153708813
1.293971061706543,0.3310598134994507,-0.3192426562309265,0.18356937170028687,3.457488536834717,1.9666305780410767,-2.105724334716797,0.6938047357448154,0.7006896725260237,-0.6387320395870131
1.304253101348877,0.28603386878967285,-0.3164999485015869,0.07011055946350098,3.332811117172241,1.7077394723892212,-1.8921265602111816,0.7059281609811818,0.7506511372846899,-0.6878111904885976
1.3145759105682373,0.2124347686767578,-0.3421977758407593,-0.0267675518989563,3.1473236083984375,1.5173745155334473,-1.6324012279510498,0.716823585436188,0.7972502641319393,-0.7345380407341802
1.3261561393737793,0.16174638271331787,-0.3339071273803711,-0.12942788004875183,2.816189765930176,1.3127843141555786,-1.344980239868164,0.7263831729452869,0.8395756083503331,-0.7771894824778938
1.3338639736175537,0.11205118894577026,-0.3456995487213135,-0.15524062514305115,2.400211811065674,1.1167279481887817,-1.0882112979888916,0.7342725695653579,0.8765637206134756,-0.8144159534233879
1.344170093536377,0.04398238658905029,-0.4033116102218628,-0.15451949834823608,2.019685983657837,0.9250545501708984,-0.8724621534347534,0.7405048816733448,0.907953320866744,-0.8459414693865913
1.3539469242095947,-0.011410355567932129,-0.421791136264801,-0.17974892258644104,1.7260245084762573,0.7737755179405212,-0.6446343064308167,0.7457667364158509,0.9344014023726243,-0.8724607000312504
1.364490032196045,-0.060672879219055176,-0.38645946979522705,-0.20660802721977234,1.5141853094100952,0.6135280728340149,-0.3925263583660126,0.7510453340935164,0.9563224831899249,-0.8944997415373632
1.3759050369262695,-0.07778424024581909,-0.29333925247192383,-0.21668240427970886,1.3144466876983643,0.484785258769989,-0.1670258492231369,0.7568165525451341,0.9742414667992232,-0.9126930056091954
1.38417387008667,-0.061605632305145264,-0.24081730842590332,-0.2392948567867279,1.1600582599639893,0.3710261285305023,0.0449480302631855,0.763260234388387,0.988732760896542,-0.9274333942518811
1.3942639827728271,-0.05707484483718872,-0.16583514213562012,-0.24128252267837524,0.9509708285331726,0.22729450464248657,0.2027381956577301,0.7700828904552406,0.999578603769579,-0.9387652325544348
1.404158115386963,-0.04427212476730347,-0.18154925107955933,-0.2055196762084961,0.7405102849006653,0.0809377059340477,0.3329557478427887,0.7768895044369485,1.0066276105878404,-0.9466633112977164
1.4139249324798584,-0.05497539043426514,-0.16304701566696167,-0.17544108629226685,0.5539363622665405,-0.07893478870391846,0.4266100525856018,0.7835783417014929,1.0100621238316827,-0.9515130460059691
1.4258971214294434,-0.05430477857589722,-0.12131690979003906,-0.1509004831314087,0.35429540276527405,-0.2548052668571472,0.4879557490348816,0.7899058126930574,1.0098460650991923,-0.9535583663004286
1.4340119361877441,-0.03713953495025635,-0.111380934715271,-0.11946728825569153,0.07782944291830063,-0.34994056820869446,0.5492255091667175,0.7954307567720992,1.005819794268585,-0.9522670873220337
1.44451904296875,-0.03288149833679199,-0.12190234661102295,-0.11650148034095764,-0.18124210834503174,-0.39835846424102783,0.6222555041313171,0.8000513768879759,0.9982966077231945,-0.9470173569268862
1.4539129734039307,-0.019257724285125732,-0.11965686082839966,-0.1380176544189453,-0.36251041293144226,-0.3901998698711395,0.6919488310813904,0.8040494990030917,0.9882440530316141,-0.9385590385122109
1.4641180038452148,-0.012390732765197754,-0.10248595476150513,-0.1512400507926941,-0.5095461010932922,-0.3884086608886719,0.817014753818512,0.8078687915710985,0.9762229028032763,-0.9272333277851371
1.475158929824829,-0.018814682960510254,-0.05768287181854248,-0.13563057780265808,-0.5351316332817078,-0.4243711829185486,0.9262102246284485,0.8120780051230563,0.962290879424828,-0.9136493575821065
1.4839589595794678,-0.015067040920257568,0.018547236919403076,-0.09969571232795715,-0.45395737886428833,-0.4537786543369293,0.9662947654724121,0.8169659412086431,0.947837918453015,-0.8997580967070314
1.4940481185913086,-0.020460903644561768,0.04849553108215332,-0.07597470283508301,-0.4372124969959259,-0.5076147317886353,0.9730836749076843,0.8222353912490652,0.9330216568450642,-0.8861441188064498
1.5041630268096924,-0.04244720935821533,0.0503232479095459,-0.01647663116455078,-0.4918808937072754,-0.5003033876419067,0.9591390490531921,0.8271760433909677,0.9176194389975821,-0.8720790049128314
1.5141820907592773,-0.05495178699493408,0.02328699827194214,0.0017459392547607422,-0.5165484547615051,-0.4731827974319458,0.9348448514938354,0.831562745858962,0.9020089596386462,-0.8575053830055329
1.5254700183868408,-0.047739505767822266,0.06019258499145508,-0.005814790725708008,-0.47254082560539246,-0.4475429058074951,0.8712584376335144,0.8355040411200109,0.8868685369063084,-0.8432760038429025
1.5339860916137695,-0.03230541944503784,0.13000470399856567,-0.002536773681640625,-0.4078041613101959,-0.4061533808708191,0.7636007070541382,0.8390185796942524,0.8730036694448685,-0.8304118986413204
1.5442590713500977,-0.02327936887741089,0.15537166595458984,0.011044681072235107,-0.3794195055961609,-0.37692660093307495,0.6460647583007812,0.8418879841964199,0.860679261238347,-0.8190605825886756
1.5540308952331543,-0.02934110164642334,0.15503454208374023,0.03294640779495239,-0.3639529347419739,-0.3496675491333008,0.5107162594795227,0.8438122702711476,0.8496442652889447,-0.8091493735798765
1.564021110534668,-0.03126651048660278,0.14994090795516968,0.05339306592941284,-0.32611459493637085,-0.33167189359664917,0.3830433189868927,0.8448272203079964,0.8399682497067347,-0.8007764883260821
1.5758109092712402,-0.023656457662582397,0.14753353595733643,0.048615723848342896,-0.2798062264919281,-0.3099151849746704,0.29203271865844727,0.8452692607817996,0.8316487888696896,-0.7939634528038171
1.5841917991638184,-0.009465396404266357,0.15727496147155762,0.03425660729408264,-0.20618508756160736,-0.28149500489234924,0.22578594088554382,0.8455318418301055,0.8247597353477222,-0.7886576339092501
1.5941519737243652,0.009672969579696655,0.15046435594558716,0.022593915462493896,-0.13673517107963562,-0.2884248197078705,0.14567086100578308,0.8457541682607609,0.8190400012280725,-0.7848593645557153
1.6040289402008057,0.016856342554092407,0.14213162660598755,0.02547621726989746,-0.09800568968057632,-0.2525103986263275,0.07357264310121536,0.845774957309901,0.8146022715821112,-0.7825169296140455
1.6146578788757324,0.004887431859970093,0.09689873456954956,0.014702528715133667,-0.15378159284591675,-0.22247712314128876,-0.006828454323112965,0.845168065525224,0.8108812954868913,-0.7807999995937062
1.6259429454803467,-0.012046337127685547,0.03979063034057617,0.014577269554138184,-0.21434032917022705,-0.21951787173748016,-0.06934498995542526,0.8436142209165187,0.8075082119751316,-0.7791668427573956
1.6344749927520752,-0.014144718647003174,-0.007216036319732666,0.009787172079086304,-0.22706438601016998,-0.2505759000778198,-0.10604840517044067,0.8413990259996779,0.8040113073584229,-0.7776712818993874
1.6442971229553223,0.0001290738582611084,0.011911153793334961,0.004427611827850342,-0.15939843654632568,-0.24730134010314941,-0.11819253116846085,0.83916981808755,0.8007312913078457,-0.776689852558735
1.6542201042175293,0.006335347890853882,0.036142706871032715,-0.031166046857833862,-0.06511241942644119,-0.2763974368572235,-0.09502356499433517,0.8376417588526235,0.7980758863285711,-0.7765680540295474
1.6643218994140625,0.01646345853805542,0.05941641330718994,-0.05357322096824646,-0.019522612914443016,-0.3024842143058777,-0.11097712069749832,0.8366678251722321,0.7956416938520128,-0.77724426816188
1.6753830909729004,0.027538686990737915,0.03807270526885986,-0.03926306962966919,-0.09822434931993484,-0.2984476685523987,-0.1253664493560791,0.8354665751880247,0.79315663406249,-0.7779423301113809
1.6842379570007324,0.00859728455543518,-0.048509180545806885,-0.02807009220123291,-0.2212434560060501,-0.2795505225658417,-0.11575040966272354,0.8334618867662517,0.7899586687783271,-0.7775189408700691
1.6942920684814453,-0.0031957626342773438,-0.08701270818710327,-0.021838486194610596,-0.2865132987499237,-0.2668547034263611,-0.10554011911153793,0.8308699408182618,0.786064577672101,-0.7759644668942388
1.7042498588562012,-0.007041513919830322,-0.08123743534088135,-0.022763341665267944,-0.31715404987335205,-0.24389858543872833,-0.07205656170845032,0.828078902911628,0.7819407738900348,-0.7737830897444237
1.714353084564209,-0.010058462619781494,-0.08416342735290527,-0.010718345642089844,-0.338604211807251,-0.2924133837223053,-0.013840929605066776,0.8254258405593351,0.7770562821740584,-0.7707825318396047
1.7257080078125,0.008871525526046753,-0.04765021800994873,0.011030435562133789,-0.3019818663597107,-0.3036952316761017,0.021119823679327965,0.8231099558833832,0.771571694391895,-0.7674327495607177
1.7343997955322266,0.03264591097831726,-0.03705394268035889,0.009719610214233398,-0.26845693588256836,-0.346078097820282,0.06741142272949219,0.8213710009949716,0.7658287852973455,-0.764026606595983
1.7443108558654785,0.02716231346130371,-0.022552490234375,0.021734118461608887,-0.23857121169567108,-0.3604772984981537,0.09463239461183548,0.8201256836776821,0.7597634384550881,-0.7605842868025877
1.754215955734253,0.02100849151611328,-0.008888423442840576,0.036671340465545654,-0.29213935136795044,-0.3575078547000885,0.0837901309132576,0.818862376648564,0.7535461068834652,-0.7570103298475809
1.7645609378814697,0.008792370557785034,-0.039144039154052734,0.04085111618041992,-0.4824267327785492,-0.32386037707328796,0.050509240478277206,0.8165457893236299,0.7468082182495261,-0.7524953281291034
1.7763609886169434,-0.010326802730560303,-0.0989300012588501,0.05895721912384033,-0.739667534828186,-0.2835688889026642,0.024388160556554794,0.8122961798793963,0.7391690382034949,-0.7461029987693034
1.7846288681030273,-0.022479653358459473,-0.15197265148162842,0.06536686420440674,-0.9785468578338623,-0.2881797254085541,0.011297285556793213,0.8060122709918649,0.7301013547025161,-0.7375219977448849
1.7947509288787842,-0.010231345891952515,-0.1553247570991516,0.06912761926651001,-1.198542594909668,-0.3226258456707001,0.006647939793765545,0.7979212149685438,0.7195367118486741,-0.7270494701105505
1.8044359683990479,-0.003373861312866211,-0.17659324407577515,0.06712520122528076,-1.3930068016052246,-0.3313521444797516,0.06326695531606674,0.788225318864761,0.7072932037975663,-0.7145296892040396
1.8144409656524658,0.00695955753326416,-0.16869288682937622,0.058222949504852295,-1.4395012855529785,-0.34128227829933167,0.14755786955356598,0.7780147454535187,0.6940111707283106,-0.7004070517670017
1.8266170024871826,0.025061428546905518,-0.08511048555374146,0.021965503692626953,-1.4155522584915161,-0.370746374130249,0.20028403401374817,0.7680946192728765,0.6802699963719684,-0.6858494098593315
1.834826946258545,0.03352263569831848,-0.021076619625091553,0.019610047340393066,-1.52040433883667,-0.40487930178642273,0.2054460495710373,0.7579927060087172,0.6661522193920232,-0.671051526052633
1.8451769351959229,0.016085267066955566,-0.05275452136993408,0.05531799793243408,-1.8201420307159424,-0.40007033944129944,0.17109403014183044,0.7459575467230765,0.651094389673488,-0.6550273221687628
1.854485034942627,-0.006674230098724365,-0.14286112785339355,0.08408218622207642,-2.0417323112487793,-0.37058141827583313,0.2543519139289856,0.7316490158154941,0.6353038508596586,-0.6371082607542642
1.8648958206176758,-0.011268258094787598,-0.1767900586128235,0.07959181070327759,-2.033458709716797,-0.513434886932373,0.3719022870063782,0.7168066248828605,0.6179783919071622,-0.6175681822839614
1.876220941543579,0.010625571012496948,-0.04412597417831421,0.10430878400802612,-1.8738723993301392,-0.7188248038291931,0.4734627604484558,0.7031903589223018,0.5992321466931336,-0.5982333507884667
1.8846549987792969,0.04102051258087158,-0.0006055831909179688,0.08508956432342529,-1.8608672618865967,-0.9167473912239075,0.58194500207901,0.6906967012511308,0.5787246950348198,-0.5790790897870509
1.894752025604248,0.06531718373298645,-0.05765390396118164,0.055552124977111816,-2.08123517036438,-1.058746337890625,0.7006479501724243,0.6776279453547689,0.5557937949363316,-0.558496587101337
1.9045510292053223,0.06672635674476624,-0.12497967481613159,0.03619277477264404,-2.5539071559906006,-1.1228132247924805,0.7455078959465027,0.6616447147479988,0.5304602075093614,-0.5353420171172456
1.9145550727844238,0.06382483243942261,-0.22594553232192993,0.022035837173461914,-3.2245945930480957,-1.1113195419311523,0.7348610758781433,0.6402401870721991,0.5034317099372663,-0.5092793497089702
1.9257678985595703,0.043425291776657104,-0.33652621507644653,0.03631776571273804,-3.970064163208008,-1.0650676488876343,0.6527476906776428,0.6118249000879018,0.475835672239151,-0.4808052986369507
1.9346890449523926,0.01922130584716797,-0.39684659242630005,0.05876505374908447,-4.66943359375,-0.994032621383667,0.5892542004585266,0.5757182958639419,0.4487382690843919,-0.4508496984165529
1.9452099800109863,0.0064216554164886475,-0.37039750814437866,0.08873510360717773,-5.210482597351074,-0.9086509346961975,0.4952644407749176,0.5330975068202124,0.42317142513248923,-0.4203520956701357
1.9545021057128906,0.010818421840667725,-0.2878323793411255,0.11682850122451782,-5.678014278411865,-0.8958331942558289,0.4170583188533783,0.48483054065060754,0.39976168018765457,-0.3907857363160646
1.964613914489746,0.03677341341972351,-0.25550466775894165,0.15627819299697876,-6.0310773849487305,-0.9437758922576904,0.41351526975631714,0.4320522148669953,0.3777057472858465,-0.36166634484500604
1.9753398895263672,0.07926306128501892,-0.17036467790603638,0.21142137050628662,-6.237011909484863,-1.0164731740951538,0.44732409715652466,0.37626191544489446,0.3567030310391833,-0.3332738086255227
1.9845428466796875,0.10445255041122437,-0.043769001960754395,0.25412464141845703,-6.3600172996521,-1.1718497276306152,0.41879916191101074,0.3183304503824726,0.33651248590512745,-0.3061431793137033
1.9946718215942383,0.10217991471290588,0.009508699178695679,0.2693547010421753,-6.442147731781006,-1.3398358821868896,0.4149074852466583,0.25891259281819434,0.316680033670561,-0.28053109671716703
2.00462007522583,0.12173014879226685,-0.002952471375465393,0.28767895698547363,-6.395164489746094,-1.5401188135147095,0.34762439131736755,0.19873134211579435,0.2968940254380771,-0.2568209922052644
2.0146520137786865,0.1391361951828003,0.03459535539150238,0.3234793543815613,-6.206836223602295,-1.7525439262390137,0.3134238123893738,0.13906214840843442,0.27681382909426805,-0.23550249782751959
2.025838851928711,0.14372876286506653,0.07269056141376495,0.3260570168495178,-5.972113132476807,-1.9258787631988525,0.3044699430465698,0.08106470145425208,0.2562140991909541,-0.21631223492645094
2.0347118377685547,0.15270031988620758,0.12879611551761627,0.3155059218406677,-5.677823543548584,-1.9696956872940063,0.2923605442047119,0.025191458726555146,0.2357515674937439,-0.19922160476288245
2.044686794281006,0.11032433807849884,0.1631828099489212,0.27024567127227783,-5.362705707550049,-1.919648289680481,0.2974173426628113,-0.028028880846460703,0.21622425824123256,-0.18394044593596587
2.054724931716919,0.049670979380607605,0.1559944748878479,0.21409952640533447,-5.131880283355713,-1.8419013023376465,0.23701445758342743,-0.07873664668507432,0.19833096198754166,-0.17043207398161828
2.0653138160705566,-0.004683360457420349,0.12148439884185791,0.19665098190307617,-5.036104202270508,-1.697221279144287,0.11255716532468796,-0.12827210784234427,0.1817743140784503,-0.15904971023177447
2.0765738487243652,-0.04368865489959717,0.02831411361694336,0.20664334297180176,-5.189927101135254,-1.521518349647522,-0.04855768755078316,-0.178566082501746,0.16701087466993822,-0.14979560976139325
2.084926128387451,-0.0912044495344162,-0.07523897290229797,0.22799140214920044,-5.350183963775635,-1.3961886167526245,-0.12764951586723328,-0.23080142439054954,0.15395313531031626,-0.14211745682643112
2.094813823699951,-0.09848715364933014,-0.10606172680854797,0.2526610493659973,-5.405881881713867,-1.2918387651443481,-0.12485213577747345,-0.2843630163664343,0.14229011021176347,-0.13525295590700256
2.105556011199951,-0.023800186812877655,-0.02304142713546753,0.2710597515106201,-5.228409290313721,-1.2232939004898071,-0.07116158306598663,-0.33738956593581115,0.1317621682363014,-0.12859992080399812
2.114838123321533,0.025415271520614624,0.07574412226676941,0.23072373867034912,-4.849724769592285,-1.1601405143737793,-0.028870586305856705,-0.3876092587442617,0.12207444020761445,-0.12226914681509257
2.1266930103302,0.03650656342506409,0.0931885838508606,0.1647038459777832,-4.373701572418213,-1.1033587455749512,-0.05399144068360329,-0.43350721053970664,0.11291989514245106,-0.11674666779946916
2.1352620124816895,0.028106361627578735,0.08859503269195557,0.11880064010620117,-4.040655612945557,-0.9952986836433411,-0.1261894702911377,-0.47530391666526867,0.10416740665919616,-0.11265376407462074
2.1453030109405518,-0.0004704222083091736,0.055270999670028687,0.08746910095214844,-3.777310371398926,-0.7913159132003784,-0.1407434344291687,-0.5144215324263721,0.09656426655544519,-0.10987191189784284
2.154675006866455,-0.023471660912036896,0.0191727876663208,0.0371856689453125,-3.6017847061157227,-0.6463281512260437,-0.1849961131811142,-0.5512294730280881,0.09038533379483034,-0.10766458361351204
2.1651201248168945,-0.016883723437786102,0.001672208309173584,0.002007126808166504,-3.6133193969726562,-0.4079303741455078,-0.23665851354599,-0.5873715842483529,0.08579377902742152,-0.10647259672148676
2.1760499477386475,-0.043605826795101166,-0.053236186504364014,-0.009972095489501953,-3.63889217376709,-0.243158221244812,-0.2060028612613678,-0.6237767066129295,0.08312659885724065,-0.10546832857991874
2.185482978820801,-0.059285953640937805,-0.05830937623977661,-0.005514740943908691,-3.55503511428833,-0.15873344242572784,-0.1512008011341095,-0.6599255497490321,0.08208722766046082,-0.10396892661680177
2.1948869228363037,-0.03005746752023697,0.0053656697273254395,0.026023805141448975,-3.2695693969726562,-0.18111251294612885,-0.10127746313810349,-0.694206792496607,0.08168658932300842,-0.10196204456449144
2.2049918174743652,-0.012605182826519012,0.06543475389480591,0.051154494285583496,-2.825782299041748,-0.24813957512378693,-0.0758034735918045,-0.7247845734751599,0.08092513720025732,-0.09982286999785125
2.2149579524993896,-0.010150741785764694,0.08219069242477417,0.05198359489440918,-2.3036060333251953,-0.31089746952056885,-0.0634208396077156,-0.7504521937459552,0.07938872294258979,-0.0979638680132732
2.226289987564087,-0.021130021661520004,0.09921127557754517,0.0272064208984375,-1.7382235527038574,-0.3629937767982483,-0.07130507379770279,-0.7706841053408781,0.07685049378198971,-0.0967182298234784
2.2349889278411865,-0.02632017806172371,0.11947137117385864,-0.011547207832336426,-1.2118223905563354,-0.3700924217700958,-0.06589379906654358,-0.7854279235266054,0.07356562462151787,-0.09613046363448134
2.2463409900665283,-0.026038862764835358,0.13295018672943115,-0.057087838649749756,-0.7549782395362854,-0.3381199538707733,-0.049250852316617966,-0.7952444368584909,0.07011670672273455,-0.09597188625468635
2.255506992340088,-0.028728339821100235,0.14009428024291992,-0.09227323532104492,-0.4352492094039917,-0.30491966009140015,-0.035649556666612625,-0.8011206446675475,0.0668546634451687,-0.09598634620076756
2.2660560607910156,-0.03177976235747337,0.1278231143951416,-0.10498106479644775,-0.18821780383586884,-0.2076507806777954,-0.027189545333385468,-0.8042217512506707,0.06415956834100299,-0.09617844878526509
2.275944948196411,-0.031056348234415054,0.09261852502822876,-0.10141342878341675,-0.012676075100898743,-0.15041199326515198,-0.02413862757384777,-0.805215743785609,0.062187062230253554,-0.09643173470793676
2.28538179397583,-0.018481183797121048,0.07551223039627075,-0.08024156093597412,0.13081127405166626,-0.11510637402534485,-0.0327017568051815,-0.8046011095621324,0.060557098370764,-0.09689395090851517
2.2951388359069824,-0.013271570205688477,0.08011090755462646,-0.04297751188278198,0.1996028572320938,-0.08189383149147034,-0.038192398846149445,-0.8029437494588239,0.05905729955329139,-0.09757177494435502
2.3050730228424072,-0.013982556760311127,0.07254832983016968,-0.02678847312927246,0.21025942265987396,-0.023052481934428215,-0.022000642493367195,-0.8008727202089145,0.05808755865049685,-0.0981891210041636
2.3153109550476074,-0.014948565512895584,0.05463927984237671,-0.034456729888916016,0.12887828052043915,0.02241193875670433,-0.028730183839797974,-0.7991137634930022,0.05774799286550051,-0.0986550697071864
2.3260579109191895,-0.021351173520088196,0.03430980443954468,-0.03950703144073486,-0.01752597466111183,0.1073911041021347,-0.061821769922971725,-0.7985736612153638,0.05786053420397808,-0.09938460848753985
2.334980010986328,-0.03133472800254822,-0.018652677536010742,-0.04163229465484619,-0.17442823946475983,0.18337321281433105,-0.0826151967048645,-0.7996010589334266,0.05865159845239566,-0.10033651835018449
2.3456130027770996,-0.033723264932632446,-0.055473387241363525,-0.05082589387893677,-0.25789040327072144,0.23031897842884064,-0.10416816920042038,-0.8018822365600592,0.05990077475638746,-0.10150276960119343
2.3551290035247803,-0.02388792484998703,-0.03896695375442505,-0.04816031455993652,-0.2316739857196808,0.2509419620037079,-0.10910939425230026,-0.8044582713864733,0.06137112208749651,-0.10284861402250546
2.3651480674743652,-0.007974613457918167,-0.008594036102294922,-0.0530468225479126,-0.1424344927072525,0.2511122226715088,-0.10429530590772629,-0.8064290364577618,0.06289132145801703,-0.10421639961302691
2.3763279914855957,0.0031927302479743958,0.014033675193786621,-0.06418931484222412,-0.0072939759120345116,0.25748172402381897,-0.08979092538356781,-0.8072688604090528,0.06447530252527613,-0.10554095023858748
2.3850860595703125,0.0031708069145679474,0.02347242832183838,-0.07835626602172852,0.15165187418460846,0.2720170021057129,-0.07184755802154541,-0.8066163226620036,0.06625311950833714,-0.10677095217929942
2.395167827606201,0.004593987017869949,0.0254056453704834,-0.0852363109588623,0.3078012764453888,0.2556460201740265,-0.05513089895248413,-0.8043543745147428,0.06807560547266689,-0.10790298318727755
2.4053149223327637,0.005639370530843735,0.025989830493927002,-0.0802413821220398,0.4298976957798004,0.23480618000030518,-0.042430441826581955,-0.800681056101753,0.06978288877626049,-0.10895831369375321
2.4151480197906494,0.008813425898551941,0.02247101068496704,-0.06433260440826416,0.502662181854248,0.21233415603637695,-0.03469422832131386,-0.7960155388657663,0.07128546173858827,-0.1099899423943104
2.4259181022644043,0.00927923247218132,0.011578917503356934,-0.04286062717437744,0.517187237739563,0.1799999177455902,-0.029324069619178772,-0.7908991127482493,0.07255704157586096,-0.11096101240716678
2.435299873352051,0.009685467928647995,-0.002276897430419922,-0.023416340351104736,0.46473342180252075,0.1618874967098236,-0.03412468358874321,-0.7859868378341183,0.07357077682200208,-0.11191917029230072
2.447274923324585,0.01187896728515625,-0.011457622051239014,-0.00976032018661499,0.37620028853416443,0.1603047400712967,-0.03337569534778595,-0.7817995442268333,0.07451957523957242,-0.11284611774278826
2.4551868438720703,0.010446574538946152,-0.016616106033325195,-0.006199538707733154,0.27824950218200684,0.16413356363773346,-0.03591901436448097,-0.7785594615902809,0.07554596342080618,-0.11368466755546135
2.4654269218444824,0.0063898563385009766,-0.023190557956695557,-0.006577134132385254,0.18553264439105988,0.15876387059688568,-0.042644936591386795,-0.7762657981253179,0.07663768057920546,-0.11445319355476909
2.4761428833007812,0.0019043684005737305,-0.023843884468078613,-0.008250713348388672,0.0254545658826828,0.14805184304714203,-0.08863320201635361,-0.7752358840562543,0.07741637256574468,-0.11545716744482022
2.485153913497925,-0.002237387001514435,-0.03019922971725464,0.0005753040313720703,-0.12388893216848373,0.1789197027683258,-0.0987214669585228,-0.7758237258732841,0.07815648863602769,-0.11675791676453089
2.495427131652832,-0.008210528641939163,-0.053212761878967285,-0.0054084062576293945,-0.23819632828235626,0.1811426430940628,-0.09833770990371704,-0.7777324922428173,0.07917263867920896,-0.11791000228173032
2.505819797515869,-0.011599794030189514,-0.04741328954696655,-0.007594466209411621,-0.2988130748271942,0.16026932001113892,-0.10525979846715927,-0.7805402161790652,0.080084884085831,-0.11903695003730948
2.5157089233398438,-0.011384565383195877,-0.02430427074432373,-0.0013214349746704102,-0.2839867174625397,0.13242410123348236,-0.08991466462612152,-0.7835626243316605,0.08082095236751802,-0.12008039868731131
2.5263419151306152,-0.006561689078807831,-0.013804078102111816,-0.005003929138183594,-0.20605771243572235,0.09706433862447739,-0.07396061718463898,-0.7861260578056476,0.08135206200225562,-0.1209591640747902
2.535313129425049,-0.006314553320407867,0.0046790242195129395,-0.0035164356231689453,-0.07465600222349167,0.05015461891889572,-0.04980655014514923,-0.7876106102192998,0.08157777884288092,-0.12167864329670705
2.5453710556030273,-0.0036451555788517,0.026280999183654785,-0.0032393932342529297,0.05229927971959114,0.0005762376822531223,-0.026656966656446457,-0.7877250266836885,0.08145823443120402,-0.1222041331390757
2.5553879737854004,-0.0007568113505840302,0.03405880928039551,-0.003020048141479492,0.15111826360225677,-0.024760810658335686,-0.015453314408659935,-0.7867148886352514,0.08102234862376775,-0.12262281837644452
2.565877914428711,-0.0032829679548740387,0.02077186107635498,-0.0013251900672912598,0.2398792952299118,-0.03309144452214241,-0.007767964154481888,-0.7847671662036807,0.0804651544496004,-0.12300753356459494
2.576399803161621,-0.005712877959012985,0.008506238460540771,-0.004607498645782471,0.3059573769569397,-0.05557811260223389,-0.0009398855036124587,-0.7820286048225937,0.07975456690248768,-0.12337837782202914
2.585783004760742,-0.005820333957672119,0.01161724328994751,0.001963376998901367,0.299520343542099,-0.07846775650978088,-0.009763045236468315,-0.7789604312298473,0.07878171585306104,-0.12377900120439257
2.595853805541992,-0.0050918348133563995,0.006582438945770264,0.01080620288848877,0.23170267045497894,-0.06342223286628723,-0.00958141777664423,-0.7762828518389858,0.07774281805560214,-0.12423482436995402
2.6053900718688965,-0.009988140314817429,-0.017812252044677734,0.010308027267456055,0.12074173241853714,-0.04561598226428032,-0.01136711984872818,-0.7745036917839528,0.07691942808001004,-0.12458879288331158
2.6154630184173584,-0.009386494755744934,-0.030215919017791748,0.01182413101196289,0.010052772238850594,-0.023483779281377792,-0.008877596817910671,-0.7739676997154765,0.0763990644992891,-0.12482350543392559
2.6260228157043457,-0.007229998707771301,-0.025756537914276123,0.014856696128845215,-0.06883415579795837,-0.01032945141196251,-0.011597003787755966,-0.774495953813244,0.07615326665048774,-0.12492373208263062
2.6355128288269043,-0.005306024104356766,-0.02335411310195923,0.018261373043060303,-0.0970010757446289,-0.006387973669916391,-0.018031200394034386,-0.7755970276069122,0.0760193435100809,-0.12503603757848622
2.6455559730529785,-0.005724497139453888,-0.022368252277374268,0.021304965019226074,-0.0698559507727623,-0.016189871355891228,-0.01898173615336418,-0.7766317888506736,0.07578405400150903,-0.12521163362813165
2.6554059982299805,-0.004263650625944138,-0.003080606460571289,0.019805073738098145,-0.012317297048866749,-0.02192632108926773,-0.011390662752091885,-0.7771231679890198,0.07544000950277763,-0.1254069247044177
2.665721893310547,-0.0006187185645103455,0.013219296932220459,0.012352824211120605,0.05386560037732124,-0.027684738859534264,-0.007989859208464622,-0.7770540361964698,0.07502979380225396,-0.12559214942600996
2.675745964050293,-0.002039659768342972,0.016746461391448975,0.007145226001739502,0.1378188282251358,-0.019388992339372635,-0.0023372992873191833,-0.7762377378562147,0.07465049016044444,-0.1257796953739374
2.6855578422546387,-0.0027040690183639526,0.01790565252304077,0.0028367042541503906,0.2147628515958786,-0.027588777244091034,0.00541356485337019,-0.7744010086492138,0.07418512642307643,-0.1260187172362493
2.697147846221924,-0.0019253157079219818,0.024584293365478516,0.0035930871963500977,0.24016088247299194,-0.034637898206710815,0.0002544890157878399,-0.7719557405843112,0.07362285700272106,-0.12628775176927667
2.7053909301757812,-0.004063304513692856,0.022244811058044434,0.0058536529541015625,0.20839141309261322,-0.015439214184880257,-0.01019064150750637,-0.7696441052927098,0.07307643269777636,-0.12664091607838066
2.715540885925293,-0.007044784724712372,0.004165291786193848,0.0072792768478393555,0.13899636268615723,0.00785758625715971,-0.01848452538251877,-0.7679427693189589,0.07275174875341613,-0.12703774193532552
2.725615978240967,-0.007279843091964722,-0.01416313648223877,0.006990611553192139,0.0392298698425293,0.01925596036016941,-0.03889882564544678,-0.767140587095782,0.07255519857447129,-0.1275360185867052
2.73551082611084,-0.005908254534006119,-0.015879690647125244,0.011632382869720459,-0.0855136588215828,0.0439104400575161,-0.0665392354130745,-0.767681125863353,0.07234032632715977,-0.12826308347850246
2.74574613571167,-0.00402461364865303,-0.020917117595672607,0.013654053211212158,-0.19096648693084717,0.07367942482233047,-0.07235654443502426,-0.7693819295338634,0.0724074949551183,-0.12906308938331376
2.755897045135498,0.0025785379111766815,-0.030061960220336914,0.0068326592445373535,-0.25309059023857117,0.07579104602336884,-0.08828650414943695,-0.7718981946720997,0.07254767973187837,-0.12995759984041844
2.7655930519104004,0.005891263484954834,-0.01789957284927368,0.00493234395980835,-0.2536858022212982,0.07029401510953903,-0.08973740041255951,-0.7746898891628513,0.07257251292945087,-0.1309426764683817
2.776060104370117,0.010521061718463898,-0.008949041366577148,0.0007432103157043457,-0.20179809629917145,0.053723301738500595,-0.08915123343467712,-0.7772215215060269,0.07246537385136677,-0.13197210437309093
2.7857351303100586,0.012651801109313965,-0.0016961097717285156,-0.008320093154907227,-0.10941172391176224,0.02812495268881321,-0.08653904497623444,-0.7789926285318807,0.0720839550543024,-0.13307180740082233
2.795898914337158,0.013875413686037064,0.008382558822631836,-0.008239150047302246,-0.005218475125730038,-0.0018537193536758423,-0.07526295632123947,-0.7795821572607233,0.0713690723377049,-0.13421474723761206
