timestamp,accel_x,accel_y,accel_z,rotation_x,rotation_y,rotation_z, pitch,roll,yaw
0.04894399642944336,-0.01082727313041687,-0.0033592060208320618,0.006126224994659424,-0.03149095177650452,-0.04050964117050171,0.05799400061368942,-0.07497794535221598,0.1834331028533931,0.006899269057553667
0.06266021728515625,-0.013953372836112976,-0.0038625821471214294,0.006963551044464111,-0.037360675632953644,-0.037181444466114044,0.054343391209840775,-0.07522261994994255,0.18309215903018247,0.007527591814428306
0.06437301635742188,-0.01678532361984253,-0.002707831561565399,0.00927281379699707,-0.030666552484035492,-0.03311825916171074,0.05201525613665581,-0.07547237798334565,0.1827936489157836,0.008118121744649721
0.07033300399780273,-0.019963979721069336,0.0038577690720558167,0.009784221649169922,-0.018196851015090942,-0.030685152858495712,0.04989836364984512,-0.07562107229689433,0.18252057239135783,0.008667466554575134
0.07809710502624512,-0.01826833188533783,0.008264176547527313,0.007403194904327393,0.0003059934824705124,-0.025831008329987526,0.04705437272787094,-0.07562446279724185,0.18226968650994071,0.009160385054473094
0.08614301681518555,-0.018120795488357544,0.007613785564899445,0.007968664169311523,0.009379883296787739,-0.02069288119673729,0.04194563254714012,-0.07548097887242383,0.18207053374568027,0.009595694000413005
0.09622406959533691,-0.02332615852355957,0.0075965821743011475,0.010809898376464844,0.006713259965181351,-0.01113373227417469,0.036130618304014206,-0.07532991609102681,0.18194615264169492,0.009973175448813322
0.10622310638427734,-0.024560004472732544,0.004316337406635284,0.014396309852600098,0.00031270156614482403,-0.0037372014485299587,0.030227188020944595,-0.07523770699711457,0.18189602221927884,0.010296502909110737
0.11624813079833984,-0.02385471761226654,0.0033519044518470764,0.015461981296539307,-0.009560168720781803,0.002969170454889536,0.02424359880387783,-0.07524084602127118,0.181908185728439,0.010565226780266695
0.12615513801574707,-0.02615468204021454,0.0035994648933410645,0.017334043979644775,-0.014397900551557541,0.00873473659157753,0.014938408508896828,-0.07532922593079097,0.18198300626746056,0.010775082154054956
0.13630104064941406,-0.02344091236591339,0.0048985555768013,0.012119114398956299,-0.00672426912933588,0.010001868940889835,0.00781711470335722,-0.0754189395239857,0.18209550866644972,0.010906992668953534
0.14803504943847656,-0.022785499691963196,0.009681165218353271,0.008804380893707275,0.0008099137339740992,0.009421921335160732,0.00452044140547514,-0.07544292276896537,0.18218993159545843,0.01097779114124037
0.15652894973754883,-0.022448480129241943,0.008385546505451202,0.005154669284820557,0.003442448331043124,0.012221968732774258,-0.0010192003101110458,-0.0754262299726317,0.18229725737085492,0.010981318309398193
0.1665351390838623,-0.023482248187065125,0.008793696761131287,0.0021120309829711914,0.007395810913294554,0.01577666774392128,-0.002783864038065076,-0.07538416974665922,0.18243280156129013,0.01095932992449235
0.17653799057006836,-0.025191694498062134,0.006628029048442841,-0.000521242618560791,0.013134390115737915,0.017427559942007065,-0.0025953121948987246,-0.07529128478613827,0.1826031574529521,0.010916357692842181
0.18643808364868164,-0.024257540702819824,0.004339553415775299,-0.0015469789505004883,0.017458930611610413,0.01572784222662449,-0.004076722078025341,-0.07513791658736908,0.18276876526772326,0.010852833374861483
0.1982569694519043,-0.023457854986190796,0.00592457503080368,-0.0010732412338256836,0.025461196899414062,0.011450805701315403,-0.0004716009134426713,-0.07501740012752585,0.1827296028913721,0.010782445093667714
0.20642805099487305,-0.02328108251094818,0.006675921380519867,-0.0015767812728881836,0.026599682867527008,0.008618311956524849,-0.0019133832538500428,-0.07486070528807166,0.18262496511282347,0.01070329196669426
0.2163991928100586,-0.021865293383598328,0.0005885958671569824,-0.0015325546264648438,0.01998385787010193,0.006002555601298809,-0.0030457591637969017,-0.07476796274925726,0.1825025504059876,0.010617073760602199
0.22622013092041016,-0.0196215957403183,-0.0021775290369987488,0.0002624392509460449,0.006184356287121773,-0.0005221003666520119,-0.003951820079237223,-0.07484876660882309,0.18233184331472221,0.01054391247451846
0.2363600730895996,-0.01933099329471588,-0.00383855402469635,-0.0002499222755432129,-0.008475280366837978,-0.0027943095192313194,-0.0010116901248693466,-0.07504550138589784,0.18213158910296307,0.010505142267822227
0.2476811408996582,-0.0181158185005188,-0.006353519856929779,-0.003390073776245117,-0.020702170208096504,-0.0055832164362072945,0.00015195133164525032,-0.0753793999609765,0.1818929146349731,0.010512856093652897
0.25652599334716797,-0.017095312476158142,-0.0077756717801094055,-0.00020509958267211914,-0.016869081184267998,-0.007756088860332966,0.0026143102440983057,-0.07568854830394903,0.18161903422200565,0.01054213412046647
0.2666740417480469,-0.016863569617271423,-0.002745106816291809,-0.0018764734268188477,-0.006245998665690422,-0.0108200553804636,0.007170978933572769,-0.0758617266000652,0.18133847367362482,0.010594490040701628
0.27660226821899414,-0.015252366662025452,0.002565234899520874,-0.0021175146102905273,0.006982987746596336,-0.014520252123475075,0.010192069225013256,-0.07593795694183593,0.1810347414806211,0.010663733777955117
0.28656625747680664,-0.012636542320251465,0.001247219741344452,-0.0035331249237060547,0.012276086956262589,-0.019800590351223946,0.013552232645452023,-0.07591312242782058,0.18068544767851447,0.010748663977851012
0.2993581295013428,-0.0115184485912323,0.0019607767462730408,-0.0017794966697692871,0.00742593826726079,-0.019816303625702858,0.012729315087199211,-0.07577901311937958,0.18032152125648196,0.010840827346512948
0.3066272735595703,-0.01551482081413269,-0.0027646198868751526,0.0018198490142822266,-0.005646088160574436,-0.012915873900055885,0.011373341083526611,-0.07569765565080859,0.18002340997790417,0.010934580993064965
0.3171529769897461,-0.017847880721092224,-0.004863269627094269,0.005450904369354248,-0.011497851461172104,-0.009250566363334656,0.008926961570978165,-0.075690572151404,0.17977289487336884,0.011035850513237666
0.3264150619506836,-0.016959980130195618,-0.0015735477209091187,0.008373260498046875,-0.011024923995137215,-0.008549844846129417,0.009345237165689468,-0.07566615256555181,0.1795674153961471,0.011133263462780842
0.33651304244995117,-0.015613868832588196,0.0002825409173965454,0.01056206226348877,-0.013852668926119804,-0.00778338685631752,0.004907345399260521,-0.07565636347782781,0.1793617018595211,0.011208312766049252
0.34873008728027344,-0.013203203678131104,-0.0015881285071372986,0.010574579238891602,-0.008562233299016953,-0.0043001496233046055,0.0012774565257132053,-0.07572668502832118,0.17917625658251374,0.01124318052945581
0.35665321350097656,-0.015303283929824829,-0.0007636323571205139,0.01248234510421753,0.0067208497785031796,0.003330872394144535,0.00020952895283699036,-0.07578737306372858,0.17906249321780454,0.011246035265726227
0.3667330741882324,-0.018369272351264954,0.0014702752232551575,0.011900484561920166,0.0167183056473732,0.007505332585424185,0.0019883608911186457,-0.07568942222545665,0.17902902214620547,0.011235008230306912
0.37671995162963867,-0.015005171298980713,0.004558145999908447,0.006393015384674072,0.020229417830705643,0.005334057379513979,-0.00234779785387218,-0.07553079008560787,0.17900398797310935,0.01118925888378523
0.3867330551147461,-0.01334439218044281,0.002827577292919159,0.008665382862091064,0.015019675716757774,0.004024847410619259,-0.004959932994097471,-0.0753228911297527,0.17892584653350338,0.011117787767867785
0.3985440731048584,-0.01740892231464386,-0.001661740243434906,0.012438833713531494,0.005991293583065271,0.014478286728262901,-0.005605749785900116,-0.07515782347881414,0.17888274947155702,0.011028767801658373
0.40677404403686523,-0.018804922699928284,-0.0014410167932510376,0.01009523868560791,-0.002962537342682481,0.01920233480632305,-0.005524416454136372,-0.07515069630174642,0.17893688277953076,0.010963109772141183
0.4167771339416504,-0.0158175528049469,0.0017662793397903442,0.004880189895629883,-0.0010253539076074958,0.012164666317403316,-0.009265892207622528,-0.07522425039665052,0.178972434258126,0.010883985130821023
0.42679405212402344,-0.01251840591430664,0.0023479312658309937,0.0010477900505065918,0.01161916833370924,0.013649823144078255,-0.008243930526077747,-0.07519182418630627,0.1789997713750744,0.010778777378162298
0.43687009811401367,-0.01376374065876007,0.005651496350765228,-0.0023064613342285156,0.019560981541872025,0.015610974282026291,-0.0034289350733160973,-0.0750617174640023,0.17903866088172976,0.010678142041591723
0.44788599014282227,-0.015362843871116638,0.007498949766159058,-0.0030938386917114258,0.012891160324215889,0.010501344688236713,-0.005335172172635794,-0.07495346628937462,0.17904961103828515,0.010599606595719558
0.45686817169189453,-0.01407720148563385,0.00041481852531433105,-0.0011981725692749023,0.0006499409209936857,0.0067777130752801895,-0.0073237549513578415,-0.0749881289880864,0.17901499763226816,0.010516302276202594
0.46688318252563477,-0.015295624732971191,-0.0044561997056007385,0.002627730369567871,-0.005579974967986345,0.00976378284394741,-0.010751348920166492,-0.0750834051338578,0.17899840025628475,0.01041443644100606
0.47692108154296875,-0.016837358474731445,-0.0009913966059684753,0.0032381415367126465,-0.011718029156327248,0.005105114541947842,-0.011962022632360458,-0.07518947057545818,0.17895382079958502,0.010313987921711107
0.48687124252319336,-0.0160941481590271,0.0003694891929626465,0.004594206809997559,-0.004929514601826668,0.0009599486365914345,-0.013670439831912518,-0.07529372082177586,0.17883540069282652,0.010190513206118152
0.4991121292114258,-0.013977393507957458,-0.0003565177321434021,0.0038331151008605957,0.005081839859485626,0.0022190911695361137,-0.014245683327317238,-0.0753484995707944,0.17871604654482942,0.010042650584463016
0.5069820880889893,-0.01702837646007538,0.0020379573106765747,-0.000488579273223877,0.015559264458715916,0.00839882344007492,-0.012424187734723091,-0.07530375359813794,0.1786679915649645,0.009882847326503913
0.5172872543334961,-0.0172090083360672,-0.0005572214722633362,-0.005512654781341553,0.02512773685157299,0.008326917886734009,-0.012239097617566586,-0.07519782420874667,0.17864848413309722,0.00972290578277351
0.5269732475280762,-0.015438541769981384,-0.0011883527040481567,-0.0021028518676757812,0.03017282858490944,0.0038878726772964,-0.011648462153971195,-0.0750503410754188,0.17858381783670418,0.00954489929267863
0.5371570587158203,-0.014016613364219666,-0.002745792269706726,0.002765834331512451,0.020413143560290337,0.00263805128633976,-0.011598394252359867,-0.0748218565544093,0.17850006412902056,0.009374606786164367
0.5488231182098389,-0.013388261198997498,-0.006996162235736847,0.003345012664794922,0.017179865390062332,0.004301195032894611,-0.01216820441186428,-0.07461608708718319,0.17841675901958823,0.00921340741445284
0.5570812225341797,-0.013787686824798584,-0.009132184088230133,0.0029449462890625,0.024037238210439682,0.005972594954073429,-0.011064590886235237,-0.07443227144703814,0.17833927721736229,0.009038530688595729
0.5672421455383301,-0.01347506046295166,-0.0038566365838050842,0.001269221305847168,0.035043515264987946,0.0007187994197010994,-0.008696241304278374,-0.07419145669663176,0.17825073312745668,0.008884530567195941
0.577080249786377,-0.010499700903892517,-0.0011678338050842285,0.0008350610733032227,0.04101512208580971,-0.012586886063218117,-0.006770243402570486,-0.07383626924929344,0.1780906190565229,0.008737319000341076
0.5869901180267334,-0.010158821940422058,-0.0005641356110572815,0.0023115873336791992,0.03212249279022217,-0.018033582717180252,-0.00846145674586296,-0.07353693436527813,0.17780154631472206,0.008585201193288948
0.5986001491546631,-0.013065770268440247,-0.004997961223125458,0.004603087902069092,0.008929558098316193,-0.011721359565854073,-0.010765091516077518,-0.07336213595285293,0.17751179994892644,0.008448851228956783
0.6069979667663574,-0.017467916011810303,-0.009878933429718018,0.005611717700958252,-0.008502578362822533,-0.003963525872677565,-0.010242046788334846,-0.073390900362924,0.17731785887366847,0.00833711798548624
0.616879940032959,-0.0184565931558609,-0.007212229073047638,0.00629955530166626,-0.004296647850424051,-0.0031821546144783497,-0.0072933947667479515,-0.07347098903457691,0.17719137291023412,0.008258559079705621
0.6269350051879883,-0.014926165342330933,0.000867702066898346,0.0051882266998291016,0.012254098430275917,-0.009917555376887321,-0.005661142989993095,-0.07337112468498343,0.17704439194054822,0.008182964635248454
0.6369080543518066,-0.009285390377044678,0.006965316832065582,0.0024691224098205566,0.0315372496843338,-0.01123715192079544,-0.0030323369428515434,-0.07305575408330438,0.17684329515869138,0.008094234578412287
0.648015022277832,-0.008856549859046936,0.008980698883533478,-0.00044614076614379883,0.03609897941350937,-0.008392894640564919,0.0021499083377420902,-0.07268735079758046,0.1766503699459031,0.008023587865661123
0.6570429801940918,-0.012042015790939331,0.007241792976856232,0.002271413803100586,0.029734555631875992,-0.0066091096960008144,0.004917198792099953,-0.07235016319701983,0.1765180015026926,0.007995959125699668
0.6674952507019043,-0.013336941599845886,0.005625098943710327,0.006291389465332031,0.021460015326738358,-0.006132049020379782,0.004044374451041222,-0.07210463765872227,0.176403931259518,0.007993261265553149
0.6771471500396729,-0.010072410106658936,0.004943720996379852,0.008713245391845703,0.01768365316092968,-0.007271882612258196,0.0008067695889621973,-0.07186989039088533,0.17626190646221304,0.007976183979956369
0.6878452301025391,-0.009298369288444519,0.007802851498126984,0.006251156330108643,0.02685321681201458,-0.010890141129493713,0.0034078790340572596,-0.07154287863510084,0.1760755226382686,0.007955572430913634
0.6980042457580566,-0.008257299661636353,0.011849410831928253,0.00580209493637085,0.0325438566505909,-0.018189866095781326,-0.004155764821916819,-0.07118804830711474,0.17581887081687064,0.00789558868784365
0.7071220874786377,-0.008034050464630127,0.01125401258468628,0.010703980922698975,0.03316284343600273,-0.01572306826710701,-0.0035919202491641045,-0.0709129955964927,0.17555699826371138,0.007793126591988032
0.7171101570129395,-0.009168937802314758,0.0097508504986763,0.0103071928024292,0.02581091970205307,-0.012333930470049381,-0.00735762994736433,-0.07075255100407193,0.1753588616441695,0.007687500139574338
0.7271530628204346,-0.011640951037406921,0.005611486732959747,0.01122218370437622,0.018026867881417274,-0.006117313168942928,-0.014230823144316673,-0.07071090180479306,0.17520309467887452,0.007537546652270239
0.7371561527252197,-0.011658072471618652,0.005214206874370575,0.01063305139541626,0.011821435764431953,-0.0025697159580886364,-0.015909679234027863,-0.0707114528189944,0.1750807211880337,0.007367635274822484
0.7481551170349121,-0.010933443903923035,0.005527287721633911,0.011354029178619385,0.005143043119460344,-0.0058175744488835335,-0.02253573015332222,-0.07076471537683893,0.17494950082619823,0.0071537431823980495
0.7576022148132324,-0.010202750563621521,0.0030400827527046204,0.0159529447555542,-0.007517358288168907,0.002107460517436266,-0.023964250460267067,-0.07090240953702998,0.1748597697515235,0.006920781482038776
0.7684569358825684,-0.012372255325317383,0.000413261353969574,0.01647794246673584,-0.019680649042129517,0.013849337585270405,-0.02582649327814579,-0.07119538422921444,0.17488181080984375,0.0066978309405796195
0.7771730422973633,-0.014429107308387756,-0.001707121729850769,0.016807377338409424,-0.02402852475643158,0.02305988036096096,-0.02666166052222252,-0.07162312816542751,0.17500835483846558,0.006471712160312018
0.7872109413146973,-0.013871163129806519,-0.003247655928134918,0.016383111476898193,-0.006868179887533188,0.025948520749807358,-0.024310247972607613,-0.07195908534360161,0.1752058150529621,0.0062444576694240354
0.7980921268463135,-0.011379241943359375,0.0019609034061431885,0.015942394733428955,0.010550226084887981,0.025628143921494484,-0.02249929867684841,-0.07209144143744564,0.17540465899824023,0.006004071714800723
0.8072490692138672,-0.009661391377449036,0.0030200257897377014,0.010694801807403564,0.024361329153180122,0.027068335562944412,-0.016216423362493515,-0.07199337091650641,0.17561188229922237,0.005776601788448589
0.8172702789306641,-0.007937610149383545,0.0016158521175384521,0.004887044429779053,0.027805063873529434,0.030212730169296265,-0.012330870144069195,-0.07181015969498634,0.17582754521154256,0.005588557049054924
0.8276982307434082,-0.008690163493156433,-0.0023650601506233215,0.005042076110839844,0.023945743218064308,0.02795809879899025,-0.00945710577070713,-0.0716249434931751,0.17606322083154524,0.005432884040906654
0.8374252319335938,-0.008297652006149292,-0.005071774125099182,0.006025373935699463,0.013973535969853401,0.020222947001457214,-0.01018201932311058,-0.07149318849283066,0.17625228348140892,0.005304002039917099
0.848750114440918,-0.007341146469116211,-0.004399709403514862,0.007946252822875977,0.007989945821464062,0.01649017259478569,-0.004931383766233921,-0.07141601794069974,0.17638048992704883,0.005203131098467331
0.8574252128601074,-0.007868453860282898,-0.004073433578014374,0.0048558712005615234,-0.0028946599923074245,0.009214948862791061,-0.0052821217104792595,-0.07139485537091252,0.17643548848390653,0.005148919989374289
0.8677091598510742,-0.007896408438682556,-0.004410937428474426,0.0061928629875183105,-0.007170847617089748,0.007186019793152809,-0.0038011916913092136,-0.07144257415548722,0.17644904173331474,0.005112124816966671
0.8774042129516602,-0.00869305431842804,-0.004235252737998962,0.00420147180557251,-0.003927117679268122,0.002943870611488819,-0.001763873384334147,-0.07154179476865292,0.17645355346264482,0.005095947873401376
0.8874111175537109,-0.010071724653244019,-0.0001920834183692932,0.006018877029418945,-0.0033779903315007687,-0.0009101228788495064,-0.0010415175929665565,-0.07161870011575909,0.1764134035448541,0.0050793212304292715
0.8981919288635254,-0.00958186388015747,-0.00028421729803085327,0.006149232387542725,-0.007335181348025799,-0.005260928999632597,-0.00027426087763160467,-0.07169577119037797,0.17633508965788508,0.005068154758746042
0.907473087310791,-0.009572356939315796,-0.001912236213684082,0.006318926811218262,-0.014451131224632263,-0.011658774688839912,-0.003037663409486413,-0.07178287893987373,0.17620219886033964,0.005064353238344799
0.917572021484375,-0.010020866990089417,-0.003716766834259033,0.008615255355834961,-0.030277764424681664,-0.018845314159989357,-0.007294726558029652,-0.07193985905736204,0.1760083271232543,0.005043233410297843
0.9273791313171387,-0.0105399489402771,-0.0023902803659439087,0.0106736421585083,-0.051751915365457535,-0.016517577692866325,-0.012696575373411179,-0.07230805641823983,0.1757802595698584,0.00501843440956929
0.9374141693115234,-0.01148340106010437,-0.0037491321563720703,0.00662994384765625,-0.07351446896791458,-0.00558290584012866,-0.009844331070780754,-0.07289024044144858,0.17562977032160904,0.005016061770078077
0.9492011070251465,-0.013585463166236877,-0.002721920609474182,0.0013085007667541504,-0.09712362289428711,-0.004433751571923494,-0.012158030644059181,-0.07368095408448704,0.1755431168912585,0.005060554819323937
0.9575061798095703,-0.012539029121398926,-0.002832658588886261,0.0015178918838500977,-0.10542096942663193,-0.009836772456765175,-0.01811445690691471,-0.07461824759973071,0.1754376918921066,0.0050991662985578395
0.9675369262695312,-0.00810268521308899,-0.0029048919677734375,0.005061030387878418,-0.10801874846220016,-0.023075789213180542,-0.028346482664346695,-0.0757006027951777,0.17522304266852698,0.0050512665416788125
0.9774191379547119,-0.008138075470924377,0.005737043917179108,0.005864977836608887,-0.11166701465845108,-0.03179977089166641,-0.029927067458629608,-0.07675104813660424,0.1748847596301012,0.004952559013155889
0.9873900413513184,-0.007838070392608643,0.003496028482913971,0.004896640777587891,-0.11642459779977798,-0.02922232262790203,-0.03358220309019089,-0.07788155630834862,0.1745169596051458,0.004833278165637004
0.998723030090332,-0.010291323065757751,0.0007429048418998718,0.0027412772178649902,-0.08350366353988647,-0.02259611152112484,-0.028043093159794807,-0.07880647084333432,0.1742154527029425,0.004700256693610453
1.007554054260254,-0.013048633933067322,0.00752190500497818,-0.001587986946105957,-0.04303354024887085,-0.02514200285077095,-0.021863281726837158,-0.07939931472438995,0.17392382025294315,0.004563699744065753
1.0177080631256104,-0.01280088722705841,0.01528409868478775,-0.00047510862350463867,0.011732501909136772,-0.019645771011710167,-0.007814042270183563,-0.0794497802684239,0.17364111000846866,0.0044381527127239
1.0275592803955078,-0.009378492832183838,0.011749617755413055,-0.0051070451736450195,0.04188064858317375,-0.025085633620619774,-0.007870128378272057,-0.07909214679279454,0.17332082743172217,0.004322310893623949
1.0378260612487793,-0.011330142617225647,0.005950570106506348,-4.4286251068115234e-05,0.049783047288656235,-0.016254592686891556,-0.0008529656333848834,-0.07855713217333068,0.17304776897902885,0.0041831277510576805
1.0498099327087402,-0.015575200319290161,7.75754451751709e-05,0.0027430057525634766,0.031109163537621498,-0.00031131133437156677,0.004275110550224781,-0.07808100689456317,0.1729356316347513,0.004131404696295668
1.0577621459960938,-0.016561657190322876,-0.00728374719619751,0.008200228214263916,0.009527705609798431,0.00427252147346735,0.0028135678730905056,-0.07793456432299026,0.17294372795015225,0.004131000872728193
1.0676212310791016,-0.014192655682563782,-0.013295330107212067,0.016397833824157715,-0.007511915173381567,-0.00453796936199069,-0.0033437139354646206,-0.0779647864383334,0.17290909268486968,0.004133836881079856
1.0775771141052246,-0.011711284518241882,-0.009244062006473541,0.018635571002960205,-0.026967637240886688,0.0018552150577306747,-0.006260141730308533,-0.07818666389097949,0.1728403662591842,0.004108513331267876
1.0875849723815918,-0.009105876088142395,-0.0037032365798950195,0.007920384407043457,-0.029542680829763412,-0.0010965443216264248,-0.001642752904444933,-0.07858271683880547,0.17277200845293814,0.004117883860665297
1.0982260704040527,-0.0044784992933273315,-0.0017080381512641907,0.0036658644676208496,-0.016311565414071083,-0.010390710085630417,-0.011281531304121017,-0.07901500563953676,0.17264961900320902,0.004086417815587844
1.1075921058654785,-0.0019091963768005371,-0.00018551945686340332,0.0038644075393676758,0.0012237189803272486,-0.016241498291492462,-0.004783258773386478,-0.07923268481467698,0.1724602680022357,0.004014435343170936
1.1175951957702637,-0.0031077414751052856,0.005163364112377167,0.004422664642333984,0.0009744467679411173,-0.02158140204846859,-0.011937041766941547,-0.07928557274368468,0.17220538067672173,0.003930845312954773
1.1276061534881592,-0.003144979476928711,0.0025971010327339172,0.007282078266143799,-0.004394502379000187,-0.024448249489068985,-0.017299102619290352,-0.07931898062200526,0.1718864351786141,0.003771005289222385
1.1378991603851318,-0.0031600743532180786,-0.00045290589332580566,0.006301820278167725,-0.020648308098316193,-0.02694203518331051,-0.019468247890472412,-0.07936314288099207,0.17152956624681287,0.0036125363176075136
1.1492609977722168,-0.001875758171081543,0.0020571425557136536,0.0010514259338378906,-0.03682619333267212,-0.025765404105186462,-0.02074858918786049,-0.07953919998257027,0.17118757962800982,0.003466830772480682
1.1577510833740234,-0.002589702606201172,-0.0006315335631370544,-0.0004715919494628906,-0.031141411513090134,-0.031181475147604942,-0.02152916230261326,-0.07981787430902133,0.17086194447394423,0.003302903029409185
1.1677641868591309,-0.0037200897932052612,-0.0014901384711265564,0.002450406551361084,-0.029754936695098877,-0.046899985522031784,-0.02657500095665455,-0.08009753219171056,0.17041659215233657,0.0031199952469714593
1.1776561737060547,-0.004632845520973206,-0.004046358168125153,0.01110774278640747,-0.04764844849705696,-0.04487305134534836,-0.04085433855652809,-0.0805035716702907,0.1699223356966324,0.0028488036419978334
1.1877360343933105,-0.009700387716293335,-0.018043152987957,0.016806423664093018,-0.07404565066099167,-0.03787795081734657,-0.04609527811408043,-0.08112042082970715,0.16949766928532808,0.002507387728798198
1.1986680030822754,-0.009191825985908508,-0.013951152563095093,0.019448041915893555,-0.10376759618520737,-0.039630044251680374,-0.056316226720809937,-0.08214352315501865,0.16908750244924453,0.0021739408254535207
1.2077691555023193,-0.009332254528999329,-0.0115228071808815,0.02142578363418579,-0.10922490805387497,-0.042272429913282394,-0.07006314396858215,-0.08328966067145903,0.16865644211349337,0.001716080258759518
1.2177801132202148,-0.009365290403366089,-0.0239153653383255,0.024892151355743408,-0.11944559216499329,-0.05602339655160904,-0.07204294204711914,-0.08450179002725935,0.16813269708040854,0.0011988944593508972
1.2277212142944336,-0.0003453493118286133,-0.0044752806425094604,0.014711201190948486,-0.1276412308216095,-0.06335854530334473,-0.06976731866598129,-0.08580311258185266,0.16749711949086735,0.0007036622561845792
1.2379300594329834,0.0024369806051254272,0.0014102011919021606,-0.0021966099739074707,-0.1597709357738495,-0.056653767824172974,-0.07236336171627045,-0.08726257165323356,0.16684526821811993,0.00024291509736365443
1.2490119934082031,-0.0010270625352859497,-0.005687519907951355,-0.012916803359985352,-0.17375624179840088,-0.048315275460481644,-0.07567085325717926,-0.08893464033847759,0.16629566193806417,-0.00022051110996615131
1.2579090595245361,-0.0035200566053390503,-0.00026300549507141113,-0.009465277194976807,-0.18015502393245697,-0.061749327927827835,-0.07864373922348022,-0.09065819283103937,0.16572175757076263,-0.0006750191142839227
1.2692911624908447,-0.002796456217765808,0.00731775164604187,0.005506396293640137,-0.19742842018604279,-0.0730968788266182,-0.08848129957914352,-0.09231593663885504,0.16497936305999591,-0.0012003613123036585
1.277909278869629,-0.003953799605369568,0.0032583102583885193,0.011199235916137695,-0.2282598316669464,-0.08089647442102432,-0.09371095150709152,-0.09429352513490337,0.16413775623553195,-0.0017665927461713628
1.2879490852355957,-0.005830645561218262,0.0015160143375396729,0.012181997299194336,-0.2626797556877136,-0.09214504808187485,-0.10154964029788971,-0.09661093819286064,0.1632266810033057,-0.0023264072649664923
1.2992210388183594,-0.010013237595558167,-0.008644461631774902,0.01978480815887451,-0.3225473463535309,-0.10114306956529617,-0.12795329093933105,-0.09926154054381839,0.16218355004206406,-0.002993720387018107
1.3078889846801758,-0.01618121564388275,-0.023567408323287964,0.029856860637664795,-0.3819667398929596,-0.10226240009069443,-0.1366138905286789,-0.10278889863646258,0.16112650040493853,-0.0037545518248389754
1.318202018737793,-0.012804880738258362,-0.024133212864398956,0.03517758846282959,-0.4073048532009125,-0.11635158956050873,-0.14068612456321716,-0.10679464212485851,0.15999369588559165,-0.004479502722318015
1.3283541202545166,-0.006168633699417114,-0.012403391301631927,0.03144431114196777,-0.40793362259864807,-0.12505079805850983,-0.13876119256019592,-0.11088185897027336,0.158729826877302,-0.005222670702570135
1.3381290435791016,-0.0031652748584747314,0.0016709566116333008,0.014115452766418457,-0.40999943017959595,-0.13800334930419922,-0.12442433089017868,-0.11497629568254633,0.15734476089419394,-0.0058824043086073904
1.3491871356964111,0.0038420259952545166,0.0015473216772079468,-0.0008873939514160156,-0.4221716821193695,-0.15024350583553314,-0.1222115084528923,-0.11927981737907224,0.1558345812508372,-0.006458400877979408
1.3579440116882324,0.007735326886177063,-0.006663456559181213,-0.0033118128776550293,-0.42324134707450867,-0.16334408521652222,-0.1119314432144165,-0.12364703957056906,0.15420407695991056,-0.006967128375110451
1.367969036102295,0.004519373178482056,-0.010274812579154968,0.010006189346313477,-0.4265137016773224,-0.1705654114484787,-0.1086374819278717,-0.12801004992951107,0.1524647664287767,-0.007410810005814109
1.3778400421142578,0.0012501180171966553,-0.012080416083335876,0.01968139410018921,-0.43484461307525635,-0.17453858256340027,-0.10190927237272263,-0.132431831212231,0.1507046479390999,-0.007795968668884281
1.3880400657653809,-0.00045587122440338135,-0.009096652269363403,0.024545788764953613,-0.4384419620037079,-0.18374300003051758,-0.09286726266145706,-0.13690434008498925,0.14887759849121357,-0.008102976662195666
1.3985581398010254,0.0027036964893341064,-0.011580556631088257,0.023509502410888672,-0.4337548017501831,-0.20777803659439087,-0.09523560851812363,-0.14135385868263614,0.1468820005179129,-0.008377014136732856
1.407979965209961,0.007712259888648987,-0.016962692141532898,0.030852198600769043,-0.4120708405971527,-0.26062530279159546,-0.12006841599941254,-0.14571270221262952,0.14447745966462172,-0.008831763642970752
1.418020248413086,0.013404682278633118,-0.013529270887374878,0.044169723987579346,-0.38253000378608704,-0.3311665952205658,-0.13105101883411407,-0.14984692641400202,0.14141677576556347,-0.00951149895723119
1.427955150604248,0.025861337780952454,0.010188743472099304,0.04592651128768921,-0.3704717457294464,-0.4064859449863434,-0.16307292878627777,-0.15374639504950538,0.1375979943598164,-0.010469808637074097
1.438063144683838,0.03682167828083038,0.021249353885650635,0.025349736213684082,-0.42861253023147583,-0.47118955850601196,-0.1830144077539444,-0.1579033749677208,0.1329745467113119,-0.011681248748945433
1.4495792388916016,0.04135161638259888,-0.00042447447776794434,-0.006683647632598877,-0.5605477094650269,-0.47744646668434143,-0.20706525444984436,-0.16302621252182473,0.1280029918995907,-0.0129824592959646
1.458158016204834,0.027548491954803467,-0.032874733209609985,-0.03560495376586914,-0.6977127194404602,-0.4624001383781433,-0.21392768621444702,-0.16955023247138193,0.12308217087377625,-0.014329345358491405
1.4681451320648193,0.020353995263576508,-0.0410100519657135,-0.04446226358413696,-0.8189180493354797,-0.4850926399230957,-0.2122844159603119,-0.17737576820883688,0.11813779023049807,-0.01553653145940672
1.478074073791504,0.02269185334444046,-0.02653464674949646,-0.024852871894836426,-0.9031202793121338,-0.5194772481918335,-0.21753163635730743,-0.18619325735461678,0.11290283760953126,-0.016700948948906964
1.4881591796875,0.01736251264810562,-0.019790902733802795,-0.006287336349487305,-0.9840902090072632,-0.5754216313362122,-0.24346773326396942,-0.19578298906580113,0.10720136680479249,-0.017953000246380562
1.4987502098083496,0.011225737631320953,-0.04135778546333313,0.008550465106964111,-1.1838572025299072,-0.6046860218048096,-0.285209596157074,-0.20676847190929135,0.10097150296637643,-0.019511709012180883
1.5081672668457031,0.006990686058998108,-0.07523451745510101,0.021783828735351562,-1.4919525384902954,-0.6308565735816956,-0.3302716016769409,-0.22035459429343085,0.0943972055379636,-0.02129794063381788
1.5183939933776855,0.0028986558318138123,-0.10043342411518097,0.04651576280593872,-1.8765590190887451,-0.6646267771720886,-0.3603528141975403,-0.2373920174498129,0.08747752567591237,-0.02327772926702875
1.5282831192016602,-0.0019284188747406006,-0.12617707252502441,0.06390875577926636,-2.441493511199951,-0.6908344030380249,-0.4211253523826599,-0.2591492441258814,0.08014222094273771,-0.025402256024679853
1.5383062362670898,-0.004718758165836334,-0.1518850326538086,0.07852315902709961,-3.1550545692443848,-0.6867704391479492,-0.48944368958473206,-0.28738596831873725,0.07251193704167934,-0.027931236328006034
1.5487189292907715,-0.008512217551469803,-0.1996898055076599,0.10005921125411987,-3.8844521045684814,-0.6788771748542786,-0.547947108745575,-0.32290193852857374,0.06482299962927666,-0.0308177927123927
1.5584681034088135,-0.019294023513793945,-0.2409263551235199,0.1187819242477417,-4.486329555511475,-0.6420097351074219,-0.5865000486373901,-0.36523401592702975,0.0571013505949996,-0.03417343829829428
1.5688061714172363,-0.018473144620656967,-0.19018271565437317,0.11256736516952515,-4.852917194366455,-0.6890175342559814,-0.5713284611701965,-0.41235641100838094,0.04914586609812551,-0.03772540532489134
1.5782651901245117,0.009585089981555939,-0.08257681131362915,0.07937705516815186,-4.998868942260742,-0.7700122594833374,-0.5456185936927795,-0.4619622952913333,0.0402184424210173,-0.04150998763545466
1.5883369445800781,0.02586951106786728,-0.053274720907211304,0.049884796142578125,-5.012125015258789,-0.785018801689148,-0.49180760979652405,-0.5123134603718966,0.030616850981649055,-0.0453531713948194
1.5987839698791504,0.028760476037859917,-0.04458296298980713,-0.01671886444091797,-4.935413360595703,-0.8063789010047913,-0.4327610731124878,-0.5621983140346346,0.02058179589024694,-0.04930226138703693
1.6082451343536377,0.03196323662996292,-0.007442831993103027,-0.06465351581573486,-4.867812633514404,-0.7778275609016418,-0.324999064207077,-0.611291443714582,0.010681895761701197,-0.052928442792681676
1.6183221340179443,0.04140182211995125,0.003502786159515381,-0.07549440860748291,-4.835753917694092,-0.7728216648101807,-0.2664010226726532,-0.6598884147897721,0.0009984519815813238,-0.05624188834366744
1.6282811164855957,0.03093511238694191,-0.043891072273254395,-0.058026254177093506,-4.898391246795654,-0.7615302801132202,-0.15070882439613342,-0.7085697429305221,-0.008668664115354371,-0.05925936615201408
1.6383540630340576,0.026656731963157654,-0.05295765399932861,-0.018347620964050293,-4.916045188903809,-0.7643992900848389,0.0016828430816531181,-0.7577601272417197,-0.0175198240893475,-0.061077836788645354
1.6484041213989258,0.02419794350862503,-0.02442920207977295,-0.017711520195007324,-4.79861307144165,-0.7556720972061157,0.0925283208489418,-0.8064902932182341,-0.025752452573411765,-0.06193763871248926
1.6583561897277832,0.0005224253982305527,-0.07539427280426025,-0.032007813453674316,-4.631115436553955,-0.7242556214332581,0.1721043884754181,-0.853663761813799,-0.033142012503149944,-0.06191643213106234
1.668370246887207,-0.024566221982240677,-0.1302204728126526,-0.039334654808044434,-4.4181599617004395,-0.6428846120834351,0.24190333485603333,-0.8991419036274347,-0.03944003084361494,-0.06122749875689241
1.678389072418213,-0.03737403452396393,-0.13598138093948364,-0.021499216556549072,-4.123891353607178,-0.5957229137420654,0.26230764389038086,-0.9419833734803841,-0.04457424495595346,-0.059974979600752217
1.6884100437164307,-0.02942262776196003,-0.11071246862411499,0.0031594038009643555,-3.790086507797241,-0.6026169657707214,0.2596586048603058,-0.9816781804510281,-0.04950032975069024,-0.058672289057793287
1.6986100673675537,-0.010173570364713669,-0.09089833498001099,-0.0037626028060913086,-3.5948479175567627,-0.6401156187057495,0.281272292137146,-1.0185838319088714,-0.05445817385570841,-0.05717282642019847
1.708390235900879,0.009368257597088814,-0.06417185068130493,-0.04652804136276245,-3.582019329071045,-0.5220246911048889,0.24027059972286224,-1.054653357844625,-0.05948829000577018,-0.05612561124641483
1.718839168548584,0.003919314593076706,-0.07526957988739014,-0.04539567232131958,-3.4778478145599365,-0.4156004786491394,0.24273136258125305,-1.0903263501773977,-0.06375458908011604,-0.05570098715117193
1.7283611297607422,-0.011602215468883514,-0.03872472047805786,-0.00044342875480651855,-3.3162553310394287,-0.485446572303772,0.18285971879959106,-1.1241465800296144,-0.06835996228169676,-0.05582041437095124
1.7383720874786377,-0.006152840331196785,0.04916459321975708,0.01944151520729065,-3.2987256050109863,-0.4620523154735565,0.14298605918884277,-1.157308627548634,-0.07479650056588105,-0.0575846712935319
1.748246192932129,0.015122631564736366,0.02768462896347046,0.013319045305252075,-3.259404420852661,-0.37639373540878296,0.12103049457073212,-1.1902494009422822,-0.0821346887279121,-0.06103355410843907
1.758228063583374,0.010437900200486183,0.013200700283050537,0.025105327367782593,-3.105512857437134,-0.3560304045677185,0.13198566436767578,-1.2220513378015117,-0.08947242433722292,-0.06499653419473743
1.7683162689208984,0.005442088469862938,0.09215611219406128,0.02029159665107727,-2.9670827388763428,-0.3510916531085968,0.07547120749950409,-1.2523214038845096,-0.0986292159059458,-0.07082259061385997
1.7782440185546875,0.01913662627339363,0.08205550909042358,-0.006159067153930664,-2.877140998840332,-0.2633407711982727,0.23650988936424255,-1.2814346317716183,-0.10538856339909122,-0.07492918356785817
1.7884292602539062,0.0441918671131134,0.07364505529403687,-0.011378496885299683,-2.7062931060791016,-0.2833494544029236,-0.001969788921996951,-1.3092733133793515,-0.11564340836682546,-0.08249534300821396
1.7982611656188965,-0.02202087640762329,0.05029195547103882,0.04121001064777374,-2.569411516189575,-0.2024327665567398,0.08533954620361328,-1.3355588771971658,-0.12905607262668725,-0.09382842880330158
1.8083031177520752,-0.04152084141969681,0.09126609563827515,0.019945234060287476,-2.5174195766448975,-0.1484985500574112,0.004789633210748434,-1.3608378988937235,-0.14376131631618846,-0.10719449778032698
1.8183350563049316,-0.037450652569532394,0.021361351013183594,0.037946999073028564,-2.5610575675964355,-0.14405587315559387,-0.05616533011198044,-1.385826235054449,-0.1663336477274618,-0.12870653969052404
1.8284611701965332,-0.028923336416482925,-0.013276815414428711,0.061333492398262024,-2.5675365924835205,-0.1597082018852234,-0.08825232088565826,-1.411005973531607,-0.19861474430002718,-0.15993689272589803
1.8383851051330566,-0.026879355311393738,-0.010636448860168457,0.05043840408325195,-2.4189865589141846,-0.15914520621299744,-0.09260872006416321,-1.4352724386495406,-0.24344996149289472,-0.2036308028114034
1.8496241569519043,-0.0298042893409729,0.0024322867393493652,0.005489349365234375,-2.2428460121154785,-0.2075682282447815,-0.09965799748897552,-1.4574689371888119,-0.30248334572149893,-0.26132964230012645
1.8588111400604248,-0.007818188518285751,0.013180077075958252,-0.011951975524425507,-2.1436281204223633,-0.23580704629421234,-0.09674343466758728,-1.4778685664903055,-0.3865428428209108,-0.3435339126863804
1.8688302040100098,0.001633971929550171,-0.023375391960144043,-0.018653519451618195,-2.048825979232788,-0.2951054871082306,-0.10701961070299149,-1.4964470526981948,-0.5079988198824851,-0.46270566189214624
1.8788199424743652,-0.01987704634666443,-0.02945268154144287,-0.04457736015319824,-1.942745566368103,-0.2454250007867813,-0.11759582161903381,-1.512382014120254,-0.6967175348290294,-0.6491339359033481
1.8889069557189941,-0.04641176760196686,-0.02252882719039917,-0.042469024658203125,-1.7770507335662842,-0.2310570776462555,-0.1175292432308197,-1.5240651985339504,-0.9763155269378435,-0.9267257505482833
1.8997411727905273,-0.04625370725989342,-0.03862375020980835,-0.003290175460278988,-1.6611089706420898,-0.2289462685585022,-0.11048039048910141,-1.5299182150134236,-1.352376413302963,-1.3008557858015108
1.9087910652160645,-0.03420383483171463,-0.02155369520187378,0.038668274879455566,-1.5950273275375366,-0.2964901030063629,-0.1557399034500122,-1.5289204330450257,-1.7506669488756688,-1.6968310614521336
1.9189891815185547,-0.0214015394449234,-0.0401691198348999,0.02441871538758278,-1.5866426229476929,-0.3026433289051056,-0.20291008055210114,-1.5218585145388919,-2.07099440860878,-2.014421861920881
1.9290270805358887,-0.03240242972970009,-0.05922591686248779,0.0010930299758911133,-1.6613649129867554,-0.28138497471809387,-0.24657443165779114,-1.5106359025310592,-2.293511960484303,-2.234373648542579
1.9392471313476562,-0.04385122284293175,-0.032841265201568604,0.024744875729084015,-1.7890740633010864,-0.29248183965682983,-0.2564222514629364,-1.4965198736651946,-2.4475043556700955,-2.385833775667835
1.9497489929199219,-0.029479626566171646,-0.03493821620941162,0.04005097597837448,-1.968947172164917,-0.31112557649612427,-0.2868800461292267,-1.4797766548954363,-2.559894889287682,-2.495603594569805
1.9595811367034912,-0.02143813669681549,-0.05439114570617676,0.03565584868192673,-2.1388444900512695,-0.2671317458152771,-0.2955784499645233,-1.460473944682523,-2.6430573074081543,-2.5762809304542382
1.9687800407409668,-0.020955119282007217,-0.008964359760284424,0.009884707629680634,-2.0411319732666016,-0.2783898115158081,-0.22881928086280823,-1.440501830128304,-2.704726208149688,-2.6356983293533776
1.978985071182251,0.007040712982416153,0.048620641231536865,-0.05745387077331543,-1.8039429187774658,-0.3038232624530792,-0.2539893388748169,-1.4218729323169679,-2.747977089891675,-2.676352706498466
1.9900181293487549,0.012908566743135452,0.07455188035964966,-0.09100767970085144,-1.541121244430542,-0.2562412619590759,-0.2566303312778473,-1.4053583754655783,-2.774364723671584,-2.7002503518370977
1.9988842010498047,-0.013295415788888931,0.10829704999923706,-0.03209127485752106,-1.368357539176941,-0.2579323947429657,-0.16798539459705353,-1.3910064480275859,-2.7946679952861655,-2.7182913764956442
2.00883412361145,-0.005125880241394043,0.10262221097946167,0.038046255707740784,-1.2673531770706177,-0.2621808350086212,-0.17026372253894806,-1.3780634873874122,-2.8123203309599476,-2.733569874629072
2.0189120769500732,-0.009987138211727142,0.012476682662963867,0.0360250324010849,-1.2207750082015991,-0.22449150681495667,-0.18446555733680725,-1.3656908352289931,-2.825638137922883,-2.744639020278604
2.0288872718811035,-0.028969481587409973,-0.002569437026977539,0.018081292510032654,-1.1182289123535156,-0.19748499989509583,-0.13328945636749268,-1.3540348478368018,-2.8374930009926294,-2.75462419114763
2.0389561653137207,-0.015022709965705872,0.03259384632110596,0.005982875823974609,-1.045678734779358,-0.15777140855789185,-0.13707301020622253,-1.343335912544067,-2.8476737807719728,-2.7632284953240145
2.049384117126465,-0.015350699424743652,0.00811678171157837,0.01042221486568451,-1.0204570293426514,-0.13982704281806946,-0.10486655682325363,-1.3330830246019383,-2.856592257398519,-2.770828423737342
2.05892014503479,-0.007046744227409363,-0.0038492679595947266,0.008276492357254028,-1.0636167526245117,-0.11723864078521729,-0.06627681851387024,-1.3228794448323462,-2.8661883140776987,-2.7794202707044318
2.068969249725342,0.0073838382959365845,0.00381314754486084,0.002032250165939331,-1.12490713596344,-0.11585157364606857,-0.09609969705343246,-1.3121512693993858,-2.8756209858588573,-2.7879379335475223
2.078835964202881,0.0016777664422988892,-0.026142656803131104,0.04962620139122009,-1.1290826797485352,-0.1593063771724701,-0.036459535360336304,-1.3009449302484695,-2.8853542712943647,-2.796636357151576
2.089108943939209,0.014145880937576294,0.01580655574798584,0.06448826193809509,-0.9156069755554199,-0.19223827123641968,-0.02146386168897152,-1.2908721752723293,-2.8954416736623463,-2.8052399509577803
2.0989830493927,0.0019241124391555786,0.05531656742095947,0.001688927412033081,-0.6559796929359436,-0.16971884667873383,-0.012413641437888145,-1.2832237342160122,-2.903046222159301,-2.8112545906511577
2.108920097351074,-0.02228253334760666,0.057912588119506836,-0.02362525463104248,-0.34569063782691956,-0.19570335745811462,0.022274883463978767,-1.2783081694276708,-2.908943364014715,-2.8155586289772057
2.1189589500427246,-0.00995614379644394,0.07745260000228882,0.0018484294414520264,0.008164400234818459,-0.2364284098148346,0.0629219114780426,-1.276747085999269,-2.913850795077646,-2.8183799827163485
2.128951072692871,-0.0032236576080322266,0.07065528631210327,-0.03570568561553955,0.2812596261501312,-0.19966381788253784,0.10331300646066666,-1.27840850573926,-2.9175578616898905,-2.8199187487696378
2.138852119445801,-0.00902477279305458,0.06989198923110962,-0.08807635307312012,0.3823191225528717,-0.16910111904144287,0.13844357430934906,-1.282085028515208,-2.921013882502584,-2.821625872619843
2.1491551399230957,-0.013756606727838516,0.029992282390594482,-0.04153907299041748,0.1617945432662964,-0.14847902953624725,0.10702764242887497,-1.2852567518389333,-2.924425998570661,-2.823518022555928
2.159018039703369,-0.03151390701532364,-0.09030371904373169,0.04988011717796326,-0.20103798806667328,-0.1124027818441391,0.08274228125810623,-1.285186920939486,-2.9291203337375658,-2.8270698708759743
2.1690261363983154,-0.025769222527742386,-0.11116284132003784,0.06902983784675598,-0.3142291009426117,-0.12749513983726501,0.08032151311635971,-1.282654541779768,-2.9348896947436467,-2.8318368025579357
2.179051160812378,-0.01645508036017418,-0.010772705078125,0.024187088012695312,-0.316487193107605,-0.10556215047836304,0.057427387684583664,-1.2797063093007284,-2.940567755516144,-2.836495666201794
2.1890110969543457,-0.032002609223127365,0.02598351240158081,-0.008642643690109253,-0.3291305899620056,-0.06893515586853027,0.07014871388673782,-1.2766462853508778,-2.945467333834414,-2.840733465701097
2.1993212699890137,-0.03614082932472229,0.0176047682762146,0.005730152130126953,-0.2501537501811981,-0.07873851805925369,0.062000248581171036,-1.2738750342490592,-2.9502535939664996,-2.844978297569523
2.2091240882873535,-0.022933747619390488,0.0338786244392395,0.011446118354797363,-0.11309501528739929,-0.07825227081775665,0.04848694056272507,-1.2721834936130325,-2.9539300722092476,-2.8479776546354647
2.2191691398620605,-0.029155414551496506,0.03894776105880737,-0.006453782320022583,0.045989178121089935,-0.06712079048156738,0.037876907736063004,-1.2719129038985932,-2.9562978541587133,-2.8497068833036723
2.2291440963745117,-0.03136292099952698,0.05381011962890625,-0.012873649597167969,0.21477572619915009,-0.07296168059110641,0.039467133581638336,-1.2733147084326044,-2.9574363177349485,-2.8501522460554853
2.2390661239624023,-0.028381075710058212,0.07034873962402344,-0.0044481754302978516,0.2743833661079407,-0.06034814938902855,0.046193476766347885,-1.2758829038592652,-2.9580293805765234,-2.8500497154983675
2.2494471073150635,-0.026154085993766785,0.044970929622650146,-0.015116363763809204,0.20175087451934814,-0.0061162919737398624,0.03264523297548294,-1.2783683419626757,-2.9581686224330173,-2.8498258178471807
2.2591309547424316,-0.03122614324092865,0.012562990188598633,-0.022377490997314453,0.08879103511571884,0.011638736352324486,0.04584812372922897,-1.279848381722155,-2.958518064097022,-2.8502793131510282
2.2690811157226562,-0.023048322647809982,0.019925057888031006,0.021979063749313354,-0.021995849907398224,-0.0087233055382967,0.043723609298467636,-1.2803016215785075,-2.9597031649057786,-2.851506925680862
2.279158115386963,-0.0150253064930439,0.004679203033447266,0.03859624266624451,-0.07945434749126434,0.014232344925403595,0.029149461537599564,-1.2797775187564477,-2.9610632328700213,-2.852966805710825
2.289184093475342,-0.028797823935747147,0.0025572776794433594,0.024274736642837524,-0.01756240241229534,-0.01168362982571125,0.055499255657196045,-1.2793033180566944,-2.9626253132398244,-2.8546288115572467
2.2994420528411865,-0.01763424649834633,0.040791213512420654,0.009361416101455688,0.038565050810575485,-0.01216086745262146,0.030873004347085953,-1.2795849097969167,-2.9640424222510324,-2.8559704687507965
2.309175968170166,-0.02054673060774803,0.013884425163269043,-0.0036939680576324463,0.04812123626470566,-0.0022751265205442905,0.011680936440825462,-1.2801354080182765,-2.964245714177757,-2.856147585060545
2.319218158721924,-0.029176898300647736,-0.005640149116516113,0.015890955924987793,0.09370603412389755,-0.015515564009547234,0.010753622278571129,-1.280912154011424,-2.964082306862552,-2.8558948142016165
2.329177141189575,-0.016343750059604645,0.01254892349243164,0.006896704435348511,0.20115908980369568,0.0005851085297763348,-0.004972715862095356,-1.2825155227710812,-2.963055816112639,-2.854766315698099
2.3391900062561035,-0.018295355141162872,0.021446287631988525,-0.019903242588043213,0.3383890986442566,0.006962580606341362,-0.00436711311340332,-1.2853138984347816,-2.960779153457263,-2.8524756843176333
2.3494739532470703,-0.015732817351818085,0.03649383783340454,-0.007054358720779419,0.35390186309814453,0.014170292764902115,-0.003895893692970276,-1.2886847405983985,-2.958211550674622,-2.8499252117664127
2.35921311378479,-0.006097450852394104,0.03090536594390869,0.02240768074989319,0.20857101678848267,0.00219565536826849,-0.01835765689611435,-1.291286619583881,-2.9561674324844205,-2.847854984241955
2.3693299293518066,-0.0015645883977413177,-0.031105458736419678,0.04682651162147522,-0.01928313635289669,0.020686915144324303,-0.05525420978665352,-1.291892599661699,-2.95413126170927,-2.8458530938167157
2.3792431354522705,-0.016701240092515945,-0.06401211023330688,0.05769908428192139,-0.11239976435899734,0.01904294453561306,-0.05997386574745178,-1.2909276682951136,-2.952293407301265,-2.8441846756407028
2.389925956726074,-0.012684021145105362,-0.015611350536346436,0.04817536473274231,-0.03908393904566765,-0.008054807782173157,-0.053533222526311874,-1.289990949788905,-2.950601830716094,-2.8424938065493044
2.3996951580047607,-0.0034811943769454956,0.03637194633483887,0.017675727605819702,0.061446662992239,0.0009634555317461491,-0.03467324748635292,-1.2897273210893367,-2.949034209156449,-2.840822641187179
2.409296989440918,-0.015011776238679886,0.02900981903076172,0.0013099908828735352,0.07543807476758957,0.01266653835773468,-0.04416714981198311,-1.2902498833142395,-2.94697743397303,-2.838781903964456
2.4192540645599365,-0.027294717729091644,-0.022755801677703857,0.03022882342338562,0.04820086434483528,-0.002162741031497717,-0.06342153996229172,-1.2909950232521161,-2.944380306104509,-2.83614774217351
2.429190158843994,-0.016702961176633835,-0.048371076583862305,0.030125290155410767,0.027897506952285767,0.023103244602680206,-0.053076062351465225,-1.2913122184519839,-2.9416693768748328,-2.8334496964139335
2.4392809867858887,-0.015425670892000198,-0.027772128582000732,-0.001267075538635254,0.09377559274435043,0.026772547513246536,-0.042308636009693146,-1.2917006463986669,-2.9395454173949433,-2.8315024788833942
2.4503750801086426,-0.013019077479839325,-0.0018783807754516602,-0.012324094772338867,0.08374248445034027,0.03803004324436188,-0.04834367707371712,-1.2920900924254697,-2.937527171439685,-2.829681349284654
2.4594621658325195,-0.014450497925281525,-0.03065502643585205,-0.002841740846633911,-0.041399724781513214,0.060991548001766205,-0.05226278677582741,-1.2914750899649365,-2.9355292465812535,-2.828087951497146
2.4697771072387695,-0.013642288744449615,-0.05847376585006714,0.02275797724723816,-0.08477504551410675,0.042083948850631714,-0.0628400593996048,-1.2902674445923519,-2.9338735513774354,-2.826922431884
2.479462146759033,-0.0062081292271614075,-0.036565959453582764,0.04665231704711914,-0.07437247782945633,0.02588500641286373,-0.0610797144472599,-1.2892910364678258,-2.9319912600004283,-2.8252766074186852
2.4896080493927,-0.001941189169883728,-0.006701171398162842,0.02465859055519104,-0.037851911038160324,0.030033854767680168,-0.04308808967471123,-1.288675717645088,-2.930277716103691,-2.823789453463719
2.4997992515563965,-0.004403308033943176,0.010348916053771973,0.0021722018718719482,-0.04860149323940277,0.0277619119733572,-0.05574662610888481,-1.2879417440275263,-2.928602034625198,-2.822326317633425
2.5095391273498535,-0.009521104395389557,-0.0243377685546875,0.009237855672836304,-0.07659319788217545,0.03235733136534691,-0.06011809781193733,-1.2868084065527,-2.927123794611343,-2.821082298433768
2.519752025604248,-0.00843873992562294,-0.04047363996505737,0.0027237236499786377,-0.06695734709501266,0.04627847298979759,-0.05908239632844925,-1.2859110165935732,-2.9250168953511446,-2.819317701257411
2.5295252799987793,-0.006301723420619965,-0.0171472430229187,0.0019314587116241455,0.017360126599669456,0.020086638629436493,-0.04313863813877106,-1.2857088776671495,-2.922887444145375,-2.8175017218107605
2.5395870208740234,0.004372689872980118,-0.0028124451637268066,0.009531587362289429,0.12013417482376099,0.00960124097764492,-0.03332994878292084,-1.2862816713700993,-2.9209168630314615,-2.8155680369044918
2.549798011779785,0.005177635699510574,-0.00508803129196167,-0.01459464430809021,0.2530089020729065,0.04339253902435303,-0.017025437206029892,-1.287542458057986,-2.918560156188791,-2.813388958717994
2.559589147567749,-0.006031103432178497,0.013975143432617188,-0.02277424931526184,0.37636518478393555,0.04167160391807556,0.016117334365844727,-1.2898261796540014,-2.9164025008625276,-2.811528994925377
2.569587230682373,0.007491156458854675,0.03729963302612305,-0.0051240622997283936,0.42642441391944885,0.04964803531765938,0.028008190914988518,-1.2935046205520606,-2.913947122988897,-2.8094155187872425
2.5795230865478516,0.003635253757238388,0.000576019287109375,0.008599251508712769,0.32531246542930603,0.07667805999517441,0.005229108035564423,-1.2971909115836682,-2.9110026479292683,-2.807006126570577
2.5895180702209473,-0.001410268247127533,-0.04425150156021118,0.02483305335044861,0.10326771438121796,0.08280736207962036,0.00952734425663948,-1.2988797989889078,-2.9087437793305773,-2.8055176008563905
2.600283145904541,0.009143207222223282,-0.04588240385055542,0.05574721097946167,-0.06410476565361023,0.08239857107400894,-0.01276970561593771,-1.2987023738116457,-2.908040281039937,-2.805589810595018
2.6095480918884277,0.008265182375907898,-0.04388612508773804,0.042417436838150024,-0.12816087901592255,0.099419005215168,-0.009199099615216255,-1.2974103462018032,-2.907600367396436,-2.806096576315758
2.6196022033691406,0.007822461426258087,-0.015487730503082275,0.013219684362411499,-0.04111333563923836,0.06434331834316254,-0.0021904585883021355,-1.2962748985546515,-2.9078094691562635,-2.8071429796426433
2.6294760704040527,0.02181743085384369,0.028112173080444336,-0.006680011749267578,0.04498375207185745,0.07777217030525208,-0.00011463102418929338,-1.2963674504162783,-2.907027140251727,-2.807027466256617
2.6411890983581543,0.004095405340194702,0.022581815719604492,-0.016514897346496582,0.09640485793352127,0.08361834287643433,0.019886240363121033,-1.2972942729388017,-2.905681249172705,-2.8065248353168593
2.6513819694519043,0.004496254026889801,0.013750672340393066,-0.0075016021728515625,0.09698750078678131,0.07730967551469803,0.02665914036333561,-1.2984127836505308,-2.9049365907832443,-2.806570344234847
2.659651279449463,0.011510156095027924,-0.0032618045806884766,-0.005202263593673706,0.11442108452320099,0.07660233974456787,0.031971078366041183,-1.299374995295582,-2.9045326892225845,-2.80695104502422
2.669579029083252,0.0004103854298591614,-0.005981028079986572,-0.007310986518859863,0.12640619277954102,0.0631655752658844,0.03504639118909836,-1.3002415150530662,-2.904390393484732,-2.8075146211136994
2.6795060634613037,-0.0023575499653816223,-0.01629459857940674,-0.009426653385162354,0.04658006504178047,0.08114484697580338,0.016630368307232857,-1.300292921803817,-2.9048384472928444,-2.80864129675677
2.6896960735321045,-0.012316703796386719,-0.051724910736083984,-0.0006476342678070068,-0.02843806892633438,0.057619500905275345,0.019893057644367218,-1.299778267891981,-2.9053262918561837,-2.8098613102099828
2.700111150741577,-0.006074506789445877,-0.04131495952606201,0.01835450530052185,-0.05931582301855087,0.03778187930583954,0.030580325052142143,-1.29919518183211,-2.9065265162659997,-2.8115429468835824
2.709757089614868,-0.0013472996652126312,-0.0187872052192688,-0.012561589479446411,-0.051060840487480164,0.05375227704644203,0.047957077622413635,-1.2988323454100887,-2.9079589721291415,-2.8135110156727983
2.7197561264038086,-0.014236845076084137,-0.006611466407775879,-0.030413061380386353,-0.0002900718245655298,0.02906797081232071,0.08413399010896683,-1.2989492238789664,-2.909946253621593,-2.8160242914126297
2.7297821044921875,-0.005936644971370697,0.011501669883728027,-0.018727213144302368,0.03452896326780319,0.008860704489052296,0.09715962409973145,-1.2994575684344258,-2.9127919681917227,-2.819176536790219
2.740709066390991,-0.009902704507112503,-0.011147618293762207,-0.019202113151550293,0.00197980715893209,0.009142733179032803,0.07774864137172699,-1.2999332426769452,-2.9156666842709087,-2.8222253971971063
2.7500529289245605,-0.020942706614732742,-0.03364783525466919,-0.0150221586227417,-0.0333096906542778,0.004216906148940325,0.07889682799577713,-1.3000230605311092,-2.918373242315361,-2.825125116818115
2.759788990020752,-0.015009764581918716,-0.02002042531967163,-0.013758242130279541,-0.02390553429722786,0.0005473364144563675,0.07266130298376083,-1.2999620239588845,-2.9210649572395333,-2.827950505020502
2.76973295211792,-0.017024707049131393,-0.005460560321807861,-0.01719599962234497,-0.01725975051522255,0.00048226630315184593,0.06508610397577286,-1.2997227382973702,-2.9233043481069734,-2.8303073463304402
2.779879093170166,-0.021043390035629272,-0.003201782703399658,-0.016805380582809448,-0.045279137790203094,0.011746106669306755,0.06332787871360779,-1.299094404620376,-2.9258635163473454,-2.8330237068770012
2.789860248565674,-0.01978209614753723,-0.004272043704986572,-0.012256652116775513,-0.060457970947027206,0.009116989560425282,0.050603512674570084,-1.2988176824083217,-2.92796054823624,-2.835331182495827
2.800028085708618,-0.024139493703842163,-0.0066443681716918945,-0.0005924403667449951,-0.051424261182546616,0.004658857826143503,0.05746115371584892,-1.2986745764822327,-2.9294989337780004,-2.8370626531282097
2.809796094894409,-0.02017315849661827,0.006718754768371582,0.003014683723449707,-0.023145785555243492,0.00815301388502121,0.05059871822595596,-1.2986876808308863,-2.9312343535105345,-2.8389451359216338
2.8198740482330322,-0.023627959191799164,0.013723254203796387,-0.00012600421905517578,-0.024709060788154602,0.014157909899950027,0.04530355706810951,-1.2987985122360428,-2.9325091597988857,-2.8404236006058365
2.8297500610351562,-0.027483247220516205,0.0014013051986694336,0.008706420660018921,-0.05105891078710556,0.017755307257175446,0.033884186297655106,-1.2986014573092044,-2.93333505545184,-2.8414925926347725
2.840355157852173,-0.025568492710590363,-0.006431758403778076,0.014594167470932007,-0.0639699175953865,0.025151703506708145,0.026489922776818275,-1.2982237106099965,-2.9341136553640736,-2.8425641281724503
2.8502960205078125,-0.02784837782382965,-0.0052907466888427734,0.013725966215133667,-0.045300424098968506,0.02287505753338337,0.02246103808283806,-1.2980101606909094,-2.934298773210587,-2.843055162670536
2.8598761558532715,-0.024721704423427582,0.0020807981491088867,0.011593818664550781,-0.00470585934817791,0.020147182047367096,0.02031692862510681,-1.2980611063877618,-2.9342656497895683,-2.8433207394780684
2.8698439598083496,-0.02301710844039917,0.005603015422821045,0.009562969207763672,0.031485415995121,0.02158355712890625,0.019596382975578308,-1.2984108079471723,-2.933903162709024,-2.8432090801613756
2.8798820972442627,-0.027673877775669098,-0.0020641684532165527,0.008579224348068237,0.034523285925388336,0.025831297039985657,0.013815725222229958,-1.2987781751922145,-2.933404008896926,-2.8429716691104403
2.8902392387390137,-0.02636401727795601,-0.012306392192840576,0.005067110061645508,-0.010744626633822918,0.0456964410841465,0.006071519572287798,-1.2989053333247773,-2.9328524862925254,-2.8427929710434166
2.8999650478363037,-0.024995528161525726,-0.0304376482963562,0.0013256967067718506,-0.03533146157860756,0.05441775918006897,0.000734544824808836,-1.2986921196692858,-2.9320457433768703,-2.8425386296394217
2.9098761081695557,-0.023024212568998337,-0.01834738254547119,0.008506804704666138,-0.016211047768592834,0.0625021830201149,-0.0010358183644711971,-1.298275910181931,-2.9311345232110604,-2.842253663005593
2.9200711250305176,-0.015627890825271606,-0.0014099478721618652,0.005657166242599487,-3.7404242902994156e-05,0.07382967323064804,0.009986206889152527,-1.2979347545080009,-2.930252354923937,-2.8420696521984565
2.9299120903015137,-0.009907186031341553,0.008580505847930908,0.0008655786514282227,0.013848717324435711,0.08041522651910782,0.019630685448646545,-1.2977799505463081,-2.9295658906475364,-2.8421896002395326
2.940045118331909,-0.012007754296064377,0.0076087117195129395,0.010835856199264526,0.03391909599304199,0.08710375428199768,0.023529818281531334,-1.2978752528089499,-2.9288936613475127,-2.8423965758091048
2.9502041339874268,-0.010870274156332016,0.003396928310394287,0.013910889625549316,0.061979565769433975,0.09462229907512665,0.021990563720464706,-1.2982735572626636,-2.928090678567798,-2.8425243473824366
2.960092067718506,-0.005323879420757294,0.0038848519325256348,0.00270959734916687,0.07896946370601654,0.11792069673538208,0.02815098874270916,-1.2988419688543602,-2.9268059487795717,-2.842334041721034
2.9702610969543457,-0.00609854981303215,0.0063343048095703125,-0.004343390464782715,0.12404759228229523,0.13865092396736145,0.030747199431061745,-1.2997225438247118,-2.925343309976569,-2.8421844830877903
2.9801392555236816,-0.002952881157398224,0.015099525451660156,-0.005698651075363159,0.17729483544826508,0.15529754757881165,0.03978516906499863,-1.3010690233925382,-2.923443572619049,-2.841766792140676
2.9919240474700928,0.0016194693744182587,0.021027684211730957,-0.008265316486358643,0.24330809712409973,0.17374682426452637,0.0488273985683918,-1.3029362163386178,-2.9214243936468995,-2.8414044271931123
3.0019690990448,0.00663212314248085,0.027702808380126953,-0.011898070573806763,0.35366496443748474,0.1901705414056778,0.07719618827104568,-1.3057479028892445,-2.9191948594607493,-2.841004077975949
3.0101022720336914,0.015931256115436554,0.04700964689254761,-0.007428586483001709,0.6191720366477966,0.1917366087436676,0.1181689202785492,-1.3104309132513159,-2.916836179339258,-2.840584709948222
3.021743059158325,0.02281041070818901,0.06796401739120483,0.01148425042629242,1.0058566331863403,0.1727549284696579,0.16967472434043884,-1.3184187750674397,-2.9133441627125767,-2.8388194503803903
3.0302741527557373,0.01020563393831253,0.11094820499420166,0.032815754413604736,1.351332664489746,0.21443943679332733,0.28842294216156006,-1.3303017640797177,-2.909605038629889,-2.8369377688100332
3.040308952331543,-0.00024379417300224304,0.1334768533706665,0.03779342770576477,1.6895301342010498,0.27536454796791077,0.38975009322166443,-1.3458216717607867,-2.906320864187269,-2.836068501908442
3.050446033477783,-0.011132914572954178,0.10494482517242432,0.059859663248062134,2.225341320037842,0.2882639169692993,0.5063549280166626,-1.3658423146413643,-2.902296533846957,-2.834898039932592
3.0603830814361572,-0.01854643225669861,0.11781728267669678,0.05922125279903412,2.703636407852173,0.30781233310699463,0.6154779195785522,-1.3912700472947486,-2.8969403898471695,-2.8324569888661584
3.0702271461486816,-0.019245624542236328,0.10813015699386597,0.03761972486972809,2.9737839698791504,0.3503127098083496,0.722804605960846,-1.4205406148407076,-2.890475870943216,-2.8292149374559483
3.0803332328796387,-0.022218814119696617,0.019601106643676758,0.048888325691223145,3.2521378993988037,0.3379457890987396,0.7626066207885742,-1.4525585964873478,-2.882609801836224,-2.824782129281497
3.0901851654052734,-0.02953038550913334,-0.04930597543716431,0.041485778987407684,3.5920162200927734,0.3441541790962219,0.7616070508956909,-1.487599120860223,-2.86166799855091,-2.8071189599694075
3.100403070449829,-0.03799576684832573,-0.027886033058166504,0.0015082359313964844,3.99177622795105,0.42475688457489014,0.8024538159370422,-1.5260993979339743,-2.7898677826326552,-2.7390105158305578
3.110517978668213,-0.03571256995201111,0.021297216415405273,-0.01093226671218872,4.441507816314697,0.49136224389076233,0.8315855264663696,-1.5635397389639225,-1.5277373019562124,-1.481362447969179
3.120270252227783,-0.02942419797182083,0.022257328033447266,0.004879537969827652,4.735742568969727,0.5063153505325317,0.7719932794570923,-1.524357807852355,0.019838271673755337,0.06136523457292815
3.130195140838623,-0.03417615965008736,0.00023567676544189453,0.05741970241069794,4.840991497039795,0.5916794538497925,0.7208335995674133,-1.475969980171297,0.09211143207339015,0.1284017119530884
3.1403400897979736,-0.034212518483400345,0.0061241984367370605,0.09737737476825714,4.810873031616211,0.6956852078437805,0.7232105135917664,-1.427110598321228,0.11643187998783122,0.14636376907436904
3.150365114212036,-0.038990963250398636,0.017240583896636963,0.14790233969688416,4.695407390594482,0.7526347041130066,0.7472944259643555,-1.3789062470554716,0.1320225849064221,0.15478202754546472
3.160288095474243,-0.03865506872534752,0.003064751625061035,0.19408226013183594,4.515583515167236,0.7766100764274597,0.7409942150115967,-1.332183589282036,0.14448791421531315,0.15969117852121797
3.170228958129883,-0.0383758544921875,-0.02814805507659912,0.2095356285572052,4.310751438140869,0.810032308101654,0.7023756504058838,-1.2873926036572214,0.15455304494314995,0.16189038579953233
3.1801042556762695,-0.04644067957997322,-0.043585896492004395,0.20107057690620422,4.140533924102783,0.8522617816925049,0.6769888401031494,-1.2445662514015912,0.16325371447219109,0.1622800717178732
3.1901822090148926,-0.04594385251402855,-0.03564608097076416,0.1792861521244049,4.005285739898682,0.8772630095481873,0.6522057056427002,-1.203255761456557,0.1713356563859773,0.1616607329242784
3.2004189491271973,-0.036947108805179596,-0.039479613304138184,0.16506117582321167,3.8396997451782227,0.873469352722168,0.5787879824638367,-1.1634425022360397,0.17831787342064026,0.15970232508344406
3.2101681232452393,-0.027265004813671112,-0.060582637786865234,0.16071194410324097,3.558347463607788,0.8569982051849365,0.48518019914627075,-1.1260041364259719,0.1837692514846544,0.15618014713999756
3.220283031463623,-0.021786950528621674,-0.07476246356964111,0.14887666702270508,3.1960203647613525,0.8491482734680176,0.42575204372406006,-1.0919058337559655,0.1886699315415286,0.1521268270686432
3.2301220893859863,-0.012349463999271393,-0.08088088035583496,0.12734436988830566,2.852116584777832,0.8546304106712341,0.3864075541496277,-1.0614355628509808,0.19392252671204138,0.14840887415463921
3.2402820587158203,-0.008490703999996185,-0.07967495918273926,0.10536807775497437,2.560328245162964,0.8575085997581482,0.35864555835723877,-1.034182901090021,0.19964261096351166,0.1451161229409128
3.250391960144043,-0.010694131255149841,-0.06293362379074097,0.08761614561080933,2.3451080322265625,0.8474187850952148,0.3509584963321686,-1.0094395490857226,0.20579009217886413,0.1422939717701049
3.2603750228881836,-0.0066763535141944885,-0.048391878604888916,0.08008843660354614,2.1581196784973145,0.8101606369018555,0.36437949538230896,-0.986660779939546,0.21224835386757207,0.14009158922338566
3.2702901363372803,0.0008189082145690918,-0.04073244333267212,0.06792253255844116,1.9644116163253784,0.7617812752723694,0.3911723494529724,-0.9656876764063523,0.21905689005192683,0.1388141255850587
3.2803330421447754,0.004795446991920471,-0.042579472064971924,0.04909461736679077,1.8088723421096802,0.724918007850647,0.40169262886047363,-0.9464281359690621,0.22607724250948563,0.13830773550845693
3.2903940677642822,0.002527862787246704,-0.04670172929763794,0.02298635244369507,1.7189106941223145,0.6991045475006104,0.41784313321113586,-0.928334827837571,0.23317459245729172,0.1382575989598032
3.3005242347717285,-0.0031513720750808716,-0.0358583927154541,-0.004163026809692383,1.6776010990142822,0.6812304854393005,0.44229015707969666,-0.9107987053338862,0.24034285185154064,0.13859796283972425
3.310404062271118,-0.0036936700344085693,-0.027694404125213623,-0.026829540729522705,1.6854826211929321,0.6656055450439453,0.4900650382041931,-0.8933966141985926,0.24765706310649452,0.13931230506872996
3.3205010890960693,-0.0041148364543914795,-0.03759723901748657,-0.05602484941482544,1.7794464826583862,0.6556493043899536,0.5122600793838501,-0.8753869263859345,0.2549795127466043,0.1402593792186992
3.330501079559326,-0.012011349201202393,-0.05034744739532471,-0.08162778615951538,1.974036693572998,0.7491288781166077,0.5136998295783997,-0.8560009863924933,0.262094490722474,0.14046913522815427
3.340689182281494,-0.033994585275650024,0.0018972158432006836,-0.10859173536300659,2.3632569313049316,0.866946816444397,0.6109289526939392,-0.8337291963789031,0.26990316045718926,0.14000445821274002
3.3505640029907227,-0.038543835282325745,0.11334288120269775,-0.12079507112503052,2.83463191986084,0.8155384659767151,0.7904682159423828,-0.8067542825526521,0.2781148053979078,0.13954161025524026
3.360713005065918,-0.006726756691932678,0.22094857692718506,-0.06489396095275879,3.3418385982513428,0.6587595343589783,0.9867898225784302,-0.7745799763094792,0.28545746686449125,0.13945115190184484
3.370671272277832,0.026609152555465698,0.26297909021377563,-0.010780930519104004,3.70668363571167,0.4879639148712158,1.1229463815689087,-0.7375908389530815,0.2912852725457421,0.1396082926607029
3.3825840950012207,0.014825478196144104,0.2147313952445984,0.03644365072250366,3.838698387145996,0.3933551013469696,1.1446436643600464,-0.6979851407576766,0.29557153993541435,0.13953779427112142
3.3912529945373535,-0.03003641963005066,0.1037854552268982,0.08754277229309082,3.694812536239624,0.38755714893341064,1.1161049604415894,-0.6584383183473707,0.2992327840249058,0.13918904589640071
3.401081085205078,-0.07170134782791138,-0.005087018013000488,0.12467324733734131,3.311445951461792,0.44498369097709656,1.0795663595199585,-0.6215883314910807,0.3033882370694456,0.13926334887418715
3.4104809761047363,-0.08632969856262207,-0.0955880880355835,0.14248859882354736,2.810953378677368,0.5133159756660461,1.0046257972717285,-0.5891149893293366,0.30875611136705294,0.1401699043091571
3.4208390712738037,-0.08271342515945435,-0.17434275150299072,0.1333378553390503,2.278620958328247,0.5344337821006775,0.861346423625946,-0.5620348750744119,0.31469498258695283,0.1414840423264582
3.433155059814453,-0.06919252872467041,-0.19999533891677856,0.1044120192527771,1.7741670608520508,0.5563520789146423,0.7253891825675964,-0.5402932609535229,0.320912662361502,0.142886252295657
3.441127061843872,-0.0386369526386261,-0.1505192220211029,0.04750990867614746,1.4075847864151,0.5234833359718323,0.6334089040756226,-0.5231659731591868,0.32717476218857267,0.14450663369786992
3.4508461952209473,-0.0031134188175201416,-0.07797849178314209,-0.0001627802848815918,1.2620840072631836,0.4819187819957733,0.590280294418335,-0.5086406343442714,0.33304770430477776,0.14620310664136124
3.4611072540283203,0.015972793102264404,0.0008268952369689941,-0.052625954151153564,1.2847940921783447,0.42997464537620544,0.5832074880599976,-0.4947943330029069,0.33834535202192445,0.1477727981672246
3.4706790447235107,0.013350844383239746,0.06845006346702576,-0.07016181945800781,1.418030023574829,0.3745417892932892,0.5790378451347351,-0.4801015321219597,0.34291090270980656,0.14887658006654228
3.483713150024414,0.006810814142227173,0.08923858404159546,-0.05917096138000488,1.520890712738037,0.3150632977485657,0.5755371451377869,-0.46424606202120133,0.3465863493862846,0.14935565699372
3.4911751747131348,-0.001528024673461914,0.09432953596115112,-0.041302621364593506,1.50979483127594,0.28402072191238403,0.5779206156730652,-0.44795263790907636,0.3496791630516155,0.14963721660923227
3.5008959770202637,-0.012663334608078003,0.05743318796157837,-0.02406078577041626,1.4052902460098267,0.2939806580543518,0.5434489250183105,-0.4322341242315633,0.35267527549044975,0.14991068734454724
3.510571002960205,-0.028392761945724487,-0.004111558198928833,-0.01503056287765503,1.201770544052124,0.3358498215675354,0.47572919726371765,-0.4181871018893,0.35592751369547393,0.15018670720696756
3.5209221839904785,-0.04012501239776611,-0.039446234703063965,-0.007042646408081055,0.9630873203277588,0.3740648627281189,0.4121456742286682,-0.4064405058572228,0.35965881504740954,0.15056949451698337
3.532358169555664,-0.03915789723396301,-0.054712384939193726,0.0031790733337402344,0.7546495199203491,0.39062967896461487,0.34746667742729187,-0.39711444351280833,0.36371887576351725,0.15115247706234108
3.5409131050109863,-0.02892664074897766,-0.05996906757354736,0.010282516479492188,0.6187795996665955,0.3798593282699585,0.2784082293510437,-0.38957289088573915,0.36780071300027306,0.15166785126191892
3.550734043121338,-0.021563708782196045,-0.04755648970603943,0.0016715526580810547,0.5122389793395996,0.3585031032562256,0.21307967603206635,-0.3834696977391095,0.37158134904800444,0.1519464748192138
3.560901165008545,-0.007194191217422485,-0.018984615802764893,-0.012940049171447754,0.5767090320587158,0.3723933696746826,0.20580658316612244,-0.37770955861414335,0.37523737030617904,0.15187564300939443
3.5709011554718018,0.0038506686687469482,0.033722639083862305,-0.03502309322357178,0.7090088725090027,0.3191407024860382,0.2392275482416153,-0.3709351586571781,0.3786300070606527,0.1515847205481754
3.5822219848632812,0.007639467716217041,0.09228962659835815,-0.03210246562957764,0.8276641964912415,0.24332772195339203,0.26017943024635315,-0.36282317850586926,0.3812170925937313,0.15101217288622915
3.5909180641174316,0.01738077402114868,0.09074679017066956,-0.02439826726913452,0.9502066373825073,0.2265584021806717,0.277082234621048,-0.35358685561130193,0.3832266584254351,0.15013720328042993
3.6025390625,0.01219034194946289,0.06751146912574768,-0.022995352745056152,0.9989666938781738,0.21410466730594635,0.29788365960121155,-0.34340361010429254,0.3850610187239854,0.14907411810129909
3.610664129257202,-0.005852699279785156,0.052067697048187256,0.003399372100830078,0.9790118932723999,0.21051384508609772,0.2951555550098419,-0.33306955104377134,0.38683968326263257,0.14803363974310516
3.6208529472351074,-0.012968242168426514,0.019007474184036255,0.029887020587921143,0.9326486587524414,0.22561396658420563,0.28593143820762634,-0.32311845471785516,0.38870031544347544,0.1470515221415989
3.6324119567871094,-0.008657485246658325,0.0047577619552612305,0.03273975849151611,0.9044809937477112,0.22415609657764435,0.2832199037075043,-0.3135410240158052,0.3906778668958372,0.14616004169776614
3.6410300731658936,-0.0010353028774261475,0.012189865112304688,0.033370018005371094,0.8588549494743347,0.19241681694984436,0.276284784078598,-0.3042820786116761,0.39253314832671676,0.14535095134936693
3.6507019996643066,0.006916791200637817,0.013187199831008911,0.037381887435913086,0.8162354230880737,0.1687818467617035,0.26519137620925903,-0.2955237686838596,0.3941043552713301,0.14460476814618545
3.6606812477111816,0.012525111436843872,0.004432559013366699,0.03861808776855469,0.8230600357055664,0.15352380275726318,0.2651192247867584,-0.2869495672406784,0.3955090245626839,0.14387372147242516
3.670742988586426,0.010203331708908081,0.013816475868225098,0.038466572761535645,0.7989844083786011,0.10140670090913773,0.27103719115257263,-0.2783695422475175,0.3966053554122305,0.14316810938267918
3.6816611289978027,0.009576499462127686,0.02055513858795166,0.05551642179489136,0.7239745855331421,0.06338395178318024,0.25730380415916443,-0.2702753413652034,0.39726755882470854,0.14263686323073363
3.690718173980713,0.01145923137664795,-0.002018958330154419,0.060231685638427734,0.5834408402442932,0.053713973611593246,0.22912286221981049,-0.2632427846174203,0.3977578944669198,0.14233077222343912
3.7006421089172363,0.003336489200592041,-0.027842551469802856,0.05000936985015869,0.3786983788013458,0.05944003537297249,0.1894494891166687,-0.25795836291153135,0.39833594944647616,0.14239185443760322
3.7107009887695312,-0.0037994384765625,-0.053759992122650146,0.05273115634918213,0.11495774239301682,0.055615294724702835,0.13643735647201538,-0.25500097394597854,0.3990646934430641,0.14294166078384404
3.724271059036255,-0.0026231706142425537,-0.07951128482818604,0.05798649787902832,-0.18163584172725677,0.0420861691236496,0.07263094186782837,-0.2549006731788134,0.3998394755429102,0.14406906084108156
3.732126235961914,0.0035461485385894775,-0.09214764833450317,0.05529254674911499,-0.4669110178947449,0.024529457092285156,0.012166749686002731,-0.25774216871063765,0.40061163190908045,0.14579653272258836
3.740779161453247,0.008211880922317505,-0.09554564952850342,0.048117756843566895,-0.7235100269317627,0.0009197350591421127,-0.052507586777210236,-0.26332757284468267,0.4013153795528887,0.14802739442523974
3.7507951259613037,0.010331571102142334,-0.08946794271469116,0.044492900371551514,-0.9345384240150452,-0.029189608991146088,-0.10598726570606232,-0.27129631488576034,0.40186546470831574,0.15063412220200423
3.7607932090759277,0.009038090705871582,-0.07628247141838074,0.032384514808654785,-1.107163906097412,-0.056904058903455734,-0.13906052708625793,-0.28119111470016095,0.402261518197216,0.15361297833109824
3.7711291313171387,0.011264562606811523,-0.0626014769077301,0.014590144157409668,-1.2237942218780518,-0.059079237282276154,-0.15723910927772522,-0.2925724609712385,0.4025856467586365,0.15696880209953978
3.7836689949035645,0.00766107439994812,-0.05319127440452576,-0.014203429222106934,-1.1835945844650269,-0.008337501436471939,-0.13461236655712128,-0.3043751286228483,0.4032685011988062,0.16053353451595598
3.793732166290283,-0.0012945234775543213,-0.02527773380279541,-0.055300891399383545,-1.002376675605774,0.023974541574716568,-0.07979124784469604,-0.3149112912707283,0.404446194320488,0.16403540403751868
3.802110195159912,-0.0045875608921051025,0.025000065565109253,-0.07730579376220703,-0.7250846028327942,-0.00781294796615839,-0.019291680306196213,-0.3230906272988325,0.40553111214451065,0.16716087388357198
3.8109841346740723,0.0070955753326416016,0.05382239818572998,-0.0883554220199585,-0.3967664837837219,-0.039934709668159485,0.03131476789712906,-0.3282620590102477,0.4060418564006166,0.16956618302107154
3.821126937866211,0.0064817070960998535,0.06462809443473816,-0.09433019161224365,-0.06078873574733734,-0.0330783985555172,0.09775158762931824,-0.3300976532221599,0.40615757757975113,0.17114879199704042
3.8323121070861816,-0.008836179971694946,0.0656939446926117,-0.09184759855270386,0.19916149973869324,-0.015615477226674557,0.14625713229179382,-0.3288744581436669,0.4062036436283234,0.17201960496792962
3.8411221504211426,-0.027176260948181152,0.04852762818336487,-0.06441599130630493,0.332925945520401,0.010303204879164696,0.17017045617103577,-0.3257323604175814,0.40628741332928603,0.1724230642253651
3.850886106491089,-0.03477993607521057,0.01026773452758789,-0.018856942653656006,0.35110020637512207,0.04748031124472618,0.17320409417152405,-0.32184375486929234,0.4066423933122452,0.1726462633884177
3.8611011505126953,-0.04416891932487488,-0.02237635850906372,0.02109241485595703,0.28677716851234436,0.07872558385133743,0.15086683630943298,-0.31821665122114456,0.40735507604503296,0.17287112462151996
3.871150016784668,-0.04786008596420288,-0.04678136110305786,0.05298525094985962,0.16531845927238464,0.10951616615056992,0.11627110093832016,-0.3156056414174405,0.4084003971739519,0.17322199098846647
3.883334159851074,-0.04094025492668152,-0.0599537193775177,0.06385010480880737,0.080040842294693,0.13142333924770355,0.08258344233036041,-0.31410140537362263,0.4097709634550428,0.17367749730934903
3.891911029815674,-0.03043264150619507,-0.05005240440368652,0.059186339378356934,0.036922529339790344,0.12106416374444962,0.046609941869974136,-0.3133331241859972,0.4111735779542061,0.1740765959588318
3.902255058288574,-0.014848768711090088,-0.023067831993103027,0.060280442237854004,0.03504233807325363,0.09687440097332001,0.018273644149303436,-0.312892680802282,0.41231354280752786,0.17423949710158262
3.9112441539764404,-0.001664191484451294,-8.910894393920898e-06,0.05098980665206909,0.07556650787591934,0.0938577950000763,0.007095344830304384,-0.31234442294267717,0.4132326826799012,0.17412666293550924
3.9213342666625977,0.002604186534881592,0.022913753986358643,0.03126460313796997,0.10638754069805145,0.08906197547912598,0.007127569522708654,-0.3114744921551859,0.41405968334167725,0.1738055795872743
3.9326720237731934,0.003258734941482544,0.03778168559074402,0.02722764015197754,0.1306457370519638,0.09076231718063354,0.004897384904325008,-0.31036245703268445,0.4148148073972021,0.17336302939751425
3.941481113433838,0.004593968391418457,0.03522229194641113,0.024156808853149414,0.15848535299301147,0.10290633141994476,-0.003874801332131028,-0.30904443743911947,0.4155830141555632,0.17275753733718274
3.9521031379699707,0.00381314754486084,0.0274905264377594,0.027036726474761963,0.16301101446151733,0.10387083888053894,-0.015652736648917198,-0.307598494659272,0.4163979674706456,0.17197207683206364
3.9612691402435303,0.0019143223762512207,0.03064456582069397,0.03422635793685913,0.14317499101161957,0.09942442923784256,-0.03294677287340164,-0.3061946966972877,0.4171190262852959,0.1710716488998873
3.971168041229248,0.005202442407608032,0.03159669041633606,0.03287196159362793,0.12443461269140244,0.10839208960533142,-0.04803992062807083,-0.3050523112278497,0.4178432705700968,0.170107650843797
3.9822001457214355,0.007841557264328003,0.025540024042129517,0.02387756109237671,0.10930652916431427,0.10816358774900436,-0.07172021269798279,-0.3042514280230589,0.418624790734476,0.16903175372142154
3.9913082122802734,0.008162051439285278,0.020209431648254395,0.023743867874145508,0.1489049792289734,0.11092111468315125,-0.0962885171175003,-0.30361724991806227,0.41937642783466,0.16770819549781027
4.001163959503174,0.009223073720932007,0.02142500877380371,0.02052360773086548,0.21207942068576813,0.09088029712438583,-0.11744919419288635,-0.30263142776780805,0.41991228740633707,0.16592935402723188
4.011384963989258,0.012598961591720581,0.036533504724502563,0.02184969186782837,0.2579476535320282,0.04719051718711853,-0.143899068236351,-0.30127055005898035,0.4199637764414956,0.1636680548016138
4.022120952606201,0.021479874849319458,0.04107999801635742,0.018781065940856934,0.2561526894569397,0.027315344661474228,-0.16422778367996216,-0.29981749149005327,0.41960503801039417,0.16109477460017138
4.032347202301025,0.026573121547698975,0.03477826714515686,0.007911920547485352,0.2091192603111267,0.04302288964390755,-0.1729254424571991,-0.29873147136992767,0.4192319764858437,0.15849141816284412
4.041370153427124,0.019924849271774292,0.02122056484222412,-0.0021991729736328125,0.14561431109905243,0.06942068040370941,-0.17785441875457764,-0.2984364181215151,0.41918629964966075,0.15608525707208132
4.051403999328613,0.012482106685638428,-0.0010258257389068604,-0.0015778541564941406,0.08919791877269745,0.10008271783590317,-0.18894995748996735,-0.2990900627960448,0.4195691536230227,0.15391932426031324
4.06145715713501,0.008466392755508423,-0.009507596492767334,0.0030965805053710938,0.09802469611167908,0.11586567759513855,-0.18678081035614014,-0.29983841725023386,0.42025251129796193,0.1517692234660389
4.071570158004761,0.012951135635375977,0.0042574405670166016,0.00607675313949585,0.1089896634221077,0.08648496866226196,-0.18371370434761047,-0.30031587529985054,0.42081000024011017,0.14962069039275905
4.082421064376831,0.020910292863845825,0.012844264507293701,0.018220901489257812,0.10754569619894028,0.06771554797887802,-0.1886964738368988,-0.30071930268264874,0.4210827977276187,0.14742750076625624
4.091836929321289,0.022358804941177368,-0.0042490363121032715,0.018270134925842285,0.10020772367715836,0.06967207789421082,-0.17759045958518982,-0.301409958015532,0.42133772373934075,0.14529908644601078
4.101258277893066,0.014948904514312744,-0.013179004192352295,0.016205191612243652,0.08843202143907547,0.07792814821004868,-0.1611587554216385,-0.3021328718138547,0.42174710121543996,0.14335259444801352
4.111371994018555,0.008207142353057861,-0.014925956726074219,0.023800134658813477,0.07591460645198822,0.07961606234312057,-0.14884833991527557,-0.30265213194721535,0.4222548412653529,0.1415860591883086
4.122918128967285,0.004962325096130371,-0.017996281385421753,0.03359723091125488,0.055110253393650055,0.06392177939414978,-0.13396473228931427,-0.3029113913097716,0.42261818027386233,0.1399874220845531
4.136367082595825,0.0047209858894348145,-0.018345028162002563,0.03388512134552002,0.04006299376487732,0.04704417660832405,-0.11811530590057373,-0.3028770931856071,0.4228029521822026,0.1385929971635655
4.142049074172974,0.006356388330459595,-0.02164784073829651,0.02488422393798828,0.01337732095271349,0.04347900301218033,-0.10952634364366531,-0.30286836857592725,0.42292133789738623,0.13740172708657222
4.151463031768799,0.003044307231903076,-0.03108501434326172,0.011236786842346191,-0.006960108410567045,0.05132059007883072,-0.10062600672245026,-0.303307560365181,0.42317708062018744,0.13641834176524514
4.161631107330322,-0.0005393326282501221,-0.03515058755874634,-0.002557992935180664,-0.023384621366858482,0.05859101936221123,-0.09328846633434296,-0.30408221657614176,0.42365233293116455,0.13561206176700918
4.171499252319336,-0.0016409456729888916,-0.031615644693374634,-0.006754875183105469,0.00040957401506602764,0.06813929975032806,-0.08186393231153488,-0.30451938175918253,0.4242441405275155,0.13489138889489427
4.182574272155762,0.0001557767391204834,-0.020128488540649414,-0.01129847764968872,0.04122890904545784,0.05823233723640442,-0.0659339651465416,-0.3044102202504597,0.4247771304031524,0.1341383290639574
4.191538095474243,0.002133578062057495,-0.008105754852294922,-0.011328399181365967,0.07648761570453644,0.042133573442697525,-0.06014569103717804,-0.3039637046556933,0.42512420698288783,0.13331455674140336
4.203545093536377,0.0068472325801849365,-0.006178051233291626,-0.011630535125732422,0.0985492467880249,0.028879817575216293,-0.0516241081058979,-0.3032228120987057,0.42531896104010825,0.1324308089113932
4.213313102722168,0.00792345404624939,-0.007495492696762085,-0.00875920057296753,0.08891282230615616,0.01833822950720787,-0.04807283729314804,-0.3024129733056575,0.42540563045706487,0.13158879339541438
4.225622177124023,0.005720376968383789,-0.012030750513076782,-0.004746139049530029,0.06600883603096008,0.015670806169509888,-0.04946194216609001,-0.30164935845033825,0.4254273752766618,0.13081004295998966
4.23533296585083,0.008296996355056763,-0.015218853950500488,-0.0054776668548583984,0.018539858981966972,0.0022989860735833645,-0.05597768351435661,-0.30100922218069687,0.42532209648057795,0.1301300550854081
4.24234414100647,0.013442546129226685,-0.01714727282524109,-0.004666268825531006,-0.037168942391872406,-0.006319269072264433,-0.06528622657060623,-0.3007916234454954,0.4250772365227968,0.12957553639272054
4.251655101776123,0.01684468984603882,-0.023830652236938477,-0.006167292594909668,-0.0878598690032959,-0.011199023574590683,-0.07101218402385712,-0.3011431466970367,0.424811587486263,0.12917955251592406
4.261946201324463,0.017214089632034302,-0.025001049041748047,-0.007469117641448975,-0.11157798022031784,-0.013738613575696945,-0.08088319003582001,-0.3020492412358577,0.42454959933104297,0.12887463326135248
4.272171974182129,0.017776012420654297,-0.018061578273773193,-0.011130809783935547,-0.10261888802051544,-0.01525825820863247,-0.07909344136714935,-0.3032036205130421,0.4242944949080883,0.12856012727181718
4.2831621170043945,0.02150183916091919,-0.006657302379608154,-0.011928319931030273,-0.08190455287694931,-0.025471214205026627,-0.06822001934051514,-0.3041887853008426,0.42400971868615817,0.12827124910570123
4.291629076004028,0.02357068657875061,-0.0016757845878601074,-0.0071724653244018555,-0.05294977128505707,-0.042781051248311996,-0.0637359470129013,-0.30486905260216096,0.4235870848286324,0.1279392982302028
4.301562070846558,0.02388659119606018,-0.00415685772895813,-0.0004354119300842285,-0.025090176612138748,-0.04883122071623802,-0.05362233147025108,-0.3051985905242708,0.423024924820954,0.12756165264146999
4.3116350173950195,0.02105596661567688,-0.009218543767929077,0.004875540733337402,-0.0037026298232376575,-0.04789866879582405,-0.04453865811228752,-0.3051781832098257,0.4224520622335646,0.12715785754843215
4.321717262268066,0.02013838291168213,-0.007722735404968262,0.003061532974243164,0.0008282063063234091,-0.05149633437395096,-0.03825519606471062,-0.30498573448287347,0.4219185984972014,0.126798828890768
4.332825183868408,0.02180996537208557,-0.008703351020812988,0.005991637706756592,-0.013205270282924175,-0.055372077971696854,-0.034515056759119034,-0.30471804065039615,0.42136276275546836,0.12650508643636832
4.3416619300842285,0.020669221878051758,-0.01705518364906311,0.006865799427032471,-0.032317180186510086,-0.048039596527814865,-0.03574436902999878,-0.30459557668857257,0.4208505173231248,0.1262815960878445
4.351682186126709,0.01461935043334961,-0.02194783091545105,0.010519266128540039,-0.04549526795744896,-0.04632727429270744,-0.033195991069078445,-0.30473388287713987,0.4204229332147821,0.12614693747494293
4.362190246582031,0.010827511548995972,-0.01761603355407715,0.01974320411682129,-0.058590296655893326,-0.0429312102496624,-0.0261244997382164,-0.3051515694100187,0.42006994459053965,0.126113373827513
4.371739149093628,0.00610584020614624,-0.016035854816436768,0.02301996946334839,-0.053008776158094406,-0.02677736058831215,-0.02214275486767292,-0.3056706155308866,0.4198703786058565,0.12616877636161328
4.382565021514893,0.0016721487045288086,-0.01512250304222107,0.014607667922973633,-0.04443525895476341,-0.01385144330561161,-0.020729415118694305,-0.3061209592051164,0.4198386494264754,0.12623313187139015
4.391747951507568,0.0005171895027160645,-0.01191595196723938,0.015587270259857178,-0.025483207777142525,-0.006994070019572973,-0.017024531960487366,-0.30637467026503123,0.41988658296998016,0.12625348438734177
4.401631116867065,-0.0033856630325317383,-0.007276982069015503,0.020372867584228516,-0.0009424462914466858,-0.003580962773412466,-0.0104049788787961,-0.3064063938236041,0.41995728677907934,0.1262151689027865
4.411704063415527,-0.006272733211517334,0.0021095871925354004,0.021623969078063965,0.01785208098590374,-0.001396726816892624,-0.006724277511239052,-0.30621182536013725,0.42005607496591923,0.12614917309620757
4.421759128570557,-0.00911739468574524,0.002565532922744751,0.024629712104797363,0.028115637600421906,-0.0005040350370109081,-0.010587991215288639,-0.30578164977838174,0.4201255538688079,0.126004448669714
4.432616233825684,-0.011209219694137573,-0.0023848414421081543,0.023196637630462646,0.032179418951272964,0.005216523539274931,-0.012521978467702866,-0.305260500655979,0.42017636073372455,0.12580104004174184
4.442214012145996,-0.014784544706344604,-0.002330869436264038,0.018338441848754883,0.02077789604663849,0.010062944144010544,-0.013272990472614765,-0.3048999607303928,0.4202888162283032,0.12559791732132355
4.452078104019165,-0.014856666326522827,3.826618194580078e-05,0.01417088508605957,0.01186845637857914,0.007497875951230526,-0.01972833275794983,-0.30471978813939415,0.4203813382173409,0.1253940542754083
4.461716175079346,-0.013078093528747559,-0.004042893648147583,0.015108883380889893,0.0022192916367202997,-0.0020809820853173733,-0.02465890906751156,-0.3046631723080553,0.42036352991906256,0.125153409681275
4.4718310832977295,-0.0125369131565094,-0.0002072155475616455,0.012419462203979492,0.0045970953069627285,0.0023591292556375265,-0.023934954777359962,-0.3047211903881747,0.42029344163696863,0.12492035808779191
4.482728004455566,-0.012364894151687622,0.0043228864669799805,0.0028129220008850098,0.01755843497812748,0.006129632703959942,-0.019251253455877304,-0.3047070721263425,0.4202866648842126,0.12466824965830467
4.491971015930176,-0.011250674724578857,0.0031070709228515625,-0.00633847713470459,0.025600779801607132,-0.0006946288049221039,-0.017676154151558876,-0.3046699176025639,0.4202635556660566,0.12440521632686802
4.501809120178223,-0.0022375285625457764,0.007036179304122925,-0.009233713150024414,0.0462900809943676,-0.013740655034780502,-0.007599285338073969,-0.3045180079218894,0.42012509610710835,0.12413698527521902
4.511902093887329,0.005190342664718628,0.009913623332977295,-0.0106886625289917,0.06362422555685043,-0.03195676952600479,0.004092737101018429,-0.30407693007619657,0.41982162355184044,0.1238859824609768
4.525612115859985,0.005772799253463745,0.0098094642162323,-0.005853891372680664,0.06515420973300934,-0.04698258638381958,0.005429377779364586,-0.30351449706256006,0.41931975962121615,0.12363790324329087
4.534725189208984,0.007862746715545654,0.0004324913024902344,-0.005850315093994141,0.05371320992708206,-0.057545751333236694,0.014746074564754963,-0.30302731157311,0.4187098643573216,0.12346121567613745
4.541913986206055,0.01138576865196228,-0.004821032285690308,-0.007029175758361816,0.03233814612030983,-0.07299687713384628,0.019901154562830925,-0.3026163818733611,0.4180249624743747,0.12344148186114721
4.552102088928223,0.014362871646881104,-0.0076646506786346436,-0.0008190274238586426,0.0070245335809886456,-0.09272681921720505,0.02259659394621849,-0.30243031037000456,0.4172103909844403,0.1235502903725678
4.561992168426514,0.018212050199508667,-0.010722219944000244,0.0027083158493041992,-0.025573888793587685,-0.11093617975711823,0.025814490392804146,-0.30253230121731045,0.4162235551066592,0.12381344115351792
4.572148084640503,0.01922038197517395,-0.01692885160446167,0.005276679992675781,-0.05807848647236824,-0.11212071031332016,0.0320129431784153,-0.30286413748537694,0.41518448463342056,0.12424968221474446
4.583182096481323,0.01569145917892456,-0.020826399326324463,0.0028972625732421875,-0.0853591114282608,-0.11657937616109848,0.03870919719338417,-0.3034625856759672,0.41424097675086696,0.12490576077823458
4.592151165008545,0.017084449529647827,-0.017544835805892944,0.004164218902587891,-0.1096850037574768,-0.12958736717700958,0.04552166908979416,-0.304277101268201,0.41330011612977385,0.12573239193804633
4.6024250984191895,0.020958006381988525,-0.016331523656845093,0.010424673557281494,-0.1268131285905838,-0.1361565887928009,0.04835766926407814,-0.30526068124710903,0.4123030838825078,0.12669229628390394
4.612040996551514,0.01579052209854126,-0.01602846384048462,0.011460423469543457,-0.10372626036405563,-0.10398884117603302,0.057064663618803024,-0.30611089338808356,0.4114539042371165,0.12771823614080463
4.622223138809204,0.006009340286254883,-0.0121212899684906,0.0014039278030395508,-0.05624210461974144,-0.08471767604351044,0.06700011342763901,-0.30643001627283595,0.4109047036394607,0.12868423103427395
4.633446216583252,0.0003463625907897949,0.005507737398147583,0.007422685623168945,-0.0031376732513308525,-0.10659420490264893,0.0715114027261734,-0.3062645911807558,0.41032557621041543,0.12950775013968047
4.64212703704834,0.005187332630157471,0.013979464769363403,0.025371551513671875,0.03126983717083931,-0.12467893958091736,0.0758635401725769,-0.30563727619794095,0.40948475326600725,0.1302080702287391
4.6521711349487305,-0.001221299171447754,0.007336139678955078,0.03099966049194336,0.03313176706433296,-0.10083809494972229,0.07027431577444077,-0.3047953927827642,0.40865479269086563,0.13081405895830267
4.662106037139893,-0.019821196794509888,-0.008781582117080688,0.032154202461242676,-0.0005215336568653584,-0.07051907479763031,0.05888237804174423,-0.3040963100736094,0.40808857055875947,0.13140402205815865
4.672178268432617,-0.029701441526412964,-0.020178765058517456,0.03619885444641113,-0.037684764713048935,-0.04719000309705734,0.04250020533800125,-0.30387122771090963,0.4078056294443837,0.13200726360369316
4.683026075363159,-0.02886056900024414,-0.017564773559570312,0.03623616695404053,-0.04534374922513962,-0.03496822342276573,0.029041655361652374,-0.30399420921090436,0.40769849537456704,0.1325712602883221
