timestamp,accel_x,accel_y,accel_z,rotation_x,rotation_y,rotation_z, pitch,roll,yaw
0.04114508628845215,0.0024468526244163513,0.0022413916885852814,0.015499293804168701,-0.001564644044265151,0.00850379653275013,0.003500876948237419,0.050174744232384674,-0.04811893274433148,0.0012076638239587165
0.0543370246887207,0.004029303789138794,0.0013422556221485138,0.009814560413360596,2.266676165163517e-05,0.00560432393103838,-0.0014203254831954837,0.05014532388998446,-0.048007319865445645,0.0012203362685524336
0.06843209266662598,0.006092824041843414,0.002040587365627289,0.004679858684539795,-0.004840798210352659,0.003575794165953994,-0.005424121860414743,0.05006535630379799,-0.04793424272852362,0.0011905706936682216
0.07241415977478027,0.006763651967048645,0.0011923350393772125,-0.0010791420936584473,-0.007753297686576843,0.001187560148537159,-0.011282596737146378,0.049918824354784744,-0.04790273948106609,0.0010996243371742028
0.07378411293029785,0.007545847445726395,4.268437623977661e-05,-0.005755066871643066,-0.013308918103575706,-0.0033371499739587307,-0.018658220767974854,0.04973024175932814,-0.047921586527077335,0.000938508765561594
0.07816815376281738,0.006960812956094742,-0.003974169492721558,-0.005551636219024658,-0.014752434566617012,-0.004865317139774561,-0.022434264421463013,0.049573671892378934,-0.04797718443064117,0.0007310194618147349
0.0868539810180664,0.006096068769693375,-0.007993184030056,-0.0037509799003601074,-0.009254071861505508,-0.003859973978251219,-0.02375146374106407,0.0495066038777722,-0.04804322549854829,0.0004999357188181122
0.09696102142333984,0.002726934850215912,-0.009534448385238647,-0.004835188388824463,-0.0009413145016878843,-0.0022149388678371906,-0.021928850561380386,0.049491198580437955,-0.04807684456880892,0.00026720059551250193
0.1068730354309082,0.0018661431968212128,-0.009927928447723389,-0.005507946014404297,0.008593334816396236,-0.0022122757509350777,-0.020029481500387192,0.0495250040411766,-0.04807061098502898,4.762593452962805e-05
0.11690211296081543,0.0022915080189704895,-0.012019764631986618,-0.004751682281494141,0.017986303195357323,-0.004293003585189581,-0.013687697239220142,0.04966111802128496,-0.04806904794091611,-0.00011457406339601022
0.1269512176513672,0.004758019000291824,-0.012726757675409317,-0.002013683319091797,0.01863531582057476,-0.006139905657619238,-0.00516105443239212,0.04983935554469841,-0.048064052189786335,-0.00019482945470556163
0.13694310188293457,0.005826842039823532,-0.012373115867376328,-0.0010303854942321777,0.016428271308541298,-0.010784502141177654,-0.001953223953023553,0.04999482401345237,-0.04808042633271658,-0.00022097155792801996
0.14853525161743164,0.00891033560037613,-0.015342727303504944,0.0007912516593933105,0.011918473988771439,-0.016853846609592438,0.004137158859521151,0.0501229073706107,-0.048143141768262745,-0.00019929878334035592
0.15696120262145996,0.010247394442558289,-0.01679237186908722,0.0025472044944763184,0.010139982216060162,-0.019435426220297813,0.00502319261431694,0.05029090871022434,-0.048260186131110515,-0.00016038044998619718
0.16718411445617676,0.012535329908132553,-0.012023169547319412,0.003017723560333252,0.008745018392801285,-0.021543851122260094,0.008732443675398827,0.050497991242769866,-0.04841276360318481,-8.190587135762421e-05
0.17707300186157227,0.01368289440870285,-0.005439881235361099,0.0007391571998596191,0.00856698676943779,-0.021891305223107338,0.010118724778294563,0.0507186523134933,-0.04860002880160735,1.8334012569424205e-05
0.18721508979797363,0.011255450546741486,-0.003239404410123825,0.0017102956771850586,0.01103786751627922,-0.020254259929060936,0.00925746001303196,0.050951044026355696,-0.048782866638382966,0.00011340402140407831
0.19907212257385254,0.009981773793697357,-0.0005723834037780762,0.004831850528717041,0.014357415027916431,-0.014549635350704193,0.009389817714691162,0.05123807158773742,-0.04892934012048287,0.00021133242477621266
0.20733022689819336,0.009254474192857742,0.0041682422161102295,0.005023598670959473,0.022223858162760735,-0.008376695215702057,0.00602304982021451,0.05159990086241893,-0.04899657600214532,0.00029633473876899274
0.21726322174072266,0.009053587913513184,0.005249690264463425,0.007106661796569824,0.025452543050050735,-0.009027127176523209,-0.000588353956118226,0.0520105137103108,-0.049025683329040066,0.0003239479482437832
0.22705507278442383,0.009430397301912308,0.007275927811861038,0.00775301456451416,0.023104965686798096,-0.01300535723567009,-0.0030797412618994713,0.05246571150290026,-0.04905277238766009,0.00030803304124037124
0.23708820343017578,0.011030975729227066,0.007098063826560974,0.007041990756988525,0.017767807468771935,-0.008674390614032745,-0.004318909719586372,0.05291408450020561,-0.0490676381250195,0.00027993490987210964
0.2482011318206787,0.009388849139213562,0.005034312605857849,0.006265103816986084,0.006203297525644302,-0.009452566504478455,-0.0010346996132284403,0.05320058955582649,-0.04904361985511122,0.0002519675500204153
0.25707316398620605,0.010156985372304916,-0.0011904165148735046,0.005851805210113525,-0.0025547572877258062,-0.007348359562456608,0.0006085771601647139,0.053262562245216194,-0.04900309690601884,0.0002447370188374658
0.2670760154724121,0.013262707740068436,-0.006425932049751282,0.007439970970153809,-0.001884439610876143,-0.007747833617031574,0.0056470115669071674,0.053245537512318405,-0.04899596911095518,0.0002713618015114517
0.2771871089935303,0.013712942600250244,-0.008763361722230911,0.007883012294769287,0.002798429224640131,-0.00933152623474598,0.013777109794318676,0.05322741935911153,-0.04900367243812763,0.00036469638641010245
0.28729820251464844,0.015022095292806625,-0.009470697492361069,0.009225547313690186,0.013393016532063484,-0.008239630609750748,0.021909337490797043,0.05320669266270253,-0.04903110419468487,0.0005462778338541611
0.29929018020629883,0.015189670026302338,-0.01070581004023552,0.008336544036865234,0.02210415154695511,-0.006171597633510828,0.031001050025224686,0.053268673121758196,-0.04904629056821861,0.0008124258928516306
0.3072490692138672,0.013922873884439468,-0.01146579161286354,0.004455745220184326,0.022511079907417297,-0.0052474807016551495,0.03953035548329353,0.053363315252292834,-0.04904622306142284,0.001167306179427901
0.31728219985961914,0.014077272266149521,-0.013829391449689865,0.006406188011169434,0.01372155174612999,-0.004288476426154375,0.043559134006500244,0.05342594916732473,-0.04903290067434636,0.0015843372990583214
0.32716798782348633,0.012724421918392181,-0.01752418652176857,0.009349465370178223,0.008379517123103142,-0.009499749168753624,0.04845482110977173,0.05343905641231161,-0.04905342861177846,0.0020432065594012698
0.33732008934020996,0.011054687201976776,-0.017291180789470673,0.011709988117218018,0.004109404049813747,-0.00947950966656208,0.05571193993091583,0.05348902769631349,-0.04909291246413014,0.0025648473714894554
0.34929609298706055,0.009538084268569946,-0.014060072600841522,0.015199780464172363,0.0005519532132893801,-0.004448798950761557,0.05561020225286484,0.0535769538968635,-0.04908714840690057,0.0031114547557311457
0.35746002197265625,0.004404153674840927,-0.010244138538837433,0.014647185802459717,0.004267379641532898,0.0023452364839613438,0.049790821969509125,0.05370044279364998,-0.049019279528082396,0.003636668361438337
0.3674790859222412,-0.0029837191104888916,-0.006607305258512497,0.01484370231628418,0.014491786248981953,0.01596570760011673,0.04481364041566849,0.053904340131653274,-0.04883359913885668,0.004107794602182586
0.3777470588684082,-0.00911078229546547,0.0011458955705165863,0.014994025230407715,0.028340091928839684,0.03154821693897247,0.04117294028401375,0.054242265527806574,-0.04850489174373783,0.0045481664885678825
0.3887672424316406,-0.016005098819732666,0.0070547983050346375,0.012899279594421387,0.04705146327614784,0.0483037605881691,0.03786822408437729,0.05475031084742075,-0.04801932197475913,0.004954621151730091
0.39986228942871094,-0.01831234246492386,0.009654998779296875,0.007715880870819092,0.061849165707826614,0.056173715740442276,0.03216160088777542,0.055474782942612766,-0.04740607983371854,0.00532553609761791
0.4074273109436035,-0.019829511642456055,0.01303710788488388,0.00498121976852417,0.06704819202423096,0.05709543451666832,0.025456296280026436,0.05634053778411639,-0.046774509123029245,0.005645925568942292
0.4174501895904541,-0.01968345046043396,0.01501750573515892,0.007693469524383545,0.060735948383808136,0.05771981179714203,0.013031957671046257,0.05719316010050037,-0.046142923672079894,0.005864962437743954
0.4274630546569824,-0.01979830488562584,0.011088307946920395,0.009465515613555908,0.04765183851122856,0.054821230471134186,0.005276565905660391,0.057903814651600834,-0.045540031224583985,0.005973667006574167
0.43735504150390625,-0.021170884370803833,0.007171042263507843,0.009215950965881348,0.033790118992328644,0.05147762969136238,-0.007647168822586536,0.058412458521128946,-0.04500657493749506,0.0059880431840021574
0.4499530792236328,-0.020785335451364517,0.0077345483005046844,0.009276270866394043,0.025918079540133476,0.04270384460687637,-0.013864584267139435,0.05874765390075123,-0.04458313623526401,0.005893770909876358
0.45751309394836426,-0.020248431712388992,0.011725284159183502,0.005780816078186035,0.03487975150346756,0.03672655671834946,-0.018092192709445953,0.05898514480051184,-0.04429590632275117,0.005748747505712514
0.4678671360015869,-0.018676061183214188,0.015351243317127228,0.0029835104942321777,0.043149396777153015,0.04016496613621712,-0.019361987709999084,0.0592393551870287,-0.044067780449571985,0.005589745465751168
0.47797727584838867,-0.022632095962762833,0.019486021250486374,-0.003494083881378174,0.05161665380001068,0.036953724920749664,-0.02114817127585411,0.059544710363577696,-0.04383504779982507,0.005418201835767211
0.489011287689209,-0.023005135357379913,0.021482672542333603,-0.0072013139724731445,0.05984022468328476,0.025060046464204788,-0.028923533856868744,0.0598940396750487,-0.04369141469253796,0.005205583978951489
0.4986090660095215,-0.021321464329957962,0.022685404866933823,-0.006779789924621582,0.0581836923956871,0.013857859186828136,-0.032826077193021774,0.060273473803325976,-0.04365172359328338,0.0049279648673127095
0.5075950622558594,-0.019246160984039307,0.023173637688159943,-0.00568920373916626,0.04415389150381088,0.0059618535451591015,-0.03485780581831932,0.060625026945446095,-0.04369866926865763,0.004635048256042654
0.5175731182098389,-0.01516391709446907,0.020631618797779083,-0.009116291999816895,0.03527779132127762,-0.0059846872463822365,-0.04046104475855827,0.06092168611127773,-0.043845340286150836,0.0042751930254721245
0.5275270938873291,-0.008569005876779556,0.013568781316280365,-0.00988912582397461,0.025135677307844162,-0.02631872147321701,-0.04403633624315262,0.061122405943735664,-0.0441397438272185,0.003875688390494231
0.5376172065734863,-0.0005653500556945801,0.014536932110786438,-0.0068013668060302734,0.01484920084476471,-0.05220264941453934,-0.045669276267290115,0.06115984696806461,-0.044652901306564165,0.0034483737324989376
0.5490190982818604,0.00725167989730835,0.014724552631378174,-0.0020360946655273438,0.0010516289621591568,-0.07217901945114136,-0.048470389097929,0.0610420619510466,-0.04539165491963483,0.002991841194118644
0.5576481819152832,0.014800313860177994,0.008734967559576035,0.0024282336235046387,-0.0171161238104105,-0.08360344916582108,-0.05018482729792595,0.06071288159854256,-0.04630444342136155,0.0024976575759716726
0.5676941871643066,0.017151065170764923,0.004616469144821167,0.003589630126953125,-0.031954456120729446,-0.08785279095172882,-0.04560871794819832,0.060179224857584854,-0.04728325799337481,0.002009996166735023
0.5778040885925293,0.021703563630580902,0.005966901779174805,-0.0007375478744506836,-0.037721481174230576,-0.0901622325181961,-0.04258427396416664,0.05954487788288141,-0.048266268883408334,0.001561505031636127
0.5877301692962646,0.02505263313651085,0.00543086975812912,0.00016993284225463867,-0.04190051555633545,-0.0905209630727768,-0.043269239366054535,0.05887033499664045,-0.04925117662834955,0.0011142944760821672
0.5990641117095947,0.030296985059976578,0.0031440146267414093,0.005622565746307373,-0.044062018394470215,-0.09473706036806107,-0.044348832219839096,0.058215052952234884,-0.05022402562057053,0.0006666927947910576
0.6077179908752441,0.03362894430756569,0.004094064235687256,0.013041317462921143,-0.05312688648700714,-0.09471229463815689,-0.052949246019124985,0.05760768388700552,-0.051161348283084385,0.0001610967383914921
0.6177551746368408,0.03221941739320755,-0.004473872482776642,0.022360384464263916,-0.060157448053359985,-0.0881151556968689,-0.049618374556303024,0.05692742389670118,-0.05199533145283856,-0.0003912128239409228
0.6276741027832031,0.029742080718278885,-0.00792461633682251,0.02527904510498047,-0.05645432323217392,-0.07269305735826492,-0.04597197100520134,0.056222138002660134,-0.05267650013494804,-0.0009014344866133835
0.6377673149108887,0.028498291969299316,-0.004780363291501999,0.02925163507461548,-0.043125852942466736,-0.055236879736185074,-0.045288607478141785,0.05568818186633828,-0.05314148835577237,-0.0013929103641795045
0.6487722396850586,0.022197362035512924,-0.0059494748711586,0.025408446788787842,-0.02900124527513981,-0.04514296352863312,-0.046016182750463486,0.05535779271472427,-0.05344754422710686,-0.0018800821178462561
0.6578371524810791,0.020120278000831604,-0.003928709775209427,0.020959675312042236,-0.02707824483513832,-0.032324016094207764,-0.04610145837068558,0.05507404490744002,-0.05361315101491509,-0.0023649938606173132
0.6677050590515137,0.019009161740541458,-0.0014917775988578796,0.021748900413513184,-0.0165928453207016,-0.01803961955010891,-0.040013737976551056,0.054855627177186936,-0.05363060025452106,-0.0028255957711914577
0.677666187286377,0.014116846024990082,-0.002896927297115326,0.01953411102294922,-0.011857811361551285,-0.0011306768283247948,-0.0435505211353302,0.05474731071089011,-0.05349832063475689,-0.0032703316115690103
0.6878101825714111,0.009949300438165665,-0.009990192949771881,0.018225431442260742,-0.009438063018023968,0.011170463636517525,-0.041468992829322815,0.05465769764576336,-0.05323599730953263,-0.0037146724525346847
0.6990342140197754,0.007952224463224411,-0.013753224164247513,0.01524972915649414,-0.003691710764542222,0.013631890527904034,-0.0383978933095932,0.05467887376568364,-0.052931824349390255,-0.0041323500604432154
0.7076361179351807,0.009359829127788544,-0.014989033341407776,0.01222240924835205,0.0036335799377411604,0.01346304640173912,-0.03429369628429413,0.05478600116164628,-0.05264518620135276,-0.004510702812494709
0.7176260948181152,0.011940117925405502,-0.018273860216140747,0.013068675994873047,0.010097821243107319,0.01973865181207657,-0.02344471961259842,0.05493462539907097,-0.05235642123696545,-0.004809965274675584
0.7276041507720947,0.010938547551631927,-0.025360487401485443,0.008469700813293457,0.005997618660330772,0.024583740159869194,-0.01310419850051403,0.055080883870448176,-0.05202570856721627,-0.004995438615184239
0.7376410961151123,0.010926008224487305,-0.028681550174951553,0.003338754177093506,-0.000509749399498105,0.016036592423915863,-0.0034336219541728497,0.05514736897915369,-0.05173787435964678,-0.005083649651611932
0.7480840682983398,0.015006817877292633,-0.034973565489053726,0.004583299160003662,-0.001497249468229711,0.008599980734288692,0.008737556636333466,0.05515725488531896,-0.05156100565095458,-0.005065889239817471
0.7576391696929932,0.01607392728328705,-0.035641010850667953,0.007749736309051514,-0.012667911127209663,0.004909016657620668,0.021906675770878792,0.05511535327047315,-0.051452763994677145,-0.004911846760152821
0.7676751613616943,0.013538587838411331,-0.03216243162751198,0.005042910575866699,-0.02630462870001793,0.0008271900005638599,0.03157341852784157,0.054992674121794385,-0.05140412156122701,-0.00464748978396878
0.7776591777801514,0.011249050498008728,-0.03413383662700653,0.004122436046600342,-0.03692067041993141,-0.0059256539680063725,0.04159238934516907,0.054790986206073575,-0.051418131978676174,-0.004296933630782776
0.7877621650695801,0.010913446545600891,-0.029087282717227936,0.0052773356437683105,-0.036505747586488724,-0.00885087065398693,0.04914777725934982,0.054542363312343856,-0.05147872282121268,-0.0038609491940273747
0.7982292175292969,0.007939819246530533,-0.02106301113963127,0.0038167834281921387,-0.027478167787194252,-0.006417007651180029,0.053967833518981934,0.05441826325876808,-0.05152612403551501,-0.0033659210379528653
0.8081061840057373,0.0016107745468616486,-0.01489824429154396,0.0017965435981750488,-0.010275743901729584,0.0002731191925704479,0.05333772674202919,0.05454072772633548,-0.05151453107153069,-0.0028469551127428554
0.8182129859924316,-0.003401968628168106,-0.009484782814979553,0.0006053447723388672,0.01009322702884674,0.0015726087149232626,0.05199757218360901,0.054888790465196374,-0.05146172430179851,-0.002325737210120819
0.828118085861206,-0.0034679770469665527,-0.0020928792655467987,-0.0009191632270812988,0.023194914683699608,0.00016060052439570427,0.05202100798487663,0.055491452658527174,-0.051381937710035894,-0.001802738723007499
0.8381252288818359,-0.00357683002948761,0.003393314778804779,-0.0008293390274047852,0.016371561214327812,-0.001627978403121233,0.0430215485394001,0.056141619212152806,-0.05130523862174597,-0.001324451364679673
0.8493971824645996,-0.00316663458943367,-0.00027880817651748657,0.0018477439880371094,0.0020597351249307394,-0.0017177267000079155,0.03771280124783516,0.0566053687665068,-0.05125887509019406,-0.0009148809606578225
0.8583781719207764,-0.003505885601043701,-0.0038376450538635254,0.0048653483390808105,-0.009134945459663868,-0.0023611020296812057,0.030678968876600266,0.05696862605992149,-0.051225761994551366,-0.000581263174283737
0.8683631420135498,-0.003024742007255554,-0.0007876232266426086,0.005953848361968994,-0.016383804380893707,-0.005692183505743742,0.021366160362958908,0.05716557302058687,-0.051203877679664264,-0.00032536774255078157
0.8782191276550293,-0.003767620772123337,0.0017644688487052917,0.004038512706756592,-0.012924357317388058,-0.015897683799266815,0.017236929386854172,0.05724587133023196,-0.051270144368627216,-0.00015159737887287747
0.8880071640014648,-0.0014280900359153748,0.006563246250152588,0.0018761754035949707,-0.015175526961684227,-0.02640332095324993,0.012196630239486694,0.057253405132889984,-0.05147407230061944,-1.6280918389452537e-05
0.8982810974121094,0.0023974068462848663,0.01000107079744339,0.005112171173095703,-0.005997675471007824,-0.02379431203007698,0.0090174013748765,0.05724272475712182,-0.05176034175407319,8.829752414929551e-05
0.9078750610351562,-0.0005190707743167877,0.00641205906867981,0.00467681884765625,-0.005410980898886919,-0.018408335745334625,0.012175378389656544,0.05717839124340959,-0.051987668083156933,0.00018707332698188078
0.9179210662841797,-0.005398280918598175,0.010043025016784668,-0.00014847517013549805,-0.007296249270439148,-0.018738966435194016,0.009363720193505287,0.057055494545771517,-0.052189869735929525,0.00029808641589777735
0.928002119064331,-0.003223910927772522,0.010971415787935257,0.003950715065002441,-0.012300061993300915,-0.01821831800043583,0.009280096739530563,0.05696139396780076,-0.05239619368562941,0.00038490478855406296
0.9387321472167969,-0.002454809844493866,0.00834796205163002,0.0068909525871276855,-0.018122930079698563,-0.017857369035482407,0.01174655556678772,0.05685546652394172,-0.0526010147689204,0.000490671865405696
0.9495601654052734,-0.0030375123023986816,0.006668459624052048,0.008722901344299316,-0.021025776863098145,-0.010757649317383766,0.00994732417166233,0.05668631116019946,-0.05276598349498055,0.0005845613833148377
0.9580731391906738,-0.004746999591588974,0.004651427268981934,0.010058045387268066,-0.025278745219111443,-0.013720149174332619,0.010961881838738918,0.056423619246439266,-0.052902435475827965,0.0006756045882254766
0.9679901599884033,-0.0017044618725776672,0.0069612860679626465,0.007777810096740723,-0.02678076922893524,-0.020659280940890312,0.014620266854763031,0.0560931860430366,-0.053091155284828856,0.0007856149309693332
0.9779741764068604,0.003508560359477997,0.0040605925023555756,0.009621798992156982,-0.034429751336574554,-0.02298053726553917,0.01371239498257637,0.05566374555928466,-0.053298639901873286,0.0009061393339461167
0.9882171154022217,0.0034027695655822754,0.008438460528850555,0.004993021488189697,-0.037795986980199814,-0.027969172224402428,0.021016646176576614,0.05523443864935808,-0.05355855811858381,0.0010670588452837237
0.999061107635498,0.0037031807005405426,0.007559303194284439,0.004650890827178955,-0.035681817680597305,-0.03429733216762543,0.011890046298503876,0.05473599856358966,-0.0539042946268048,0.0012162730326233946
1.0085761547088623,0.0048095472157001495,0.0037014707922935486,0.006399989128112793,-0.04712621867656708,-0.032270397990942,0.01854315586388111,0.054219069780372324,-0.05424721004640431,0.0013524123375562881
1.0182032585144043,0.0014632530510425568,0.0067487917840480804,0.005742132663726807,-0.06606337428092957,-0.036397188901901245,0.01833239197731018,0.053588105607660454,-0.054623312044667964,0.00149372120778385
1.028196096420288,0.002729654312133789,0.0019557401537895203,0.00817781686782837,-0.09079056233167648,-0.030994433909654617,0.017279114574193954,0.052761167246835355,-0.05497279170147969,0.0016513136331848554
1.038283109664917,0.00200624018907547,-0.0051157474517822266,0.003724217414855957,-0.10146121680736542,-0.03361906856298447,0.006973851937800646,0.051776595476593565,-0.05531564832199101,0.0017039893555721027
1.049269199371338,0.0005610138177871704,0.0037974491715431213,-0.0008184909820556641,-0.11156284809112549,-0.03641298785805702,0.01763874664902687,0.05069386405832599,-0.05568419718335309,0.0017602290719301904
1.0583741664886475,0.006234284490346909,0.002114567905664444,0.00017011165618896484,-0.11790245771408081,-0.023199139162898064,0.03313077986240387,0.04954359293303829,-0.055953390732348195,0.0019497910041477763
1.068256139755249,0.0047680288553237915,0.00907137617468834,-0.004905641078948975,-0.1242184117436409,-0.021898983046412468,0.026383129879832268,0.04828967881246111,-0.056132150296111176,0.0021959062542905587
1.0781981945037842,0.0020733363926410675,0.0050285495817661285,-0.003083527088165283,-0.145855113863945,-0.03446062654256821,0.023606784641742706,0.04690030787074046,-0.056379359161294676,0.0023504216930905182
1.0883359909057617,0.00778203085064888,0.0049527548253536224,0.0034945011138916016,-0.16890130937099457,-0.04734260216355324,0.032015182077884674,0.045388575721656534,-0.056775106173334214,0.002539574546360289
1.0988759994506836,0.011512458324432373,0.006402552127838135,0.008127033710479736,-0.1961003541946411,-0.05117546766996384,0.03171733394265175,0.04354064355717042,-0.05725197129929023,0.002749659476890974
1.1081690788269043,0.004487592726945877,-0.003434251993894577,0.012534677982330322,-0.22825589776039124,-0.05569565296173096,0.021869231015443802,0.041483970311268,-0.05774593355014105,0.002883401107244765
1.1183171272277832,-0.0014930889010429382,-0.016629334539175034,0.023958146572113037,-0.2719587981700897,-0.07602062821388245,0.03650372847914696,0.039181788677525094,-0.05838377240630517,0.003038856102870389
1.1283612251281738,0.0009498149156570435,-0.005870714783668518,0.02753591537475586,-0.30558761954307556,-0.11180179566144943,0.02207205630838871,0.036327533432793796,-0.05931198342919505,0.003159187494062191
1.138578176498413,0.01563790813088417,0.003367379307746887,0.017354607582092285,-0.32300326228141785,-0.1552407145500183,0.024888191372156143,0.033310992016199095,-0.060614959051371146,0.0031900431687263333
1.1491801738739014,0.01901748776435852,-0.0015796776860952377,0.017007052898406982,-0.33604395389556885,-0.17386792600154877,0.03463909029960632,0.030086555277338254,-0.06222208301642825,0.0033009383576398524
1.1583762168884277,0.01455996185541153,0.006805542856454849,-0.001513659954071045,-0.37095123529434204,-0.17446380853652954,0.03569689393043518,0.02667535744742515,-0.06394237975835623,0.0034332247527781635
1.1684479713439941,0.004904642701148987,-0.0015378482639789581,-0.009950101375579834,-0.40425512194633484,-0.17054550349712372,0.03250003606081009,0.022954232689311363,-0.06557652528634825,0.003513103672371121
1.17836332321167,-0.0026255324482917786,-0.028823263943195343,-0.016268551349639893,-0.4516875743865967,-0.16141901910305023,0.03317275270819664,0.018830754781066817,-0.0671233610667612,0.0035557232240126494
1.1884970664978027,-0.007077865302562714,-0.04976992681622505,-0.011936545372009277,-0.4944739043712616,-0.16950570046901703,0.026870116591453552,0.01437822667862224,-0.06868178028120649,0.003523589141153291
1.1993591785430908,-0.010185614228248596,-0.06204891949892044,0.008712947368621826,-0.4896681606769562,-0.2086629718542099,0.03695353865623474,0.009407836146845075,-0.07056424656892087,0.0034936136832361005
1.2084670066833496,-0.008341051638126373,-0.05529918521642685,0.026210904121398926,-0.4857517182826996,-0.28008973598480225,0.039865970611572266,0.00449973162179146,-0.07300781180685782,0.0035525001861985944
1.2186460494995117,-0.0033005475997924805,-0.06815361976623535,0.03637927770614624,-0.4640193581581116,-0.34413012862205505,0.05087888240814209,-0.00029807783426354724,-0.07613365949200625,0.0035999348130993413
1.228581190109253,0.004933454096317291,-0.09428127110004425,0.015632569789886475,-0.39863476157188416,-0.4401400089263916,0.14611858129501343,-0.004743004219665292,-0.08003168208385078,0.004218766707860179
1.2386460304260254,0.01889599859714508,-0.0799318179488182,-0.031631410121917725,-0.2955676019191742,-0.5556090474128723,0.20598676800727844,-0.008292192284094323,-0.08502582575176747,0.005755136035515965
1.2510011196136475,0.017471566796302795,-0.10684438049793243,-0.0723346471786499,-0.27119168639183044,-0.6090037822723389,0.27007734775543213,-0.011340153988677317,-0.09085951687476258,0.007814604478651168
1.259322166442871,0.007771424949169159,-0.1745889037847519,-0.1264197826385498,-0.22571679949760437,-0.6754525303840637,0.4110514521598816,-0.014143494241287642,-0.09722839566441459,0.010942896496424973
1.2686231136322021,-0.0035389140248298645,-0.18271522223949432,-0.16906946897506714,-0.14387652277946472,-0.7895362377166748,0.5456708073616028,-0.01647174584050242,-0.10446821106843916,0.015566618610107143
1.2786121368408203,-0.01248672604560852,-0.19688139855861664,-0.17415958642959595,-0.08724096417427063,-0.9021967053413391,0.6520361304283142,-0.01827858200336141,-0.11284745005836476,0.021380697823243096
1.2884721755981445,-0.024238795042037964,-0.23788726329803467,-0.1604853868484497,0.004870318807661533,-1.0560039281845093,0.7813126444816589,-0.01958130145451975,-0.12249856121948188,0.02844021874577209
1.2989161014556885,-0.04262572526931763,-0.24386325478553772,-0.12565529346466064,0.1229642778635025,-1.2149261236190796,0.8594011068344116,-0.019942122208066754,-0.1337172001208516,0.036738302013877615
1.30855131149292,-0.06574806571006775,-0.24903303384780884,-0.07948201894760132,0.15936224162578583,-1.3565869331359863,0.9031283855438232,-0.01972550910006298,-0.14642685461112298,0.04568183436756568
1.3186559677124023,-0.09226018190383911,-0.260440468788147,-0.062436699867248535,0.16289234161376953,-1.472937822341919,0.9176070094108582,-0.01952096083602063,-0.1604255812336284,0.054975752243727895
1.3286631107330322,-0.1299407184123993,-0.2826414108276367,-0.052938997745513916,0.20054730772972107,-1.5479305982589722,0.9428554177284241,-0.01930670215242258,-0.17538687650346652,0.06443053464906023
1.3387951850891113,-0.17772917449474335,-0.3104923665523529,-0.028459787368774414,0.26839613914489746,-1.6942373514175415,0.9731838703155518,-0.01874569233941717,-0.19140571936255774,0.07431863387412282
1.349424123764038,-0.20242276787757874,-0.2766791582107544,-0.004693150520324707,0.29942968487739563,-1.8979142904281616,0.9484982490539551,-0.017815007889359587,-0.2091659045248977,0.08435880261767624
1.3587050437927246,-0.2114184945821762,-0.2579425871372223,0.048129379749298096,0.18683375418186188,-2.0702900886535645,0.9073982834815979,-0.017327863037265797,-0.2288867642404094,0.09401414726853698
1.3695311546325684,-0.24703460931777954,-0.3050979673862457,0.0794413685798645,0.016739526763558388,-2.155991554260254,0.8848194479942322,-0.018447670320511495,-0.25003484878509624,0.10293412595870757
1.3788442611694336,-0.3226217031478882,-0.38447052240371704,0.05932319164276123,-0.20705051720142365,-2.1011126041412354,0.8967190980911255,-0.021603206928147895,-0.2712071012044763,0.11127069895988198
1.3888139724731445,-0.39826205372810364,-0.43917614221572876,0.029427289962768555,-0.42826250195503235,-2.0556278228759766,1.0892666578292847,-0.027406136479465174,-0.29177422884523296,0.1198284300457359
1.39890718460083,-0.43083077669143677,-0.40015971660614014,-0.003130674362182617,-0.6586204767227173,-2.176118850708008,1.3690859079360962,-0.036169452393845836,-0.3124669577494703,0.12998800932134913
1.4086589813232422,-0.3855680525302887,-0.3885805904865265,-0.017420053482055664,-0.9286434650421143,-2.3758344650268555,1.6234151124954224,-0.04849671100814885,-0.3348949826021352,0.14167364893255055
1.418666124343872,-0.31216368079185486,-0.48074501752853394,0.0001163482666015625,-1.0585516691207886,-2.334667205810547,1.834617018699646,-0.06378105665223009,-0.35798019006256726,0.15457696146958555
1.4286623001098633,-0.28173625469207764,-0.5694660544395447,-0.05485802888870239,-1.019910454750061,-1.9878416061401367,1.9776279926300049,-0.08037124966757273,-0.37874647112543985,0.16870501219770875
1.4387211799621582,-0.35437488555908203,-0.50108802318573,-0.21581989526748657,-0.9135771989822388,-1.4491311311721802,1.9668174982070923,-0.09694317591711797,-0.39473902661996707,0.1835331314847974
1.4490361213684082,-0.3681398630142212,-0.4373863935470581,-0.3151102662086487,-0.7736960053443909,-1.254852294921875,2.2037668228149414,-0.11325726626831106,-0.4072332181048276,0.1997511909692769
1.4586472511291504,-0.2831835150718689,-0.40646159648895264,-0.22522187232971191,-0.27230292558670044,-0.8835296034812927,2.3607490062713623,-0.12624883214340837,-0.41476651318698915,0.2176901136410497
1.4689183235168457,-0.29268282651901245,-0.24334684014320374,-0.14719897508621216,0.32228824496269226,-0.48902007937431335,2.3940746784210205,-0.13590060823536743,-0.4185351273046965,0.24014463890480475
1.4788379669189453,-0.2984130382537842,-0.0868719071149826,0.05434274673461914,1.1032652854919434,0.04514973610639572,2.475994348526001,-0.13861563527894694,-0.4173780002143342,0.2663370630599982
1.488856315612793,-0.2576298117637634,-0.19882425665855408,0.19206559658050537,1.446679711341858,0.46393445134162903,2.666632890701294,-0.1371507543455289,-0.4109574927206544,0.2951805754128349
1.4999151229858398,-0.1613714098930359,-0.0595954954624176,0.2956729531288147,1.2609955072402954,0.7638054490089417,2.6430957317352295,-0.135033135940891,-0.4007480958223752,0.32533702153278077
1.5089073181152344,-0.26081570982933044,-0.15332096815109253,0.26470059156417847,0.9546331167221069,1.1367926597595215,2.7040257453918457,-0.1350083719878581,-0.38735190462826197,0.3545108176439626
1.5196881294250488,-0.30858325958251953,-0.3771921992301941,0.32121217250823975,0.8735988140106201,1.5034353733062744,2.810028314590454,-0.13692770754190245,-0.3701760261623612,0.38373713084651
1.5289082527160645,-0.1816355586051941,-0.35341259837150574,0.4126627445220947,0.6993303298950195,1.8846533298492432,2.8586864471435547,-0.1391550006882122,-0.34907151874860187,0.4134501651348521
1.539013147354126,-0.11214283108711243,-0.1434207707643509,0.4000098705291748,0.42721790075302124,1.998396396636963,3.110801935195923,-0.14356260082595126,-0.32530327297998557,0.4437390378012133
1.548997163772583,-0.10854384303092957,-0.09156441688537598,0.45513415336608887,0.3245796859264374,1.8263531923294067,3.3084676265716553,-0.1499721631329461,-0.3014319372839993,0.4757653957266907
1.558772087097168,0.058856040239334106,-0.26020652055740356,0.485678493976593,0.2871171236038208,1.790919542312622,3.4638266563415527,-0.1565824003502354,-0.2784169621108176,0.5095998540243959
1.5689082145690918,0.2996130585670471,-0.32090461254119873,0.38621312379837036,0.12494739890098572,1.9630049467086792,3.6085803508758545,-0.16389206080044905,-0.2540856258422338,0.5447464060513293
1.579038143157959,0.42890673875808716,-0.2990923821926117,0.1581331491470337,0.11326190829277039,2.121511220932007,3.7167129516601562,-0.17166903396793362,-0.22753036591208478,0.5811330902676636
1.5890541076660156,0.5387477278709412,-0.13344773650169373,0.08402180671691895,0.09770345687866211,2.2556169033050537,3.765939950942993,-0.17846096589096544,-0.1990688016295856,0.618633406424603
1.600193977355957,0.6495060920715332,0.06537668406963348,0.12654298543930054,-0.10700997710227966,2.2627546787261963,3.7111828327178955,-0.1853004925715227,-0.16957907910489994,0.6560568244083278
1.609154224395752,0.7121720314025879,0.0964955985546112,0.19669705629348755,-0.2625500559806824,2.2150490283966064,3.668523073196411,-0.19295331119945194,-0.1403061091013779,0.6929040205319897
1.6189632415771484,0.8104796409606934,0.057520970702171326,0.2239983081817627,-0.2653140127658844,2.205660820007324,3.6277847290039062,-0.20025400114155115,-0.11101681624828763,0.7294793525434413
1.6292243003845215,0.9469416737556458,0.12872058153152466,0.09958499670028687,-0.058360300958156586,2.212569236755371,3.60544753074646,-0.20539263366481642,-0.08152522619795705,0.7661679671895901
1.639247179031372,1.0285766124725342,0.2139807939529419,-0.06917834281921387,0.11157051473855972,2.188429832458496,3.5006260871887207,-0.2074408869834444,-0.05199164382278077,0.8024505481326741
1.650090217590332,1.0251885652542114,0.2806316912174225,-0.15684574842453003,0.10261057317256927,2.0733768939971924,3.316645860671997,-0.2075495226096782,-0.023403649514837203,0.8374637327489862
1.6590070724487305,0.967204213142395,0.30360686779022217,-0.16176748275756836,-0.04585748910903931,1.8906269073486328,2.9994125366210938,-0.20746059834597208,0.0031237869028287878,0.8698495972511796
1.6694481372833252,0.8740704655647278,0.3475137948989868,-0.11271011829376221,-0.30445364117622375,1.6215168237686157,2.5835511684417725,-0.20882541634472895,0.026674282327421122,0.8985006821924458
1.679110050201416,0.7265203595161438,0.3995405435562134,-0.051312804222106934,-0.520815908908844,1.3141319751739502,2.0698678493499756,-0.21212353005552234,0.04638659847604603,0.9225039028552882
1.689317226409912,0.5764533281326294,0.4426574110984802,-0.024022817611694336,-0.629007875919342,0.9614095687866211,1.5291036367416382,-0.21695370903028646,0.0617673876294103,0.9412023805639816
1.699315071105957,0.45378875732421875,0.45896828174591064,-0.06144672632217407,-0.553613543510437,0.6551143527030945,1.0137957334518433,-0.22211371277970757,0.07273443850493946,0.9546503186249001
1.7092161178588867,0.34468430280685425,0.43677616119384766,-0.059808552265167236,-0.2887488007545471,0.3952939510345459,0.5411139130592346,-0.22592262880128886,0.07978949830638155,0.962836132645417
1.7191061973571777,0.23634272813796997,0.37525737285614014,0.009136855602264404,0.22907035052776337,0.24717171490192413,0.19195152819156647,-0.22605875670998188,0.08373939685510318,0.9665871754199167
1.7292520999908447,0.19204287230968475,0.26184597611427307,0.0702352523803711,0.9235521554946899,0.2435934990644455,-0.05033034086227417,-0.2203089801343037,0.0861288584089696,0.9666852741923715
1.7391571998596191,0.13519686460494995,0.1968236267566681,0.10631436109542847,1.583977222442627,0.3617575466632843,-0.15529634058475494,-0.2077903299817935,0.08865647628312116,0.9644531621568302
1.749894142150879,0.08674850314855576,0.11957940459251404,0.1338256597518921,2.0346462726593018,0.49308282136917114,-0.16206449270248413,-0.1897076121310492,0.09228215210295532,0.9611080446231633
1.7591800689697266,0.08263130486011505,0.04240390658378601,0.13749152421951294,2.1286840438842773,0.5960711240768433,-0.12588438391685486,-0.16883090667484382,0.09713866260241848,0.9576188089989064
1.7694029808044434,0.09035606682300568,0.007190525531768799,0.1427990198135376,1.8232170343399048,0.6290082931518555,-0.09525563567876816,-0.1490769157435288,0.10287449165581156,0.954481906630663
1.779496192932129,0.0937105193734169,0.014555767178535461,0.1708797812461853,1.3454097509384155,0.5784331560134888,-0.057211101055145264,-0.13331491553585473,0.10860642449168315,0.9520009104401903
1.7899761199951172,0.09864545613527298,0.03220701962709427,0.20462560653686523,0.7640982866287231,0.47462528944015503,-0.004326313734054565,-0.1228102604673883,0.1137123851456383,0.9505133546582131
1.799302101135254,0.10093165189027786,0.019628986716270447,0.19049453735351562,0.22765129804611206,0.360935777425766,0.04755201190710068,-0.11797351776681032,0.11782488907274513,0.9501552217830491
1.8092460632324219,0.09501770883798599,-0.02307017892599106,0.15084290504455566,-0.19508904218673706,0.297345906496048,0.06085130572319031,-0.11779423355915333,0.1211740194642742,0.950679814576797
1.8192620277404785,0.06250929087400436,-0.033363841474056244,0.09838855266571045,-0.5191185474395752,0.2525017261505127,0.08568496257066727,-0.1213690472682707,0.12405250423400276,0.9518878430781327
1.8291850090026855,0.0372065007686615,-0.03473438322544098,0.05648970603942871,-0.6353098750114441,0.23935583233833313,0.08295442163944244,-0.12711739857440713,0.12670409803286148,0.9534819927498135
1.83915114402771,0.022370800375938416,-0.037586018443107605,0.05369925498962402,-0.6014120578765869,0.234361469745636,0.0967322289943695,-0.1332096623862706,0.12929351743416137,0.9551976665357887
1.8499460220336914,0.021694302558898926,-0.026753723621368408,0.028976917266845703,-0.47007983922958374,0.2432636171579361,0.08245448768138885,-0.1384473557375673,0.13190910392864263,0.9568226448975257
1.8593671321868896,0.017679363489151,-0.017877057194709778,0.01698482036590576,-0.30166858434677124,0.2581709921360016,0.05641607940196991,-0.14216519127583258,0.1345934641536044,0.9580421102626023
1.8694400787353516,-0.00024318695068359375,0.0056813061237335205,-0.0033161044120788574,-0.16106273233890533,0.26396551728248596,0.02831972762942314,-0.1443710271551564,0.1373222907550764,0.9587786359611122
1.8795442581176758,-0.009457617998123169,0.01856912672519684,-0.0249098539352417,-0.03663275018334389,0.27071240544319153,0.016681287437677383,-0.14531756597924378,0.14003320048299445,0.9591193214403515
1.891714096069336,-0.017903894186019897,0.0021247565746307373,-0.01413726806640625,0.08252479881048203,0.28371503949165344,0.011220474727451801,-0.14505076090595065,0.142824202283467,0.9592309655491145
1.9003610610961914,-0.027171671390533447,-0.0071677565574646,-0.012978315353393555,0.1357986330986023,0.28875523805618286,0.014281138777732849,-0.1439096210409806,0.14568840919122178,0.9592037018598183
1.9092130661010742,-0.029639318585395813,-0.002223983407020569,-0.04723167419433594,0.15028756856918335,0.28752487897872925,0.018489999696612358,-0.14244513284119478,0.14856714965415135,0.9591367323875172
1.9193110466003418,-0.02554844319820404,-0.012523233890533447,-0.06543838977813721,0.12061602622270584,0.264844685792923,0.014695953577756882,-0.14104207643091368,0.1513568163022307,0.9591124496399489
1.9292161464691162,-0.01923753321170807,-0.009074121713638306,-0.08065581321716309,0.08139298856258392,0.2108197808265686,-0.000505636096931994,-0.14002434467314603,0.1537422067885897,0.9590336890443383
1.9393062591552734,-0.019371628761291504,-0.00737328827381134,-0.08885431289672852,0.030463561415672302,0.15809017419815063,-0.021737635135650635,-0.1394932334098436,0.15555186990326994,0.9588343018443608
1.9495372772216797,-0.013327404856681824,0.004693284630775452,-0.10059201717376709,-0.01926005259156227,0.1140606701374054,-0.032890684902668,-0.1394964181741556,0.15686043118754844,0.9585411298226945
1.959477186203003,-0.019499406218528748,0.0023752301931381226,-0.10607725381851196,-0.044457897543907166,0.09238693118095398,-0.02544422075152397,-0.13986494736533073,0.15785916870887692,0.9582855104281265
1.969496250152588,-0.02512820065021515,-0.02313089370727539,-0.10074013471603394,-0.04868726432323456,0.10351734608411789,0.0007445050869137049,-0.14035140620466877,0.15882028271168303,0.9582531426812768
1.979459285736084,-0.02190151810646057,-0.029802247881889343,-0.09986871480941772,-0.06610387563705444,0.12270577996969223,0.019033711403608322,-0.1408786864528456,0.15999571858674944,0.9584257484307119
1.989518165588379,-0.02176395058631897,-0.026629284024238586,-0.1060284972190857,-0.14979849755764008,0.1028982475399971,0.0280985776335001,-0.14188135783225414,0.16120520540558794,0.958863233734026
1.999622106552124,-0.011509835720062256,-0.007113412022590637,-0.1179962158203125,-0.2532019019126892,0.056340426206588745,0.01737157814204693,-0.14383929719654795,0.16209437227204035,0.959427927965504
2.0099031925201416,-0.0006302148103713989,0.008785530924797058,-0.10077589750289917,-0.3120822608470917,0.002687585772946477,-0.003374979365617037,-0.14663123910312278,0.16241111865910762,0.9599607575066524
2.0197110176086426,0.0010334104299545288,0.00939987599849701,-0.07338148355484009,-0.28554046154022217,-0.03984389826655388,-0.014905720949172974,-0.14960473802824767,0.16224885701433134,0.9603397768841363
2.029400110244751,-0.004747703671455383,-0.008326396346092224,-0.0693616271018982,-0.20859134197235107,-0.05261695012450218,-0.011395941488444805,-0.1520234100643331,0.16177521252423455,0.960618047181229
2.039428234100342,-0.0024043768644332886,-0.022240743041038513,-0.09949636459350586,-0.17932462692260742,-0.05670538917183876,-0.023125194013118744,-0.1539207119857484,0.16121948758991847,0.9607296379712013
2.0496292114257812,-0.009586378931999207,-0.029531359672546387,-0.10794484615325928,-0.1611006110906601,-0.07696352154016495,-0.03418610244989395,-0.15561638028988484,0.1605220839984463,0.9607118346863889
2.0594301223754883,-0.009141921997070312,-0.033074378967285156,-0.08784914016723633,-0.1397029310464859,-0.1098732277750969,-0.04674817621707916,-0.15710233219653025,0.15955647216974816,0.9605388090752558
2.069676160812378,-0.0025674104690551758,-0.022719070315361023,-0.07071888446807861,-0.1163395419716835,-0.14769411087036133,-0.05980166047811508,-0.15842110783793542,0.15818386347826405,0.9602202749766868
2.079730987548828,0.005600571632385254,-0.021415486931800842,-0.059503376483917236,-0.06664790958166122,-0.1687496453523636,-0.07862898707389832,-0.15941890248393542,0.15648344460298522,0.9596743741828689
2.0896711349487305,0.010809853672981262,-0.019693732261657715,-0.058865249156951904,-0.023925475776195526,-0.1743827611207962,-0.10696341842412949,-0.1599932810569203,0.15461443809263486,0.958816154957033
2.0999250411987305,0.00926254689693451,-0.008124440908432007,-0.060370564460754395,0.015454753302037716,-0.18321149051189423,-0.1331970989704132,-0.16020651173343467,0.15263973840167017,0.9576338985709562
2.1096911430358887,0.0076786428689956665,-0.007634863257408142,-0.048863887786865234,0.041526298969984055,-0.19985438883304596,-0.1529894471168518,-0.16011247324907363,0.15047659593366558,0.956135473563205
2.1196770668029785,0.014640569686889648,-0.0059754252433776855,-0.027580320835113525,0.06115406006574631,-0.20926226675510406,-0.17184223234653473,-0.1597916885507478,0.14813591075229815,0.9544367041183195
2.129521131515503,0.017650321125984192,-0.012141093611717224,0.0049013495445251465,0.053807467222213745,-0.21153020858764648,-0.18184345960617065,-0.1594219175738402,0.14571722249781066,0.952579194234568
2.1424951553344727,0.016804561018943787,-0.02694690227508545,0.025230228900909424,0.023056747391819954,-0.2203572690486908,-0.20051808655261993,-0.15922584357020378,0.14322056521792534,0.9505992753809931
2.1513543128967285,0.03272271156311035,-0.01942715048789978,0.021398723125457764,-0.05983121320605278,-0.241395965218544,-0.24121011793613434,-0.15964600199765167,0.14057291904006666,0.9484264331850425
2.15946626663208,0.045587971806526184,0.0009918212890625,0.023009181022644043,-0.1723335236310959,-0.29762861132621765,-0.3083478808403015,-0.1610962300707769,0.13749766384454315,0.94585595088079
2.169687271118164,0.05384202301502228,0.019601181149482727,0.026247918605804443,-0.30018070340156555,-0.3868153393268585,-0.4066564440727234,-0.1638549651336501,0.13358087227924953,0.9425992348499707
2.1797170639038086,0.07499861717224121,0.054773300886154175,0.020509302616119385,-0.41970592737197876,-0.488802969455719,-0.5291600227355957,-0.16804710790428481,0.12850001554787116,0.9383792782973771
2.1896631717681885,0.0964924618601799,0.0906442403793335,0.01647782325744629,-0.5296044945716858,-0.5978439450263977,-0.6757113337516785,-0.17353097677054144,0.12213276114213624,0.9329222952284814
2.199815273284912,0.10565381497144699,0.10286173224449158,0.02468663454055786,-0.5955987572669983,-0.6918393969535828,-0.8335847854614258,-0.1800460125795751,0.11444446357719769,0.9259955623599201
2.2096972465515137,0.12418012320995331,0.10752779245376587,0.028712987899780273,-0.6370242238044739,-0.7653261423110962,-1.007280707359314,-0.18718828396567155,0.10556376711886731,0.9173906776848952
2.219658136367798,0.15014836192131042,0.12474316358566284,0.0217018723487854,-0.7117866277694702,-0.828438401222229,-1.2108185291290283,-0.195017818180557,0.09558098479110606,0.906839427130271
2.2296741008758545,0.17429044842720032,0.142136812210083,0.028213560581207275,-0.7699418067932129,-0.8812901377677917,-1.4281619787216187,-0.20362779333425343,0.08449689449140686,0.894090350243475
2.2397003173828125,0.20861832797527313,0.15370288491249084,0.043251216411590576,-0.8272335529327393,-0.9394901990890503,-1.6565581560134888,-0.21272011450842665,0.07229367361984304,0.8789954293628607
2.249911308288574,0.24001345038414001,0.15153652429580688,0.05249011516571045,-0.8962299227714539,-1.0022622346878052,-1.8606243133544922,-0.22258069098218244,0.05875637228059037,0.8615274064857532
2.2597970962524414,0.2740163803100586,0.11288250982761383,0.06506156921386719,-0.8472647070884705,-1.040533423423767,-2.0348427295684814,-0.23234189135887848,0.044155280836766425,0.8420162603499632
2.270388126373291,0.3052038848400116,0.07489152252674103,0.09251570701599121,-0.7952691316604614,-1.0804778337478638,-2.1687252521514893,-0.2413956570956645,0.028418401755647135,0.8206233234138222
2.279832124710083,0.3128783702850342,0.06953339278697968,0.12444597482681274,-0.5536127090454102,-0.9827713966369629,-2.260817289352417,-0.2486961506484006,0.01259846893645492,0.7979731646633211
2.289839267730713,0.3018411695957184,0.05400779843330383,0.1377992033958435,-0.22662313282489777,-0.897070586681366,-2.3735594749450684,-0.2527361261282787,-0.0027332708976070983,0.7740032913328733
2.2999582290649414,0.24770067632198334,0.07526618242263794,0.1302860975265503,0.06136180832982063,-0.8320879936218262,-2.4463422298431396,-0.25326901700762716,-0.017642637197364232,0.7490610967150523
2.3097190856933594,0.27644917368888855,0.09860984981060028,0.09960556030273438,0.27127084136009216,-0.7488812208175659,-2.5074262619018555,-0.2509551204521093,-0.03194063106409044,0.7235042145167585
2.319876194000244,0.3149355947971344,0.10264277458190918,0.03504633903503418,0.42530304193496704,-0.6646539568901062,-2.579636335372925,-0.2464792719766017,-0.04541846548277355,0.6973973189803585
2.3299851417541504,0.3396981358528137,0.12840859591960907,-0.01821845769882202,0.5396352410316467,-0.6100255846977234,-2.623924732208252,-0.24024408448836343,-0.05819795813661493,0.6708195840035666
2.3399109840393066,0.36788561940193176,0.1629103124141693,-0.04638034105300903,0.5758652687072754,-0.5689247250556946,-2.6864700317382812,-0.2329281084456529,-0.07035745417102326,0.6439362639440047
2.3502302169799805,0.37649479508399963,0.1382596492767334,-0.05839341878890991,0.57820725440979,-0.5838499069213867,-2.7403528690338135,-0.2251177416819571,-0.08230549561306233,0.6165599902262469
2.359894275665283,0.3747747540473938,0.0897665023803711,-0.03488272428512573,0.5732455849647522,-0.5836940407752991,-2.7735822200775146,-0.2169391277159054,-0.09423663313077633,0.5889033376281508
2.369953155517578,0.36885350942611694,0.11501990258693695,-0.01703590154647827,0.6174135208129883,-0.5399209856987,-2.778794288635254,-0.20832209030977458,-0.10580013576173779,0.5611753399412289
2.3800771236419678,0.32301169633865356,0.11151109635829926,-0.011046946048736572,0.762594997882843,-0.39554744958877563,-2.7927350997924805,-0.19841253549784293,-0.11605555992296838,0.5336743074865375
2.390071153640747,0.2680274248123169,0.11199907958507538,-0.002515554428100586,0.9153800010681152,-0.2611515522003174,-2.8202614784240723,-0.1867065680375624,-0.12455766912155382,0.5062870464619219
2.4002633094787598,0.2400001436471939,0.1577417105436325,0.01692831516265869,1.0393785238265991,-0.18093480169773102,-2.834388017654419,-0.17335610204377777,-0.1316133556784978,0.47900424937167657
2.410074234008789,0.24542787671089172,0.16771811246871948,0.006618201732635498,1.105001449584961,-0.14360900223255157,-2.8151512145996094,-0.158939120010886,-0.13766734340191786,0.4520173563051618
2.4199061393737793,0.2635589838027954,0.14782382547855377,-0.02582019567489624,1.150200605392456,-0.1377628743648529,-2.768120288848877,-0.14382461618655312,-0.1430509077972077,0.4256347390311312
2.4300122261047363,0.2707185745239258,0.11854925751686096,-0.03451484441757202,1.0867444276809692,-0.1346256583929062,-2.7356295585632324,-0.1287084170309925,-0.1479340973798589,0.3997597581241346
2.4400441646575928,0.24364596605300903,0.10494518280029297,-0.01891547441482544,0.914334774017334,-0.11855810880661011,-2.7091660499572754,-0.11466644681980691,-0.15236618305716138,0.3741233192909037
2.450870990753174,0.1880129724740982,0.07623901218175888,0.016683995723724365,0.7578482031822205,-0.05556609109044075,-2.666553258895874,-0.10233016548464914,-0.1560102501737112,0.3486431752370117
2.460052013397217,0.13986951112747192,0.03132069855928421,0.06142830848693848,0.6475427746772766,0.03385358303785324,-2.640813112258911,-0.09124255809337602,-0.1585539136727299,0.3234140740149444
2.470304012298584,0.1160363256931305,0.025082968175411224,0.12931877374649048,0.561362087726593,0.1165199726819992,-2.6383426189422607,-0.08108515407363019,-0.15993426928526236,0.29819255435597264
2.4801571369171143,0.09993758797645569,0.08586625009775162,0.24132484197616577,0.5224782824516296,0.20497716963291168,-2.635424852371216,-0.07165068742902209,-0.16023553298012885,0.2728790779550814
2.4906373023986816,0.08253778517246246,0.16137316823005676,0.2984803318977356,0.6841510534286499,0.23495584726333618,-2.5782344341278076,-0.06161219230322396,-0.1596114284336753,0.24798630277398773
2.5009591579437256,0.0975879579782486,0.1265910565853119,0.23034071922302246,0.8625494241714478,0.1882934421300888,-2.5117859840393066,-0.049928317733853055,-0.1588152520734216,0.22399990707630826
2.5101852416992188,0.1409110277891159,0.09539392590522766,0.13911199569702148,0.9479628801345825,0.14293740689754486,-2.429276466369629,-0.03696945889211462,-0.15815631693681895,0.20098684751461895
2.5202760696411133,0.1613740772008896,0.11808929592370987,0.07137185335159302,0.8885353207588196,0.11280778050422668,-2.3307852745056152,-0.024033620322762936,-0.15756893071183917,0.17891507470637574
2.532095193862915,0.1582118719816208,0.06528662890195847,0.037204742431640625,0.6279404759407043,0.11098804324865341,-2.245328903198242,-0.01288474691891085,-0.15683728077335937,0.1575030655243739
2.5400471687316895,0.1439458578824997,-0.004196471069008112,0.03465157747268677,0.3051537871360779,0.12481842190027237,-2.167311906814575,-0.004761317539341,-0.15585373500529973,0.1364375042326771
2.550271987915039,0.13088752329349518,-0.04088487848639488,0.060492753982543945,-0.17695561051368713,0.13272960484027863,-2.096409559249878,-0.000815557191383177,-0.15458878638121937,0.11544680666622956
2.5600411891937256,0.1144297868013382,-0.062004003673791885,0.09547311067581177,-0.5375577211380005,0.11927665024995804,-2.031606674194336,-0.001304808850220632,-0.15334469088802957,0.09448184785688492
2.5702431201934814,0.07083569467067719,-0.1413862705230713,0.15134918689727783,-0.7402445077896118,0.13002516329288483,-2.010894298553467,-0.0046220282934465624,-0.15218856639694733,0.07352360327524292
2.5802412033081055,-0.014133542776107788,-0.2827291786670685,0.15888100862503052,-0.9122234582901001,0.23263369500637054,-1.9948537349700928,-0.009826158455011997,-0.15056516214191362,0.052437739233002954
2.5902352333068848,-0.09417219460010529,-0.330357164144516,0.15251374244689941,-0.9378611445426941,0.40318360924720764,-1.959348201751709,-0.016149172907621617,-0.1476854664342451,0.03145655244739403
2.6002440452575684,-0.13523176312446594,-0.30349716544151306,0.18365228176116943,-0.8636613488197327,0.6524243950843811,-1.8956891298294067,-0.022279811294511377,-0.14279969493403444,0.011024969022111818
2.610607147216797,-0.15525692701339722,-0.28229066729545593,0.2130035161972046,-0.684389591217041,0.7879236340522766,-1.7813053131103516,-0.027548972241195187,-0.13609227458753864,-0.008378238902032143
2.620199203491211,-0.16411328315734863,-0.22720655798912048,0.2576082944869995,-0.41574379801750183,0.9110469222068787,-1.5862501859664917,-0.030693725888505514,-0.1280750281295136,-0.025843329235530853
2.630186080932617,-0.1365673989057541,-0.1646922081708908,0.23716509342193604,-0.255910187959671,0.9537799954414368,-1.3618087768554688,-0.03216021536155543,-0.11913120707501096,-0.04091325832221405
2.6433582305908203,-0.09052980691194534,-0.17340263724327087,0.16344857215881348,-0.22968938946723938,0.9031168818473816,-1.1780495643615723,-0.03313495350568911,-0.11019260197723235,-0.05378388472307958
2.6543712615966797,-0.05783659964799881,-0.31886863708496094,0.14530515670776367,-0.13506993651390076,0.8617539405822754,-1.034594178199768,-0.03381067493577628,-0.10175951126983285,-0.06497675901950195
2.6600921154022217,-0.06409517675638199,-0.4743456244468689,0.08106130361557007,-0.15787334740161896,0.8558306694030762,-0.9285299181938171,-0.03421284611945377,-0.09352040316835934,-0.07489969734509341
2.6701202392578125,-0.09059083461761475,-0.4766562581062317,-0.004081368446350098,-0.19776217639446259,0.896108090877533,-0.7965905070304871,-0.03521181101329249,-0.08507073707738368,-0.08366919901001159
2.681462287902832,-0.10854041576385498,-0.35110723972320557,-0.022125542163848877,-0.2511783838272095,0.9140816330909729,-0.6464213132858276,-0.036922202943910104,-0.07626227369445582,-0.09108053038972234
2.6907172203063965,-0.10785652697086334,-0.2818547189235687,-0.031069278717041016,-0.30056241154670715,0.8800493478775024,-0.47951409220695496,-0.039219816936348566,-0.0674169715221301,-0.09688246369715073
2.700169086456299,-0.08727419376373291,-0.2829505205154419,-0.0006844401359558105,-0.38636431097984314,0.7877079248428345,-0.3172929883003235,-0.042439290276301465,-0.05923683787203699,-0.10109895797314741
2.71014404296875,-0.06343288719654083,-0.22706270217895508,0.04161471128463745,-0.4268571436405182,0.6902905702590942,-0.14914874732494354,-0.046354518005874215,-0.05195669307268128,-0.10366165151002094
2.720330238342285,-0.050815168768167496,-0.13382361829280853,0.028054893016815186,-0.4418940842151642,0.5829663276672363,-0.01848900318145752,-0.05070051982183059,-0.04564883933518811,-0.1046465589554653
2.7302610874176025,-0.04558734595775604,-0.1316445767879486,-0.05221182107925415,-0.5170413255691528,0.4959951937198639,0.013986379839479923,-0.05545565424865901,-0.04025478617762785,-0.10482858482682297
2.7406020164489746,-0.052564214915037155,-0.19774995744228363,-0.15461313724517822,-0.52491694688797,0.419215589761734,0.017181694507598877,-0.060794307915067285,-0.035689574760923125,-0.10487890160161041
2.7508370876312256,-0.06588573008775711,-0.20609542727470398,-0.21727299690246582,-0.3942098021507263,0.3537484407424927,0.005280827172100544,-0.06539527124419904,-0.031828407656308635,-0.10491613001491686
2.7606382369995117,-0.07967375963926315,-0.16213355958461761,-0.260414183139801,-0.276973694562912,0.30267202854156494,-0.0044404566287994385,-0.06875848160185509,-0.02855161985782215,-0.10500678502263129
2.7711052894592285,-0.09145571291446686,-0.0975857600569725,-0.28498584032058716,-0.1549743115901947,0.21992097795009613,-0.04202032461762428,-0.07094268724706547,-0.025937008317599947,-0.10527760011704733
2.78056001663208,-0.09503728896379471,-0.08985128253698349,-0.249855637550354,-0.01783815585076809,0.16471576690673828,-0.09386082738637924,-0.07173990536033953,-0.02409108418295184,-0.10598649168462515
2.7905402183532715,-0.10469561815261841,-0.1120857298374176,-0.2103201150894165,0.04070957750082016,0.1407393217086792,-0.10604026168584824,-0.07157401587234588,-0.022637584107567794,-0.10701300106143709
2.8003950119018555,-0.11725661158561707,-0.05723845958709717,-0.1744396686553955,0.07014897465705872,0.11863335967063904,-0.08768906444311142,-0.07100081185831876,-0.02139425411886873,-0.1079722764083528
2.8102803230285645,-0.12134220451116562,0.015394695103168488,-0.11876875162124634,0.10785294324159622,0.07605207711458206,-0.08299044519662857,-0.07009697509598338,-0.020463373661277744,-0.10878377399700352
2.8208181858062744,-0.1213427186012268,0.0069735050201416016,-0.078544020652771,0.073676198720932,0.034693632274866104,-0.13235409557819366,-0.0691010759937127,-0.019987189617771444,-0.10981372348449359
2.830313205718994,-0.12085530161857605,-0.05998029559850693,-0.06201624870300293,-0.04321926459670067,0.008903847075998783,-0.20525893568992615,-0.06886988965462953,-0.019894215748470938,-0.11149858119098814
2.840590000152588,-0.11951851844787598,-0.10168715566396713,-0.06148475408554077,-0.17786677181720734,-0.004383418243378401,-0.2751438617706299,-0.06996047442524907,-0.020058007881884107,-0.11393358375764687
2.8511791229248047,-0.11536744236946106,-0.11687243729829788,-0.0663766860961914,-0.25858771800994873,-0.01299900934100151,-0.3345866799354553,-0.07215079253787172,-0.020367857876412918,-0.11706538754010373
2.8606271743774414,-0.11406664550304413,-0.1243724375963211,-0.07933634519577026,-0.23868553340435028,-0.010197853669524193,-0.3354133367538452,-0.0746067466184807,-0.020757964929928294,-0.12051133341628578
2.8706822395324707,-0.10976488143205643,-0.11214390397071838,-0.09157359600067139,-0.19520196318626404,-0.00040114857256412506,-0.3070192337036133,-0.07674284419825782,-0.02105095071803927,-0.12378648860339947
2.8852462768554688,-0.10236901789903641,-0.10174228996038437,-0.0936899185180664,-0.13882942497730255,-0.006264053285121918,-0.2839565873146057,-0.07838536403335465,-0.02130922605128756,-0.12680310915054496
2.892275094985962,-0.09853890538215637,-0.10571569949388504,-0.08263278007507324,-0.03184917941689491,0.006426707841455936,-0.23403188586235046,-0.07917212462536177,-0.021525053342843818,-0.12944966924185883
2.9011101722717285,-0.09746865928173065,-0.10788661241531372,-0.07620501518249512,0.026964619755744934,0.018828917294740677,-0.175083190202713,-0.07911507390515014,-0.021557711402292228,-0.13150299196467802
2.910552978515625,-0.09045560657978058,-0.10253892093896866,-0.07842612266540527,0.060303665697574615,0.0037572886794805527,-0.1297260969877243,-0.07864874722553947,-0.021535603272954,-0.13301310543342426
2.9205591678619385,-0.07515442371368408,-0.10951545089483261,-0.05943864583969116,0.08246670663356781,-0.04101537540555,-0.10638424009084702,-0.07791734697134534,-0.021806528131393228,-0.13418581083732803
2.9319961071014404,-0.05606018751859665,-0.11302561312913895,-0.03098195791244507,0.08889957517385483,-0.07537814229726791,-0.07983225584030151,-0.07693849928732234,-0.02251454158294149,-0.1351100970009476
2.94054913520813,-0.04216979444026947,-0.08992861211299896,-0.006871342658996582,0.06434232741594315,-0.08675756305456161,-0.05150442197918892,-0.07604040516487377,-0.023436329366891565,-0.13575494312479866
2.9506030082702637,-0.03632358834147453,-0.06804241240024567,0.005804777145385742,-0.0031102094799280167,-0.09594547003507614,-0.04664308950304985,-0.0755762082200244,-0.024432542029707,-0.13622510290687603
2.9605860710144043,-0.03016466088593006,-0.07077202945947647,0.012992143630981445,-0.06973153352737427,-0.0968698114156723,-0.048018716275691986,-0.07581934217628901,-0.02551418599359838,-0.13672880030059537
2.970571994781494,-0.024969467893242836,-0.09131861478090286,0.02347266674041748,-0.12058539688587189,-0.06434009969234467,-0.048980653285980225,-0.0765315576728638,-0.026456633152381007,-0.13724500671457673
2.982081174850464,-0.02666141837835312,-0.08635079115629196,0.01294320821762085,-0.16266924142837524,-0.023591645061969757,-0.05098350718617439,-0.07773186133768936,-0.027027359054682752,-0.13779874464889916
2.990628242492676,-0.027355831116437912,-0.048027656972408295,0.004853963851928711,-0.15323445200920105,-0.008268880657851696,-0.05007164180278778,-0.07902451403144674,-0.027313240548624503,-0.13835149645045033
3.000706195831299,-0.020174605771899223,-0.024462491273880005,0.02185732126235962,-0.10535082966089249,0.005205382592976093,-0.048696119338274,-0.07987609756518887,-0.027447231335014612,-0.13888234356637885
3.0107522010803223,-0.015438370406627655,-0.012467138469219208,0.04273945093154907,-0.038892973214387894,0.013107514008879662,-0.04760715365409851,-0.08016499641552562,-0.027423270132314704,-0.13938903085164644
3.020780086517334,-0.011585749685764313,0.00920441746711731,0.056818246841430664,0.027649883180856705,0.01230514794588089,-0.04261569678783417,-0.07987005548797606,-0.027353489258929158,-0.13983195127384218
3.03206205368042,-0.0058893561363220215,0.03852376341819763,0.058743953704833984,0.07385306060314178,0.011900613084435463,-0.03891417384147644,-0.07908215496487243,-0.027295403721695137,-0.14022403945704642
3.040745258331299,-0.0007946081459522247,0.03890232741832733,0.04898649454116821,0.08076316863298416,0.021669620648026466,-0.05610460788011551,-0.07804425871435669,-0.027184303666737204,-0.1406783495297778
3.050746202468872,0.00020032934844493866,0.0062789469957351685,0.030878126621246338,0.08322978764772415,0.04493153467774391,-0.07338825613260269,-0.07691181236667437,-0.026894158354490903,-0.141306780161541
3.0606632232666016,-0.0025957152247428894,-0.00406821072101593,0.014809072017669678,0.09451686590909958,0.0752299576997757,-0.07492351531982422,-0.07571985892592278,-0.026352224894631095,-0.14203114898020125
3.071035146713257,-0.005854252725839615,0.010192275047302246,0.0025388002395629883,0.1000213474035263,0.09457383304834366,-0.07543963938951492,-0.07459400883119749,-0.02557622381970284,-0.1427777051150793
3.0821220874786377,-0.0035132095217704773,0.020571477711200714,-0.0009371638298034668,0.12339366227388382,0.10397563874721527,-0.06738698482513428,-0.07341261497311588,-0.024677463491035258,-0.14347100818599717
3.09072208404541,0.002135157585144043,0.014002345502376556,-0.002367556095123291,0.15898069739341736,0.10737809538841248,-0.06630787253379822,-0.07199766567541255,-0.023713464488252047,-0.14410867042130904
3.100771188735962,0.0073263198137283325,0.010583832859992981,-0.009446978569030762,0.195010706782341,0.0954652801156044,-0.07087891548871994,-0.07034607678093233,-0.02282641131723875,-0.14476071574200494
3.1107850074768066,0.01244724914431572,0.014031685888767242,-0.005629837512969971,0.23206967115402222,0.06982357054948807,-0.07134417444467545,-0.06854182822185224,-0.022174968279187357,-0.14544259376378219
3.1207191944122314,0.01727054826915264,0.010915696620941162,-0.0010790824890136719,0.22481033205986023,0.054159875959157944,-0.06774325668811798,-0.06660273399486123,-0.02171468825308347,-0.1460996313303401
3.1331801414489746,0.019082508981227875,0.006031900644302368,-0.006843507289886475,0.17805588245391846,0.035991791635751724,-0.0605495348572731,-0.06479927960748162,-0.0213870826218752,-0.14670462343317242
3.1406803131103516,0.022008288651704788,0.0002854093909263611,-0.0060808658599853516,0.12737463414669037,0.007766055874526501,-0.05100513622164726,-0.06340179339807392,-0.021304784392903297,-0.14724708429443567
3.1507163047790527,0.02452710084617138,-0.006216317415237427,0.0007438063621520996,0.06397569924592972,-0.0022298526018857956,-0.036766279488801956,-0.06279171462796515,-0.021488588900591896,-0.1476892320262808
3.1610002517700195,0.020505189895629883,-0.0007836595177650452,0.004550755023956299,-0.012548385187983513,-0.0028331028297543526,-0.01779322698712349,-0.06308167937229654,-0.021709501975912197,-0.1479593097698953
3.170623302459717,0.014701059088110924,-0.0014929547905921936,0.006964683532714844,-0.07905204594135284,-0.0010613021440804005,-0.00783886294811964,-0.06396059197670334,-0.02181196723976071,-0.14810483034230743
3.1815011501312256,0.011718181893229485,-0.013340972363948822,0.006067097187042236,-0.12079020589590073,-0.0003273347392678261,-0.005668173544108868,-0.06534396126710983,-0.02179119316989263,-0.1481850459101081
3.1908891201019287,0.009500835090875626,-0.011857837438583374,0.01038050651550293,-0.10691673308610916,-0.000597379170358181,-0.0041642868891358376,-0.06683956130069586,-0.021681446489026097,-0.1482430709587132
3.200683116912842,0.007544154301285744,-0.007485225796699524,0.015590071678161621,-0.08214272558689117,0.00018119579181075096,-0.011034922674298286,-0.06794737524022607,-0.021465334973301484,-0.14832822991779662
3.210726261138916,0.0031432583928108215,-0.004248432815074921,0.016912877559661865,-0.04300757497549057,0.00879359245300293,-0.013875450007617474,-0.06855720515176214,-0.021169181633844864,-0.14845569405119438
3.2207891941070557,-0.0010424721986055374,0.01062135398387909,0.018705546855926514,-0.0058158813044428825,0.023286471143364906,-0.01197107695043087,-0.06859534590386199,-0.02069015917714079,-0.14856821968242925
3.2316269874572754,-0.0030134059488773346,0.015320584177970886,0.013115465641021729,0.015279016457498074,0.041684653609991074,-0.011387578211724758,-0.06821346908451872,-0.019983378366561482,-0.14865926887723574
3.2408511638641357,-0.006109027191996574,0.014830082654953003,0.009603738784790039,0.031506553292274475,0.0533871166408062,-0.015070570632815361,-0.0677874552460332,-0.01923517030814807,-0.14875416850659828
3.250770092010498,-0.008016156032681465,0.010588698089122772,0.01243060827255249,0.04268784075975418,0.06851626932621002,-0.016360338777303696,-0.06726691363202592,-0.01845461087576552,-0.1488840619391273
3.2609100341796875,-0.006999136880040169,0.008593998849391937,0.01399219036102295,0.03556990623474121,0.08936997503042221,-0.01869124546647072,-0.066528636496875,-0.01751536636777143,-0.1490433157884302
3.2708373069763184,-0.0054100267589092255,0.011103115975856781,0.007421612739562988,0.02077285200357437,0.10286235064268112,-0.022345634177327156,-0.06601729461228023,-0.016461663788529878,-0.1492390481156654
3.2817320823669434,-0.0022230828180909157,0.00969521701335907,0.005582451820373535,0.02443082071840763,0.10145162045955658,-0.03690598905086517,-0.06570027196432862,-0.015403905234695592,-0.1495210184018254
3.2913012504577637,-0.001887388527393341,0.004420779645442963,0.011037349700927734,0.04958118125796318,0.09459584951400757,-0.050685714930295944,-0.0653281584781588,-0.014485946486250366,-0.14996159676218157
3.3012490272521973,-0.002300206571817398,0.005364961922168732,0.014437735080718994,0.06637877225875854,0.0858113169670105,-0.06022537127137184,-0.0650547738868208,-0.01375080468649098,-0.1505188895853397
3.3111841678619385,-0.0004920279607176781,0.008148007094860077,0.009066760540008545,0.07537759095430374,0.06512068957090378,-0.07436356693506241,-0.06469712689573513,-0.013192335792561103,-0.1511875088819604
3.3214282989501953,0.0017879949882626534,-0.0028099939227104187,0.0022462010383605957,0.07655081152915955,0.04729757457971573,-0.07684078067541122,-0.06428647578806902,-0.012877336824725525,-0.15196244656476254
3.333343029022217,0.003347773104906082,-0.003964558243751526,-0.002755284309387207,0.08046672493219376,0.04253504425287247,-0.06579425930976868,-0.06379206939796199,-0.012696823330837529,-0.15268545947259926
3.341261148452759,0.0030033867806196213,0.009622454643249512,-0.006995797157287598,0.0597553588449955,0.04012292996048927,-0.054807648062705994,-0.0633266928569305,-0.012504250303092882,-0.1532926513717131
3.351067066192627,0.0020500626415014267,0.01142459362745285,-0.012353599071502686,0.030952204018831253,0.03634151071310043,-0.04033789783716202,-0.06315690037782346,-0.012298046075244548,-0.1537778370157427
3.360931158065796,0.0004412531852722168,0.00644393265247345,-0.009709775447845459,0.022802479565143585,0.028889760375022888,-0.030285049229860306,-0.06313262513251582,-0.01209260039718892,-0.15412780134514906
3.3710641860961914,-0.00045517459511756897,-0.00015645474195480347,-0.004667162895202637,0.02312498912215233,0.023296058177947998,-0.023074273020029068,-0.06304949816849686,-0.011928193502778402,-0.15439668008526253
3.384625196456909,-0.0035698097199201584,-0.00723305344581604,-0.004339098930358887,0.02536306157708168,0.020250067114830017,-0.017562810331583023,-0.06295428340512985,-0.011788665381506405,-0.15460634335363616
3.3909950256347656,-0.005499839782714844,-0.013928718864917755,-0.007460057735443115,0.03156716004014015,0.01124032773077488,-0.014492717571556568,-0.06285960033414982,-0.011689417516531153,-0.15476500433314422
3.400987148284912,-0.0054244184866547585,-0.01496247947216034,-0.008593857288360596,0.041908148676157,0.000695984810590744,-0.006640120875090361,-0.06245824598401974,-0.011627088988168735,-0.15485557544690504
3.4110751152038574,-0.004092560149729252,-0.007790856063365936,-0.009646832942962646,0.045368924736976624,-0.006478837691247463,-0.000646676984615624,-0.06196902230457124,-0.01163108540882164,-0.15488720944934853
3.4212381839752197,-0.0018775565549731255,-0.003769960254430771,-0.01034855842590332,0.04104458540678024,-0.014318028464913368,0.0013944227248430252,-0.06170127943912513,-0.011725112164918448,-0.1548852747062109
3.432047128677368,-0.0007422696799039841,-0.01052045077085495,-0.009608983993530273,0.02808058261871338,-0.016118858009576797,-0.0004524793475866318,-0.06155451750349856,-0.011884041653692312,-0.15487083152406186
3.441171169281006,0.0011993283405900002,-0.00950547680258751,-0.005379915237426758,0.007890443317592144,-0.010656582191586494,-0.0036954106763005257,-0.061485457123590444,-0.012040618392599371,-0.15488114699873862
3.451594114303589,0.002507491037249565,-0.006205122917890549,-0.007472097873687744,-0.004145713057368994,-0.005482326727360487,-0.011134685017168522,-0.061496282471796636,-0.01212825946359172,-0.1549560886856576
3.4612531661987305,0.0033382922410964966,-0.007071349769830704,-0.006448686122894287,-0.006728396750986576,-0.006050334312021732,-0.020759189501404762,-0.06146217706606511,-0.012211516762422088,-0.1551179491191815
3.4713621139526367,0.0063977111130952835,-0.005231697112321854,-0.0010977387428283691,0.007449740543961525,-0.007287106476724148,-0.02531239576637745,-0.06127011136149099,-0.012326070564132168,-0.15535205562004378
3.4842851161956787,0.009193706326186657,0.007243193686008453,0.0023133158683776855,0.02864159643650055,-0.002754806075245142,-0.03224577382206917,-0.060864167892602745,-0.012421137595062942,-0.15563709352799102
3.491572141647339,0.008183222264051437,0.017038308084011078,-0.001378178596496582,0.05456800013780594,-0.002482897136360407,-0.04042487591505051,-0.060330155034209354,-0.012478475188081425,-0.15598938969657059
3.5014572143554688,0.007956255227327347,0.012255210429430008,0.0025976896286010742,0.06957507878541946,-0.0012907776981592178,-0.048554014414548874,-0.05966466961432362,-0.012541043012429457,-0.15643674353269982
3.511336088180542,0.004869379103183746,0.005053181201219559,0.005566120147705078,0.07779625803232193,0.015701521188020706,-0.04704559966921806,-0.05876270415280987,-0.012489905865858943,-0.15690868329239488
3.5213921070098877,0.0012470381334424019,0.007462061941623688,0.006156444549560547,0.07932599633932114,0.029459545388817787,-0.044500790536403656,-0.05784762489822025,-0.012253935952368818,-0.15735205049508366
3.532881259918213,-0.0003278125077486038,0.00803348422050476,0.010633647441864014,0.07806578278541565,0.027386274188756943,-0.04177264869213104,-0.05700014956648437,-0.011959729371010051,-0.15777254587267367
3.541476249694824,0.0024627503007650375,0.003955487161874771,0.013872683048248291,0.07404091954231262,0.02989150956273079,-0.04007973149418831,-0.05617875500582081,-0.011666977330811802,-0.15817349864082125
3.5517501831054688,0.006235272623598576,0.00603875145316124,0.011428296566009521,0.06180289015173912,0.03236585110425949,-0.03694945201277733,-0.055482959431549426,-0.01131861645342793,-0.15854146123575474
3.5614709854125977,0.009768315590918064,0.007328066974878311,0.009606480598449707,0.05198471620678902,0.0269174687564373,-0.032302126288414,-0.05510860338575428,-0.010975150409255532,-0.15887673138865493
3.571702003479004,0.013229159638285637,0.006434950977563858,0.013480961322784424,0.052389781922101974,0.01807098090648651,-0.035333868116140366,-0.05490277176634249,-0.01072759722938307,-0.15920629581739196
3.5825252532958984,0.014585102908313274,0.0038823336362838745,0.016887366771697998,0.06205632910132408,0.008537929505109787,-0.032074056565761566,-0.05458626554898665,-0.010572494865041502,-0.1595390543467819
3.591423988342285,0.015970125794410706,0.010928153991699219,0.01377260684967041,0.06438127160072327,0.0026041397359222174,-0.02330027148127556,-0.05407044564640593,-0.01052282059839161,-0.15980837211834367
3.601494312286377,0.017583981156349182,0.01449621468782425,0.003191351890563965,0.05793744698166847,0.0003100926987826824,-0.01285247690975666,-0.05362979607194372,-0.01053426910766589,-0.15997926944127447
3.6113641262054443,0.016409005969762802,0.009435474872589111,-0.002693772315979004,0.054818619042634964,-0.004118477925658226,-0.007564504165202379,-0.05324259687919535,-0.010595128388982137,-0.16008109631566403
