timestamp,accel_x,accel_y,accel_z,rotation_x,rotation_y,rotation_z, pitch,roll,yaw
0.0395197868347168,-0.0030548572540283203,0.00969785451889038,0.00786525011062622,0.00760758388787508,-0.0037481444887816906,-0.00280825630761683,-0.299316927314375,1.39917759409952,0.2524491841044512
0.04743480682373047,-0.0030359625816345215,0.009675264358520508,0.008375942707061768,0.010383130051195621,-0.005203028675168753,-0.003966465126723051,-0.29934054005856403,1.3991038651507668,0.2523415162809295
0.06131696701049805,-0.004063427448272705,0.006498426198959351,0.009057283401489258,0.015078699216246605,-0.004795875400304794,-0.006830161903053522,-0.2993756451707874,1.3990104042792482,0.25219124927101094
0.06368899345397949,-0.005254030227661133,0.004610002040863037,0.010804995894432068,0.014713579788804054,-0.0026371171697974205,-0.009970296174287796,-0.29943571279715336,1.398933605594677,0.2520237203743793
0.07068800926208496,-0.004942893981933594,0.00414729118347168,0.009037554264068604,0.015354168601334095,-0.0013381163589656353,-0.01279633492231369,-0.29952071110204187,1.3988614950238119,0.25185481798492043
0.07830810546875,-0.0037923455238342285,0.0017238855361938477,0.009073317050933838,0.013375441543757915,-0.001717883162200451,-0.011477803811430931,-0.2996136910077281,1.3988022873090502,0.2516826282280157
0.08837294578552246,-0.0032205581665039062,0.0009223520755767822,0.009232878684997559,0.009839328937232494,0.0007266323082149029,-0.01299708429723978,-0.2997179768136154,1.3987569168296021,0.25153732805574175
0.09999895095825195,-0.00356292724609375,-0.00023514032363891602,0.011649012565612793,0.008829724974930286,-0.002559176180511713,-0.012324635870754719,-0.2998275093548552,1.3987130089741369,0.2514200558289848
0.1085519790649414,-0.004777193069458008,-0.002749830484390259,0.014665231108665466,0.006453519221395254,-0.0004358380101621151,-0.011410586535930634,-0.2999361263102097,1.398680120138134,0.25133150325614245
0.11841583251953125,-0.002956688404083252,-0.004268914461135864,0.013802185654640198,0.005601041484624147,-0.0007434329017996788,-0.012647358700633049,-0.30004077802664453,1.3986511185796937,0.25125299750571833
0.12859296798706055,-0.004240214824676514,-0.004153221845626831,0.010827377438545227,0.004076214972883463,0.001786304172128439,-0.008038331754505634,-0.3001273499301218,1.3986295936230846,0.25118499053333293
0.1387190818786621,-0.005035221576690674,-0.0058130621910095215,0.010832443833351135,0.0039691561833024025,0.007291324436664581,-0.005240947008132935,-0.30018773720421854,1.3986533732137114,0.2511260477510316
0.15006089210510254,-0.007865488529205322,-0.0068756043910980225,0.010881975293159485,0.0033747884444892406,0.012991865165531635,0.0007276226533576846,-0.3002138206427504,1.398745242346842,0.25108302940207156
0.15854787826538086,-0.004670619964599609,-0.007733017206192017,0.011875882744789124,0.002515119966119528,0.014120513573288918,0.001240014680661261,-0.30020087390864314,1.3988733937808713,0.2510506709057912
0.16874098777770996,-0.002418816089630127,-0.00763016939163208,0.011021211743354797,0.00018914835527539253,0.014352740719914436,0.0065368288196623325,-0.3001570879555321,1.3990218460417467,0.2510416314907615
0.17857599258422852,-0.0034726858139038086,-0.006303310394287109,0.009377479553222656,-0.002188788028433919,0.014084827154874802,0.010170446708798409,-0.30007795727862135,1.399167512908583,0.25106143330838976
0.18882179260253906,-0.0014441609382629395,-0.0065507590770721436,0.008710741996765137,-0.011184613220393658,0.009850578382611275,0.008752899244427681,-0.29998560064970164,1.399475516198427,0.25119208072095683
0.19997191429138184,0.0006945133209228516,-0.004053652286529541,0.008150219917297363,-0.0195354875177145,0.005991924088448286,0.008687385357916355,-0.29989534674602647,1.3997678395433222,0.25141157796629754
0.20873785018920898,-0.00042933225631713867,-0.004280835390090942,0.006964519619941711,-0.023516830056905746,0.0034356885589659214,0.007104935124516487,-0.2998296583887307,1.3999934223312833,0.25167728867667827
0.2185049057006836,0.00016361474990844727,-0.0020559728145599365,0.0056020766496658325,-0.023219354450702667,-0.0032094307243824005,0.005551779642701149,-0.29976880776064785,1.4001796355960832,0.2519690025640366
0.22884297370910645,-0.00024139881134033203,-0.00021466612815856934,0.00441056489944458,-0.02048071101307869,-0.003661679569631815,0.006300340406596661,-0.2997102045787305,1.4003138423959904,0.25223622685220987
0.23876690864562988,-0.0016201138496398926,0.0016566812992095947,0.00425209105014801,-0.013605494052171707,-0.0052369399927556515,0.008957110345363617,-0.299604147652451,1.4004391677462298,0.2524619435767378
0.2505528926849365,-0.003170907497406006,0.004181385040283203,0.005126044154167175,-0.010102670639753342,-0.0048377313651144505,0.008381813764572144,-0.29946906914570687,1.400539101936905,0.2526371981752419
0.25899600982666016,-0.005136430263519287,0.004145711660385132,0.0028487294912338257,-0.010312793776392937,-0.005604722071439028,0.007706968579441309,-0.2993627326700073,1.4006135603069003,0.25278565058300806
0.26906895637512207,-0.006919920444488525,0.003824889659881592,0.00278685986995697,-0.009691362269222736,-0.004153788089752197,0.006644900422543287,-0.29925132758560025,1.4006851093156396,0.2529252126059931
0.27899980545043945,-0.007556319236755371,0.005424588918685913,0.003474891185760498,-0.009343553334474564,-0.007700585760176182,0.003512756433337927,-0.299190004664947,1.4007355073947116,0.25305719068845656
0.2888507843017578,-0.006470024585723877,0.0062444210052490234,0.005416557192802429,-0.006838101428002119,-0.01121049840003252,0.0027857667300850153,-0.29914650124140063,1.400733782262174,0.253169392927899
0.29988908767700195,-0.006876826286315918,0.007416069507598877,0.007482573390007019,-0.0027637314051389694,-0.013815070502460003,0.0006885274779051542,-0.29913397574212036,1.400679406665451,0.2532405826791925
0.30868005752563477,-0.00581592321395874,0.008293241262435913,0.008857712149620056,-0.0011831950396299362,-0.015465475618839264,-0.0028877248987555504,-0.299158131189398,1.4005789640839688,0.25327164692736986
0.31870079040527344,-0.0061757564544677734,0.007973074913024902,0.011311456561088562,0.000765972537919879,-0.014466257765889168,-0.004336751066148281,-0.2992217552821142,1.400465221356345,0.25327529149015426
0.328685998916626,-0.005555927753448486,0.006392180919647217,0.013082802295684814,0.004238451831042767,-0.011359725147485733,-0.003681719768792391,-0.2993111915335288,1.4003781089307417,0.25325667518332223
0.33876800537109375,-0.006059885025024414,0.004732459783554077,0.01389022171497345,0.006884568836539984,-0.006613173056393862,-0.0053762891329824924,-0.29941931854008336,1.400292701768324,0.2531986157981903
0.35063886642456055,-0.006495118141174316,0.005231648683547974,0.015033841133117676,0.009766624309122562,-0.002470581326633692,-0.005354930646717548,-0.2995196941119772,1.4002395676256312,0.25310735296354747
0.3588218688964844,-0.004598140716552734,0.004577308893203735,0.014666914939880371,0.013887866400182247,0.0005473131313920021,-0.005736561492085457,-0.29962959756569535,1.400218285784858,0.2529820836142049
0.3687448501586914,-0.005714714527130127,0.004210621118545532,0.0142059326171875,0.014871088787913322,0.00471902173012495,-0.005646706558763981,-0.2997419299186984,1.4002481667546676,0.2528361006651851
0.3789048194885254,-0.005627036094665527,0.001468271017074585,0.013507962226867676,0.01185186393558979,0.006485230289399624,-0.007205188274383545,-0.299881194198671,1.400333805875276,0.25271102598303974
0.3887920379638672,-0.005430698394775391,-0.0007197260856628418,0.015016421675682068,0.006783518474549055,0.00922433566302061,-0.01021578535437584,-0.3000472365878979,1.4004568981956962,0.252618200694611
0.40021300315856934,-0.006642520427703857,-0.0026668012142181396,0.015093624591827393,0.002759481780230999,0.009579600766301155,-0.010980645194649696,-0.30023252957673924,1.4006405454137838,0.25258221269516795
0.4087529182434082,-0.0032186508178710938,-0.0015413761138916016,0.009638309478759766,0.0006718297954648733,0.008940176106989384,-0.011131113395094872,-0.30041214330559923,1.4008339047079121,0.2525858736883231
0.41888904571533203,-0.0022727251052856445,-0.0022886693477630615,0.005266666412353516,-0.00044696428813040257,0.0068666390143334866,-0.010956676676869392,-0.3005714891668427,1.4010280406590974,0.25261374376735235
0.42885494232177734,-0.0054596662521362305,-0.002926379442214966,0.0056765079498291016,-0.002269032411277294,0.00806603766977787,-0.008908652700483799,-0.3007439104983888,1.4012319142801786,0.25264980716637586
0.43896484375,-0.005089402198791504,-0.0029389560222625732,0.004717230796813965,-0.0008359856437891722,0.006815417669713497,-0.005753339268267155,-0.30086896529160273,1.401433763052603,0.2526868001707315
0.45060205459594727,-0.003232121467590332,-0.004510074853897095,0.004064455628395081,-0.0003656046465039253,0.006189041770994663,0.0002482003765180707,-0.3009481987887356,1.4016043560141795,0.25272158941220946
0.45896005630493164,-0.0032080411911010742,-0.004479080438613892,0.001880154013633728,-0.000849500996991992,0.0037929960526525974,0.0010522088268771768,-0.30096374670270176,1.4017680208483831,0.25276570069132553
0.4688539505004883,-0.005727529525756836,-0.005586057901382446,0.00023649632930755615,-0.0025740310084074736,0.0018491547089070082,0.005012382287532091,-0.30094053968981105,1.4019267338762573,0.25282891624146
0.4788799285888672,-0.0035506486892700195,-0.004906445741653442,0.0005113482475280762,-0.0074872965924441814,-0.0007317145355045795,0.004317297600209713,-0.30089999269993184,1.4020745490543893,0.2529298888025293
0.4889860153198242,-0.0029950737953186035,-0.0034407079219818115,0.0010675787925720215,-0.012188625521957874,-0.0040641725063323975,0.005353373941034079,-0.30086708598746237,1.4021661836530905,0.2530674427192965
0.4996979236602783,-0.002182185649871826,-0.002923429012298584,0.0023834556341171265,-0.013240840286016464,-0.008344670757651329,0.0042596133425831795,-0.30083672612259055,1.4021801849610234,0.2532109841332542
0.5089478492736816,-0.0008795261383056641,-0.00108414888381958,0.0018188953399658203,-0.011565977707505226,-0.009201676584780216,0.007060992531478405,-0.30079616032133893,1.4021660598045018,0.2533602033295753
0.5191519260406494,0.001276254653930664,0.00027358531951904297,0.0025232434272766113,-0.006565626710653305,-0.012538083828985691,0.007560068741440773,-0.300732561192562,1.4021182205705853,0.25347542472278406
0.5291099548339844,0.0005275607109069824,0.003050863742828369,0.0017728209495544434,-0.004286560229957104,-0.011999238282442093,0.008926750160753727,-0.3006365246031611,1.4020451768439834,0.253561369660665
0.539154052734375,-0.0019739270210266113,0.002475053071975708,0.0024297237396240234,-0.003438609652221203,-0.010509200394153595,0.006444950122386217,-0.3005364713969163,1.4019524328757127,0.2536114335719638
0.5502328872680664,-0.004715323448181152,0.0031806230545043945,0.0038154125213623047,-0.0037521133199334145,-0.008317550644278526,0.005406104493886232,-0.3004527422364668,1.4018626735418647,0.25365898825522937
0.5590600967407227,-0.004404783248901367,0.004291266202926636,0.003663182258605957,-0.0011608577333390713,-0.009152984246611595,0.004026320762932301,-0.3003762288097324,1.4017852730664095,0.2536944295471141
0.5690608024597168,-0.006817162036895752,0.0032990574836730957,0.0063623785972595215,-0.0009280808735638857,-0.009870307520031929,0.0022940938360989094,-0.30032873602121135,1.4017084801016557,0.25371940120243125
0.5790920257568359,-0.007159888744354248,0.0031666159629821777,0.006828978657722473,0.0017566517926752567,-0.011396830901503563,0.0016575983026996255,-0.3003076344618239,1.4016191825256457,0.2537232138091769
0.5891838073730469,-0.005328714847564697,0.003972381353378296,0.006575524806976318,0.0032124186400324106,-0.013538766652345657,0.0012061393354088068,-0.300294751709129,1.401500114084603,0.25370702569637366
0.600557804107666,-0.0071280598640441895,0.0039023160934448242,0.008468195796012878,0.006130443885922432,-0.012849275022745132,-0.0010317148407921195,-0.30028831190981936,1.4013864027501755,0.2536639224028976
0.6091499328613281,-0.007845401763916016,0.002940624952316284,0.009015977382659912,0.0036122759338468313,-0.012480293400585651,-0.0018748183501884341,-0.3003206391813531,1.4012566555060175,0.2536156191299623
0.6191339492797852,-0.009279072284698486,0.002083897590637207,0.00849980115890503,0.003872466506436467,-0.007721224799752235,-0.004391505382955074,-0.30037089458467847,1.40115396004242,0.25357121039186753
0.629119873046875,-0.009480774402618408,0.002186387777328491,0.009225085377693176,0.006310923490673304,-0.0033731707371771336,-0.0024635898880660534,-0.3004392808978797,1.4011093100423846,0.25352860219123396
0.6391830444335938,-0.008819222450256348,0.0034252703189849854,0.008873000741004944,0.012807704508304596,-0.0008450322784483433,-0.0027581355534493923,-0.3005000684508966,1.4010910956795195,0.2534270383488134
0.6497039794921875,-0.0066214799880981445,0.004894375801086426,0.011195316910743713,0.017541108652949333,0.0027941775042563677,-0.005575120914727449,-0.30055951381251744,1.4011009603340023,0.2532809787564728
0.659369945526123,-0.0052523016929626465,0.00339508056640625,0.011504590511322021,0.01914566196501255,0.005435767117887735,-0.0036760205402970314,-0.30061161556876664,1.4011262386261272,0.2530869335115554
0.6693158149719238,-0.005564510822296143,0.002612501382827759,0.012238800525665283,0.02088151127099991,0.007139124907553196,-0.00520068034529686,-0.30066410803408283,1.4011701909397702,0.2528834016557547
0.6793220043182373,-0.004379451274871826,0.0015804171562194824,0.011816799640655518,0.015522431582212448,0.0063955700024962425,-0.0065983072854578495,-0.30073822517797755,1.4012417426747343,0.25270834464820535
0.6894650459289551,-0.004538178443908691,-0.0011858642101287842,0.011233508586883545,0.011308428831398487,0.008941862732172012,-0.008092233911156654,-0.30082273116588437,1.4013381502300044,0.25257202337628715
0.7006368637084961,-0.00568842887878418,-0.0025447607040405273,0.009867444634437561,0.009436759166419506,0.009774367325007915,-0.00812871940433979,-0.30091947310130684,1.4014550055117485,0.25246030370843836
0.7093348503112793,-0.006138980388641357,-0.0012877285480499268,0.006989777088165283,0.013812266290187836,0.009393889456987381,-0.007354591973125935,-0.301009296677467,1.4015733182327723,0.2523491851083036
0.7191348075866699,-0.004847168922424316,-0.001520782709121704,0.008120834827423096,0.013207195326685905,0.008384285494685173,-0.00733914552256465,-0.3010935425940349,1.4016640300868901,0.25220685965103806
0.7292990684509277,-0.005941271781921387,-0.0024721622467041016,0.005036666989326477,0.011591406539082527,0.009645159356296062,-0.005218416918069124,-0.3011790123451594,1.4017912356364748,0.2520897821574128
0.7393507957458496,-0.00466388463973999,-0.002796649932861328,0.004066899418830872,0.006450972519814968,0.011562368832528591,-0.005123608745634556,-0.30124713193817926,1.4019424988788587,0.2520116548450604
0.7499470710754395,-0.0048111677169799805,-0.003995329141616821,0.004915371537208557,0.0063384538516402245,0.010458843782544136,-0.0024667326360940933,-0.30130398505480543,1.4021079333205804,0.2519670035349149
0.7594218254089355,-0.003268003463745117,-0.004622161388397217,0.004443123936653137,0.004855605773627758,0.007931770756840706,-0.0015596598386764526,-0.3013371894447002,1.4022512689286675,0.25193253656525433
0.7695069313049316,-0.002055525779724121,-0.0039643049240112305,0.003039434552192688,0.003152780933305621,0.0029285785276442766,0.002035394310951233,-0.30131941145733476,1.4023654784980528,0.2519085956101796
0.7793219089508057,-0.002777278423309326,-0.0031737983226776123,0.0024548321962356567,0.004643618129193783,0.002296344144269824,0.002547786571085453,-0.3012905920807377,1.402436913329436,0.2518873803110784
0.7894067764282227,-0.0029602646827697754,-0.003543168306350708,0.0023706555366516113,0.0022577419877052307,0.00028996262699365616,0.0028563407249748707,-0.30126191557776455,1.4024792419985637,0.25186837913998245
0.8002369403839111,-0.003967404365539551,-0.001743912696838379,0.001663804054260254,0.0010127145797014236,-0.00037502869963645935,0.004450775217264891,-0.30123132098150845,1.4025185374397515,0.2518697922240376
0.809323787689209,-0.0030817389488220215,-0.0009882152080535889,0.0014658570289611816,0.0007899741176515818,-0.0010066414251923561,0.0038250917568802834,-0.30119098968140595,1.4025364423319526,0.25187888674388365
0.8193459510803223,-0.0025162100791931152,-0.0008067786693572998,0.0014937371015548706,-0.00042016617953777313,-0.0026964168064296246,0.002319873310625553,-0.30114478946710227,1.4025416703703024,0.2518922294481882
0.8294568061828613,-0.0036959052085876465,0.0012713968753814697,0.001723945140838623,0.0019939562771469355,-0.003098732326179743,0.006002225913107395,-0.30107774352264455,1.4025438023795582,0.251899488921318
0.8394861221313477,-0.003651738166809082,0.0020717382431030273,0.002848789095878601,0.0030421761330217123,-0.005875077564269304,0.0049398913979530334,-0.30100667118301627,1.4025196995021838,0.25188690101947936
0.8514580726623535,-0.004377424716949463,0.0010221004486083984,0.0033933520317077637,0.0037055029533803463,-0.004579094238579273,0.0013712021755054593,-0.300955328341805,1.4024788056498294,0.25186667383270694
0.8596549034118652,-0.0054642558097839355,0.0015111863613128662,0.005216315388679504,0.002121720928698778,-0.00503928866237402,0.0010204637655988336,-0.3009225125417116,1.4024405539941238,0.2518466000337799
0.8696150779724121,-0.004500091075897217,0.0020634829998016357,0.0045952945947647095,0.004265649244189262,-0.006050268653780222,-0.0009535776916891336,-0.3009034034937968,1.4023880505511108,0.2518217035782692
0.879626989364624,-0.002517879009246826,0.0028767287731170654,0.005465641617774963,0.004139415454119444,-0.0073315161280334,-0.0014294845750555396,-0.30091467103027497,1.4023219812905472,0.2517822508910047
0.8896489143371582,-0.00477147102355957,0.0033638179302215576,0.005552411079406738,0.0054607093334198,-0.008747341111302376,-0.002479728776961565,-0.3009318933396485,1.4022289596157194,0.2517288053626724
0.9005060195922852,-0.005083024501800537,0.004183381795883179,0.005996048450469971,0.006291083060204983,-0.006270601414144039,-0.0036659007892012596,-0.30096847774335417,1.4021447504266962,0.25165926623337237
0.9095010757446289,-0.006090939044952393,0.0028995275497436523,0.006968796253204346,0.005834783893078566,-0.0042787338607013226,-0.006883105728775263,-0.3010345836589709,1.402080502460721,0.2515844001335466
0.9196529388427734,-0.007224023342132568,0.0018992424011230469,0.006782948970794678,0.009693438187241554,-0.0016286224126815796,-0.00802400428801775,-0.30110736080441974,1.402047147092831,0.2514929802393101
0.9296150207519531,-0.006877303123474121,0.0022073984146118164,0.006999969482421875,0.010126217268407345,-0.0009094360284507275,-0.009115739725530148,-0.30118412185754956,1.4020232380440893,0.2513850717978375
0.9397439956665039,-0.005479276180267334,0.0014438927173614502,0.007567405700683594,0.012809086591005325,-0.00013126013800501823,-0.007397735025733709,-0.30126462029615764,1.4020159540910606,0.25126195580425953
0.951261043548584,-0.005612850189208984,0.0008910894393920898,0.0076814740896224976,0.01295476034283638,0.0015033879317343235,-0.006801453419029713,-0.3013322361699138,1.4020208819537,0.25112569403986174
0.9597349166870117,-0.007003068923950195,0.0003743171691894531,0.006706655025482178,0.01380031555891037,0.004903445485979319,-0.00531274639070034,-0.301393988421631,1.4020481693949387,0.25099344142371843
0.9697160720825195,-0.006671905517578125,-0.0016967952251434326,0.006221175193786621,0.01476504560559988,0.005235719028860331,-0.004711244720965624,-0.3014536243029233,1.402090654306671,0.2508527321168003
0.9797298908233643,-0.007424056529998779,-0.0010530054569244385,0.005978643894195557,0.015773318707942963,0.005963561125099659,-0.005493947304785252,-0.3015145027065242,1.4021343805462128,0.2507002180143049
0.9897949695587158,-0.006988942623138428,-0.0013148784637451172,0.005416452884674072,0.015665292739868164,0.004739128518849611,-0.005110132973641157,-0.3015650090634011,1.4021777796134527,0.2505464260795006
1.000946044921875,-0.005043745040893555,-0.0018038153648376465,0.005694210529327393,0.013353136368095875,0.004911968018859625,-0.0052611343562603,-0.3016136256976191,1.4022205316542078,0.2504049542879815
1.0097417831420898,-0.005124807357788086,-0.003109842538833618,0.0058068037033081055,0.012281813658773899,0.004429047927260399,-0.005050158593803644,-0.3016710215888565,1.40226001280959,0.250268122046612
1.0198359489440918,-0.003773927688598633,-0.0029757022857666016,0.00423741340637207,0.013242149725556374,0.0031403442844748497,-0.00470980629324913,-0.3017223218200715,1.402303505598301,0.250137586397689
1.029695987701416,-0.002783358097076416,-0.0015577971935272217,0.0051506757736206055,0.011307263746857643,0.0020725938957184553,-0.0086289681494236,-0.30178746659785377,1.4023348820356134,0.25001504001846825
1.0398540496826172,-0.0013443827629089355,-0.001160651445388794,0.003781735897064209,0.011801812797784805,-0.002184202428907156,-0.006341045722365379,-0.3018509294641458,1.4023268930272519,0.24989309894953687
1.0507609844207764,-0.0023160576820373535,0.0003922879695892334,0.0021609216928482056,0.011175686493515968,-0.0018322658725082874,-0.007365190889686346,-0.301902457465921,1.4022953673275425,0.24977267155820754
1.0598540306091309,-0.005149364471435547,-0.0021838247776031494,0.0039250850677490234,0.008102132007479668,-0.0005749878473579884,-0.0070149851962924,-0.3019637046175839,1.4022820819928261,0.24966697463607912
1.0698199272155762,-0.004783153533935547,-0.003406316041946411,0.003972306847572327,0.006223837845027447,0.00010189926251769066,-0.005153169855475426,-0.3020135059160949,1.402277932495452,0.2495913283490921
1.0798587799072266,-0.0032175183296203613,-0.004296451807022095,0.0040212273597717285,0.005109571851789951,0.0015634424053132534,-0.005329470615833998,-0.3020508480081036,1.4022888053941989,0.24952920393660483
1.089958906173706,-0.0037674903869628906,-0.005240112543106079,0.002147391438484192,0.004428467713296413,0.0023159626871347427,-0.000980102689936757,-0.30206427156213334,1.4023173828154663,0.24947519968440623
1.1014108657836914,-0.004519343376159668,-0.004031747579574585,0.0029214024543762207,0.004247905686497688,0.0010775928385555744,-0.0007204445428214967,-0.30206125923553573,1.402338186224308,0.24942631414542324
1.109811782836914,-0.0035386085510253906,-0.003932982683181763,0.004515886306762695,0.0038430052809417248,-5.8955512940883636e-05,0.0018786940490826964,-0.30203770578970124,1.4023637936655506,0.24939086240456276
1.1204969882965088,-0.0042833685874938965,-0.004022568464279175,0.0040607452392578125,0.0031516486778855324,0.0006097643636167049,0.004277137108147144,-0.3020037424851116,1.4023790283139694,0.24936732369203016
1.1299059391021729,-0.0059410929679870605,-0.004135400056838989,0.00453735888004303,0.0019508961122483015,0.001472450327128172,0.0020933449268341064,-0.30197801048805556,1.4023927954939648,0.2493516290663539
1.1399569511413574,-0.005877673625946045,-0.0035705268383026123,0.005205467343330383,0.000616386067122221,-0.0003424938768148422,0.004285392351448536,-0.301945775930516,1.402414164921543,0.24934777234375405
1.1507019996643066,-0.0055768489837646484,-0.0024968981742858887,0.005688965320587158,0.0028268597088754177,0.0015175025910139084,0.005473215598613024,-0.301892052970307,1.402438315901529,0.2493495668515154
1.1599688529968262,-0.004439234733581543,-0.0008161664009094238,0.004364609718322754,0.003806903026998043,-0.00019064871594309807,0.003919527400285006,-0.3018257643853878,1.4024547113763237,0.24932555200297674
1.1699669361114502,-0.004590749740600586,-0.0008584558963775635,0.0034270286560058594,0.0026338640600442886,0.00013767415657639503,0.001174767385236919,-0.3017741703433698,1.4024484498202154,0.2492955932164451
1.179992914199829,-0.004416406154632568,-0.0002467632293701172,0.005021348595619202,0.0036346795968711376,-0.0005539488047361374,0.0011116504902020097,-0.30174077928630194,1.4024423181155579,0.2492616875978799
1.18998384475708,-0.005424559116363525,0.0004909634590148926,0.006474092602729797,0.00015424448065459728,-0.0028034760616719723,-0.0018749248702079058,-0.3017351712899999,1.4024392456332095,0.24925338073110329
1.2002520561218262,-0.003998219966888428,-6.282329559326172e-05,0.0067094117403030396,-0.003226904897019267,-0.0029893643222749233,-0.0021380451507866383,-0.301755884627434,1.4024313059624591,0.2492733320905275
1.2099637985229492,-0.004173994064331055,0.0007958412170410156,0.0055285245180130005,-0.0031849932856857777,-0.001004599966108799,-0.005442122463136911,-0.30178343345391034,1.4024362132855508,0.24930012422151918
1.2200639247894287,-0.005231201648712158,0.0015952587127685547,0.006571769714355469,-0.001990299206227064,-0.0005324212834239006,-0.004919077735394239,-0.3018251997399783,1.4024441924278994,0.24932164010785465
1.230116844177246,-0.004677414894104004,0.0003928244113922119,0.005936384201049805,0.00044597708620131016,0.000900492537766695,-0.001616598223336041,-0.30185401151595576,1.4024692534494532,0.24932917965972667
1.2401618957519531,-0.007929086685180664,0.0014619231224060059,0.005183875560760498,0.005192529410123825,0.003625172656029463,-0.0010964828543365002,-0.30186894088817506,1.402506012468654,0.24931098214503752
1.2512140274047852,-0.007659256458282471,0.001242995262145996,0.005725502967834473,0.009040430188179016,0.005000606179237366,-0.000644597748760134,-0.30187453140690973,1.4025463660802249,0.24924167868299268
1.2601938247680664,-0.007317960262298584,0.0008705258369445801,0.006432667374610901,0.011035404168069363,0.005664266180247068,-0.0006440651486627758,-0.3018650400963004,1.40258988035268,0.24914598174341235
1.270124912261963,-0.005480706691741943,0.0009613037109375,0.0048824697732925415,0.010105878114700317,0.006134536117315292,-0.0012821052223443985,-0.3018658722005627,1.4026480764438713,0.24905148231967045
1.2800989151000977,-0.005861997604370117,0.00027742981910705566,0.004450738430023193,0.0055425516329705715,0.0041845692321658134,-0.0028299344703555107,-0.3018949602846736,1.4026999668272961,0.24897366297540113
1.290052890777588,-0.00631260871887207,0.0008859336376190186,0.004144847393035889,0.0042652832344174385,0.0029476643539965153,-0.006700200028717518,-0.30194484315514425,1.4027466919809535,0.24892946986899864
1.3001971244812012,-0.006918489933013916,0.0002460777759552002,0.005388900637626648,-0.0011819468345493078,0.0018778725061565638,-0.009430739097297192,-0.3020396954364857,1.402797950929839,0.24891699575481185
1.3101449012756348,-0.006391584873199463,0.0008627474308013916,0.004744410514831543,0.001966309268027544,0.0029911629389971495,-0.009899880737066269,-0.3021449460049634,1.4028448587560627,0.24891084957522805
1.3201570510864258,-0.0060901641845703125,-0.00023695826530456543,0.004716262221336365,0.004622013308107853,0.005684417672455311,-0.009265249595046043,-0.30225797497427925,1.4028849749544259,0.24886801434101766
1.3301301002502441,-0.0062882304191589355,-0.0019694864749908447,0.0038265585899353027,0.009695202112197876,0.010339267551898956,-0.007961738854646683,-0.30234649813360864,1.4029501426205484,0.24878918146405313
1.340120792388916,-0.007018923759460449,-0.0023299753665924072,0.0030770152807235718,0.01282468345016241,0.011872982606291771,-0.004295099060982466,-0.3024045116434342,1.403046306457312,0.24866718911798247
1.3512458801269531,-0.0051688551902771,-0.0022456347942352295,0.002799689769744873,0.014677276834845543,0.01432051695883274,-0.0027525429613888264,-0.30242802350681863,1.4031614096271587,0.24852201804625335
1.360191822052002,-0.0029360055923461914,-0.004992753267288208,0.003622591495513916,0.01309722289443016,0.01611522026360035,0.0015053189126774669,-0.30241256294197993,1.40329307130092,0.24838915522500393
1.3703351020812988,-0.0010422468185424805,-0.006324410438537598,0.0026775598526000977,0.009938297793269157,0.014032673090696335,0.002422245219349861,-0.302384997071751,1.4034231197052691,0.2482790523522396
1.3802149295806885,0.0005311965942382812,-0.0036834776401519775,0.0016510635614395142,0.0055518061853945255,0.010648327879607677,0.003571133129298687,-0.3023517259401596,1.4035427359348798,0.24820450453372614
1.3900628089904785,-3.844499588012695e-05,-0.0034371614456176758,0.001471593976020813,0.0007488951086997986,0.007483604364097118,0.001816482632420957,-0.30233349445377067,1.4036370868577324,0.24818496368563128
1.4002208709716797,-0.0006740093231201172,-0.003537088632583618,-0.00012896955013275146,-0.00566799147054553,0.0030699477065354586,-0.0005356212495826185,-0.3023422686107849,1.4037159732870312,0.2482220869213804
1.410308837890625,0.0006252527236938477,-0.001781463623046875,-0.0001710057258605957,-0.00808973703533411,0.0004290686920285225,-0.0029504159465432167,-0.30237335085037065,1.403758986083974,0.2482972650781537
1.4202349185943604,0.00039464235305786133,-0.0017571747303009033,-0.002370476722717285,-0.008534751832485199,-0.0036354479379951954,-0.004891061224043369,-0.302427828859188,1.4037746762434655,0.24837687867592642
1.4301137924194336,-0.0026224851608276367,6.890296936035156e-05,-0.004425808787345886,-0.0040631541050970554,-0.006312945857644081,-0.005223104264587164,-0.30248099470487816,1.4037508118218427,0.248438933384208
1.44016695022583,-0.0043746232986450195,-0.0004965662956237793,-0.005340218544006348,-0.0018849546322599053,-0.007883411832153797,-0.0031884489580988884,-0.30251390342575474,1.4036992427402193,0.24845868344139022
1.450145959854126,-0.00579524040222168,-0.0014632344245910645,-0.004093825817108154,0.0003105052746832371,-0.010906854644417763,-0.0031485017389059067,-0.3025195241635219,1.4036230057038226,0.24846505914334388
1.4601221084594727,-0.007253587245941162,-0.0019906461238861084,-0.003340676426887512,0.0004386033397167921,-0.013738593086600304,-0.0034260032698512077,-0.3025285686496469,1.4035032694692722,0.24845440745003178
1.4703960418701172,-0.008437395095825195,-0.0024330317974090576,-6.921589374542236e-05,-0.00037695630453526974,-0.014318807050585747,-0.001207962865009904,-0.3025284177365811,1.403367141563149,0.24845269936199652
1.480407953262329,-0.007884800434112549,-0.00480884313583374,0.0014357715845108032,-0.0014744449872523546,-0.01710580475628376,0.0019830367527902126,-0.3025076453006652,1.4032120706843711,0.24846481904633308
1.4903309345245361,-0.006848394870758057,-0.0041783154010772705,0.001432672142982483,-0.0017991509521380067,-0.015803609043359756,0.0023633362725377083,-0.30247051064875136,1.4030552138155274,0.24848785686030464
1.5006208419799805,-0.006578326225280762,-0.0034486353397369385,0.003758251667022705,-0.005978183355182409,-0.015123704448342323,0.005497343838214874,-0.30242542375560527,1.4029050736042263,0.24853975179492835
1.510404109954834,-0.005607426166534424,-0.00424841046333313,0.007260307669639587,-0.00507836788892746,-0.011018527671694756,0.006997343152761459,-0.30238411055065106,1.4027692519522523,0.2485949852858783
1.5205168724060059,-0.0038920044898986816,-0.001246631145477295,0.007986366748809814,-0.00202531972900033,-0.01026219129562378,0.005187458824366331,-0.30234054127212173,1.402648629259868,0.2486298684972346
1.530311107635498,-0.002280890941619873,0.001418083906173706,0.009672239422798157,-0.00028705806471407413,-0.006686497945338488,0.0017356289317831397,-0.30231441950836424,1.4025448987493996,0.24863959316681947
1.5404658317565918,-0.0034921765327453613,3.6329030990600586e-05,0.011022299528121948,0.001433610450476408,-0.002330897841602564,-0.0014740126207470894,-0.3023072722187184,1.402472631685566,0.24862944872483084
1.552319049835205,-0.004856407642364502,0.0020495057106018066,0.011579453945159912,0.0018741970416158438,-0.0004405863583087921,-0.0036757541820406914,-0.3023243734257591,1.4024472440294562,0.24860743987986242
1.5604369640350342,-0.004862844944000244,0.001165628433227539,0.01270592212677002,-8.801999501883984e-05,0.002287555718794465,-0.004314114339649677,-0.302355127429661,1.4024484192424937,0.24859419213057302
1.570343017578125,-0.00493931770324707,-0.00039127469062805176,0.012359127402305603,-0.00036798487417399883,0.004384173545986414,-0.009012356400489807,-0.3024196087956365,1.4024730112990975,0.24857840490587485
1.5807199478149414,-0.006634175777435303,-0.0012503564357757568,0.010384559631347656,-0.002043113112449646,0.006904056761413813,-0.010386280715465546,-0.30250433893258166,1.4025399752547427,0.2485791704394744
1.5904889106750488,-0.007268130779266357,-0.0013452470302581787,0.010612472891807556,-0.0011211601085960865,0.008269282057881355,-0.00885017029941082,-0.3025877249065706,1.402650062702545,0.24859056904545238
1.601444959640503,-0.00641024112701416,-0.0015608668327331543,0.009540066123008728,-0.0031973603181540966,0.009485547430813313,-0.0057470547035336494,-0.3026697920112222,1.4027799866353488,0.2486141852132066
1.610503911972046,-0.006947219371795654,-0.004171460866928101,0.007926329970359802,-0.0040525346994400024,0.00960308127105236,-0.005940932314842939,-0.30273509334039655,1.4029185228433412,0.24865308883392606
1.6205730438232422,-0.007886171340942383,-0.0057992637157440186,0.006903454661369324,-0.007320499513298273,0.009965270757675171,-0.0038554114289581776,-0.30279391732438987,1.403078122686383,0.24871806622884993
1.6304879188537598,-0.008233249187469482,-0.004758685827255249,0.006514191627502441,-0.009810172952711582,0.011914217844605446,-0.001089452183805406,-0.3028547557755832,1.4032615385587692,0.24881489637488735
1.6406559944152832,-0.006662249565124512,-0.0070209801197052,0.005792006850242615,-0.01277906447649002,0.01024814322590828,-0.0024844161234796047,-0.3029068910087867,1.4034586411413341,0.24894258692514534
1.6509649753570557,-0.003291785717010498,-0.006497502326965332,0.0028834939002990723,-0.015611901879310608,0.008667735382914543,5.453533958643675e-05,-0.3029499368154076,1.4036446929098618,0.24909941009080705
1.6607208251953125,-0.003431081771850586,-0.0049113929271698,8.255243301391602e-05,-0.01405954547226429,0.008687175810337067,0.0006284465780481696,-0.30298277472930857,1.4038142171914958,0.24926269371480483
1.670604944229126,-0.004798233509063721,-0.0050740838050842285,-0.0012564808130264282,-0.014702615328133106,0.00816852506250143,0.0020793366711586714,-0.30299341448695205,1.4039880033516718,0.2494302757044116
1.6805729866027832,-0.005260884761810303,-0.004441738128662109,-0.0016058087348937988,-0.01346664223819971,0.005665952805429697,0.002609571907669306,-0.3030022850706162,1.404131689993373,0.24958301898171467
1.6905930042266846,-0.002293527126312256,-0.004118174314498901,-0.0008399486541748047,-0.01394747570157051,0.0020221269223839045,0.002721052151173353,-0.3029829773236219,1.404243115404446,0.24974081806405873
1.7009530067443848,0.00022095441818237305,-0.004983752965927124,-0.0021340250968933105,-0.01671396754682064,-0.001496175304055214,0.004353303462266922,-0.30296261868038177,1.4043221293676833,0.249918998204983
1.7104809284210205,0.0013141036033630371,-0.004491060972213745,-0.0018255114555358887,-0.019193554297089577,-0.0038093519397079945,0.006604952737689018,-0.3029260429983816,1.4043853490884741,0.2501282412467044
1.7207319736480713,0.0005972981452941895,-0.0031642019748687744,-0.0020298361778259277,-0.01976080797612667,-0.0033129393123090267,0.009215116500854492,-0.3028468087063237,1.4044282590534407,0.2503514654493956
1.7307968139648438,-0.001018822193145752,-0.0025759637355804443,-0.0021973401308059692,-0.017983663827180862,-0.006111521739512682,0.010369757190346718,-0.30275809247382585,1.4044487672866257,0.2505702055029928
1.7407948970794678,-0.0008920431137084961,0.0008128583431243896,-0.0019768476486206055,-0.014180934987962246,-0.00927775353193283,0.009893317706882954,-0.302660714300388,1.4044303660317263,0.25075641426630096
1.7509629726409912,-0.002902984619140625,0.0038041770458221436,-0.0032008737325668335,-0.010855230502784252,-0.010885104537010193,0.006596377119421959,-0.3025801501740046,1.4043570337356734,0.250898015504769
1.7607760429382324,-0.006446719169616699,0.004271715879440308,-0.00375916063785553,-0.009212592616677284,-0.010954612866044044,0.005376383196562529,-0.3025220374060081,1.4042723793283078,0.25101383869810223
1.7705540657043457,-0.00804370641708374,0.003967702388763428,-0.002508819103240967,-0.00990314967930317,-0.0132161695510149,0.0018578149611130357,-0.3024888307953761,1.404177785547993,0.25112102666037867
1.7806038856506348,-0.0073626041412353516,0.004268229007720947,-0.0012426376342773438,-0.007390191778540611,-0.012089120224118233,0.0012207868276163936,-0.30246168223070297,1.4040661126450924,0.25121245664673186
1.7907359600067139,-0.008709132671356201,0.0034971535205841064,-0.00024712085723876953,-0.003910321742296219,-0.012835914269089699,0.0009036575211212039,-0.30243823353223204,1.4039499593034497,0.2512725758189053
1.8008880615234375,-0.008695006370544434,0.0028158724308013916,0.0023012757301330566,-0.0006261116359382868,-0.012521129101514816,0.0010895462473854423,-0.3024166757487982,1.4038211725212297,0.2512947825000284
1.8106307983398438,-0.00862354040145874,0.0033501386642456055,0.0035501718521118164,0.004461957141757011,-0.010797886177897453,0.0012899225112050772,-0.3023844825283061,1.403695659271012,0.25127274691386564
1.820645809173584,-0.01001739501953125,0.003953278064727783,0.004293382167816162,0.008861765265464783,-0.00654961122199893,0.0022776888217777014,-0.30236004529135463,1.4035882325631612,0.2512036900788692
1.8305950164794922,-0.00837242603302002,0.003189593553543091,0.005935072898864746,0.010672299191355705,-0.004884293302893639,0.0030630549881607294,-0.302344825704401,1.4034822184090683,0.2510967410424936
1.8406689167022705,-0.006819248199462891,0.0026766061782836914,0.007542356848716736,0.008956690318882465,-0.0027345893904566765,-0.00041849532863125205,-0.3023388176044197,1.4033960603353952,0.25098743010563784
1.8509209156036377,-0.007012367248535156,0.001589357852935791,0.008743837475776672,0.00767266470938921,-0.00046828342601656914,-0.004306443966925144,-0.3023747644777265,1.403333554372601,0.2508890565529295
1.860724925994873,-0.0058754682540893555,0.0005673468112945557,0.009422048926353455,0.004970621317625046,0.0008851350285112858,-0.0061810435727238655,-0.3024384043939038,1.4033066751897039,0.25081223472118636
1.8706779479980469,-0.005801856517791748,0.0018086135387420654,0.010066568851470947,0.005126082804054022,0.0027278645429760218,-0.010091416537761688,-0.30252874088015913,1.4032980401354667,0.25074017439791585
1.8807458877563477,-0.005648136138916016,0.0015031993389129639,0.009137988090515137,0.0069242496974766254,0.0034357327967882156,-0.00980006530880928,-0.30264089843246456,1.4033060049427017,0.25066049647622307
1.890768051147461,-0.00409168004989624,-0.0011776387691497803,0.00784754753112793,0.005435076542198658,0.006739296019077301,-0.012299389578402042,-0.30276382064350804,1.4033411660592465,0.2505838229939268
1.900865077972412,-0.005804955959320068,-0.0031795501708984375,0.00926370918750763,0.0037391753867268562,0.009912718087434769,-0.010918806307017803,-0.3028948517490864,1.403418459087409,0.25052258516793074
1.910700798034668,-0.005850493907928467,-0.004234760999679565,0.008433401584625244,0.0018052046652883291,0.011560993269085884,-0.007619310170412064,-0.30300923029833776,1.4035325780929766,0.25048147437192125
1.9207959175109863,-0.0057135820388793945,-0.0055322349071502686,0.007782801985740662,-0.0006374469958245754,0.01382254995405674,-0.006196649745106697,-0.3030897324638073,1.4036846403770298,0.2504751507454414
1.930722951889038,-0.005583763122558594,-0.007027864456176758,0.005502298474311829,-0.002244797768071294,0.015388754196465015,-0.0034310100600123405,-0.3031538954299439,1.403850772191199,0.2504818248766763
1.9406418800354004,-0.005205333232879639,-0.00761038064956665,0.003820374608039856,-0.0043170033022761345,0.014251052401959896,-0.00044826947851106524,-0.3031886804413853,1.4040309129265514,0.25051889458406584
1.95084810256958,-0.004522740840911865,-0.0076056718826293945,0.0033516287803649902,-0.007611599750816822,0.011257126927375793,-0.0002655766438692808,-0.3032157691004889,1.4042033224645367,0.2505866476898292
1.960740089416504,-0.004083812236785889,-0.008456885814666748,0.003279760479927063,-0.012411681935191154,0.010780686512589455,0.0017397835617884994,-0.30324423185743404,1.4043754225317855,0.250705229478368
1.9708619117736816,-0.004305779933929443,-0.008071213960647583,0.001302286982536316,-0.016080185770988464,0.0073803626000881195,0.0013589515583589673,-0.3032558847436607,1.4045465767278624,0.2508682107131409
1.980679988861084,-0.002420663833618164,-0.007068276405334473,0.000933423638343811,-0.018718313425779343,0.004860746208578348,0.0027493881061673164,-0.30326018356624224,1.4046951192541177,0.25106283147362773
1.9907159805297852,-0.0029333829879760742,-0.005606323480606079,-0.00039468705654144287,-0.01930767111480236,0.004626387730240822,0.004761938937008381,-0.3032472213340487,1.404826113469032,0.2512679741456687
2.000898838043213,-0.0021675825119018555,-0.003595590591430664,0.0002697259187698364,-0.01741641014814377,0.0042582061141729355,0.004271065350621939,-0.30321881826859076,1.4049484651636432,0.25146840490303846
2.010901927947998,-0.002412557601928711,-0.0019197463989257812,-0.0010258406400680542,-0.017808178439736366,0.0024549353402107954,0.0056845638900995255,-0.30317360628093476,1.4050628186771081,0.2516694428861321
2.020890951156616,-0.0030092597007751465,-0.002102673053741455,-0.0013310909271240234,-0.01633038930594921,0.0015521235764026642,0.006879257969558239,-0.30310953793798723,1.4051472859605347,0.2518533668412991
2.0308899879455566,-0.0027323365211486816,-0.002487659454345703,-0.0017265677452087402,-0.015880530700087547,0.0006214822642505169,0.006861095316708088,-0.30304920037733596,1.4052139318264654,0.252032829555028
2.0409178733825684,-0.0025454163551330566,-7.69495964050293e-05,-0.00033652782440185547,-0.016519689932465553,-0.0019529955461621284,0.006937528029084206,-0.3029854850532044,1.4052642876727965,0.2522233369361557
2.050996780395508,-0.003085911273956299,0.0008230209350585938,-0.0010228902101516724,-0.017239859327673912,-0.0034195538610219955,0.006065343506634235,-0.3029218550043108,1.405283563654409,0.25240036015200895
2.0609898567199707,-0.0050740838050842285,0.0004985630512237549,-0.0004682689905166626,-0.01394899096339941,-0.0038057127967476845,0.005758014507591724,-0.3028621684066997,1.4052972452781818,0.2525723036074267
2.0709481239318848,-0.005288243293762207,0.0003204643726348877,0.0010897517204284668,-0.01238336879760027,-0.003658928442746401,0.005541658960282803,-0.30280888672419276,1.4052983146281037,0.25271403855320995
2.0809898376464844,-0.005498409271240234,0.0008762776851654053,0.0006314367055892944,-0.012133830226957798,-0.003148667048662901,0.0050082276575267315,-0.3027701447637223,1.4053009013219628,0.2528475025540924
2.0910558700561523,-0.007687687873840332,0.00021257996559143066,0.00040268898010253906,-0.011318370699882507,-0.0018845521844923496,0.003982591442763805,-0.3027461055777626,1.4053020342574254,0.2529689273262366
2.1011290550231934,-0.0073792338371276855,0.0010061264038085938,0.002281010150909424,-0.007579824887216091,0.0005266736261546612,0.003335443325340748,-0.30271400511923163,1.4053182977560543,0.25307255113607313
2.1110219955444336,-0.00845557451248169,0.0020030438899993896,0.0036286264657974243,-0.006341971457004547,0.0004089171998202801,0.0010418756864964962,-0.30269266990402155,1.405330465055328,0.25314293418838363
2.1209819316864014,-0.006766319274902344,0.0019319653511047363,0.004008293151855469,-0.004061772488057613,0.00035858340561389923,0.0022887676022946835,-0.30268722358543626,1.4053489035285505,0.25319935785431996
2.131009101867676,-0.005764365196228027,0.0013478398323059082,0.0036624521017074585,-0.0023011735174804926,0.0013739136047661304,0.0016686239978298545,-0.3026757793686186,1.4053602522375233,0.2532321803090465
2.1410698890686035,-0.007338762283325195,0.0014189183712005615,0.003865167498588562,-0.0040751053020358086,0.002814683597534895,0.0006888470379635692,-0.30268122592481483,1.4053877885999813,0.2532692680322457
2.1510729789733887,-0.005723476409912109,4.941225051879883e-05,0.0033269673585891724,-0.0026296412106603384,0.0031588529236614704,-0.0004982303944416344,-0.3026931607613878,1.405423979183589,0.2533009591077806
2.1610708236694336,-0.004822850227355957,0.0014619529247283936,0.003822147846221924,-0.0019124519312754273,0.002708778716623783,-0.001252703950740397,-0.30271606359456066,1.4054640548969175,0.25332654101330077
2.1710689067840576,-0.00555342435836792,0.002232789993286133,0.0047666579484939575,0.0015822481364011765,0.003050373401492834,-0.001849678112193942,-0.3027397235996895,1.4054968584094083,0.25332724170206233
2.181117057800293,-0.0035199522972106934,0.0024566054344177246,0.0034266412258148193,0.00271622184664011,0.005554543808102608,-0.003117076586931944,-0.3027770050443906,1.4055406361995526,0.25330267941691814
2.191164970397949,-0.0036967992782592773,0.0005503594875335693,0.0040658265352249146,0.005751759745180607,0.005536878481507301,-0.0020024902187287807,-0.3028237756143935,1.4055886108054814,0.2532553470154276
2.2011709213256836,-0.0038316845893859863,0.002639979124069214,0.00179290771484375,0.007976830936968327,0.006074836943298578,-0.0039143734611570835,-0.30285667305549163,1.4056348262164042,0.2531851205623197
2.2110209465026855,-0.003215193748474121,-0.0006532371044158936,0.0005730986595153809,0.008694902062416077,0.006560198031365871,-0.004340212792158127,-0.3029018325845964,1.4056801320338554,0.2530968013093396
2.221174955368042,-0.0026091933250427246,-0.0012040138244628906,0.00027413666248321533,0.007326303515583277,0.001881822943687439,-0.004880035761743784,-0.30295128516084396,1.405703366271443,0.25300562799474763
2.2313239574432373,-0.0018515586853027344,-0.0010444819927215576,0.0006262063980102539,0.006456514820456505,0.0027456635143607855,-0.004779688082635403,-0.3029919971752461,1.4057162889743793,0.252924641600019
2.2412869930267334,-0.002130568027496338,-0.004411935806274414,-0.0002719312906265259,0.006403517909348011,0.00033470382913947105,-0.0031572901643812656,-0.30303503892704664,1.4057279728212435,0.25285728281732245
2.2512619495391846,-0.0023916959762573242,-0.002934485673904419,-0.0005736351013183594,0.004772115498781204,-0.003309521358460188,-0.0031283684074878693,-0.3030697737697768,1.405706287379297,0.2528001906967025
2.2613179683685303,-0.0017014145851135254,-0.004435181617736816,-0.0006962865591049194,0.001721465028822422,-0.0057673524133861065,-0.0017914613708853722,-0.3031072812644196,1.4056563042581574,0.2527606300025662
2.2711799144744873,-0.0038065314292907715,-0.0059539079666137695,-0.0014390349388122559,-0.00023848842829465866,-0.006652676034718752,-0.0015175286680459976,-0.3031317623050865,1.4056011533257364,0.2527547324061805
2.281275987625122,-0.0049204230308532715,-0.0069058239459991455,-0.0008995980024337769,-0.0033594470005482435,-0.005226286593824625,-7.968803402036428e-05,-0.3031539151877025,1.405545651711412,0.2527708778480655
2.291213035583496,-0.005754530429840088,-0.008518815040588379,-6.183981895446777e-06,-0.005461829714477062,-0.004724059719592333,0.003434672486037016,-0.30314927593576324,1.4055045743893546,0.2528164078009255
2.301270008087158,-0.006740272045135498,-0.007731109857559204,0.0003506392240524292,-0.003968329168856144,-0.0034702434204518795,0.006943653337657452,-0.3031073536544533,1.405484319720278,0.2528730350302876
2.3112587928771973,-0.00605088472366333,-0.006324589252471924,0.002209678292274475,-0.0007557743228971958,-0.0013438421301543713,0.013152919709682465,-0.30300858568941835,1.4054759430040973,0.25291123255333225
2.3212790489196777,-0.0066411495208740234,-0.004558682441711426,0.001759544014930725,0.0013084416277706623,0.0007864204235374928,0.01288180984556675,-0.30286899171902265,1.4054751390814004,0.2529276499931193
2.3313119411468506,-0.0070136189460754395,-0.004318743944168091,0.0024035125970840454,-0.0028186256531625986,-0.001321293879300356,0.012322546914219856,-0.3027455115150648,1.405478246720454,0.252964554002242
2.3413519859313965,-0.004457414150238037,-0.0026264190673828125,0.0044356584548950195,-0.004855411127209663,-0.0011239536106586456,0.012305236421525478,-0.30261909065042575,1.4054819486498586,0.2530237666372043
2.35142183303833,-0.0033962130546569824,-0.0016259849071502686,0.006002023816108704,-0.009581755846738815,-0.0011257296428084373,0.010747021064162254,-0.3024981678491921,1.4054938598905853,0.25311960569470604
2.3614089488983154,-0.004467189311981201,-0.0005482733249664307,0.007992386817932129,-0.009157514199614525,-0.0018607620149850845,0.00970093160867691,-0.30239223760263473,1.4055084343079547,0.25322743875716
2.3713219165802,-0.005415856838226318,0.00015273690223693848,0.008438214659690857,-0.006644073873758316,0.0019874616991728544,0.007300997152924538,-0.3022973297177581,1.4055422914157754,0.2533257656300521
2.3812808990478516,-0.0057503581047058105,0.0004163682460784912,0.007165923714637756,-0.003727113362401724,0.006897797808051109,0.004194952081888914,-0.30222888067471515,1.405600599882119,0.25338954142551295
2.391321897506714,-0.00683748722076416,0.003177076578140259,0.005212023854255676,5.9702200815081596e-05,0.011058632284402847,0.003607511520385742,-0.3021661112377257,1.4057019485578528,0.25341606763063007
2.4016709327697754,-0.008350193500518799,0.002912193536758423,0.00465036928653717,0.003164681838825345,0.015028871595859528,0.002907899208366871,-0.30212395237543194,1.405830654572502,0.25340440724078667
2.4114739894866943,-0.00864565372467041,0.0026168227195739746,0.004250958561897278,0.003483561798930168,0.017142800614237785,0.003991379868239164,-0.30208171994151817,1.4059814991750275,0.2533678610245402
2.421426773071289,-0.005708158016204834,0.001265108585357666,0.004504501819610596,0.004267596639692783,0.015079118311405182,0.003561279270797968,-0.3020431531394761,1.406151757373732,0.25333551875891613
2.4313619136810303,-0.004264354705810547,0.002256840467453003,0.004754483699798584,0.005113782361149788,0.013872172683477402,0.004171835724264383,-0.3019952804472715,1.4062938235958624,0.25328531167134294
2.4414169788360596,-0.0033794641494750977,0.0020682215690612793,0.004418671131134033,-0.0009246687404811382,0.010825516656041145,0.0019883099012076855,-0.3019690569342517,1.4064410799766491,0.2532874634813286
2.451418876647949,-8.767843246459961e-05,1.1026859283447266e-06,0.0032507777214050293,-0.0051089441403746605,0.009775299578905106,-2.9460759833455086e-05,-0.3019766468974052,1.4065790702708396,0.25332699921569113
2.4614710807800293,-0.001794576644897461,0.00098496675491333,0.0023794323205947876,-0.00639684870839119,0.008386461064219475,-0.0014643719187006354,-0.30200088638226463,1.4067090884895275,0.2533985443578025
2.4714438915252686,-0.0037415027618408203,0.0012115836143493652,-8.478760719299316e-06,-0.005879679694771767,0.002699235687032342,-0.00517452834174037,-0.30206723307818273,1.4067946358375887,0.25345746622406057
2.4814419746398926,-0.0017834305763244629,0.002408534288406372,-0.00010919570922851562,-0.0020974581129848957,0.0006254320032894611,-0.006241124123334885,-0.3021560194947339,1.4068322285995825,0.2534930483834117
2.4914588928222656,-0.005283772945404053,-0.0007962584495544434,-0.002151176333427429,-0.002053000032901764,0.002321732696145773,-0.008259426802396774,-0.3022523725124814,1.406856810092125,0.25350303329896956
2.501516819000244,-0.006208896636962891,-0.000982731580734253,-0.004130259156227112,-0.0012567149242386222,0.00015391968190670013,-0.005986685864627361,-0.302335888785989,1.4068800471184204,0.2535039129837594
2.5115718841552734,-0.005751430988311768,-0.0018104612827301025,-0.0045615434646606445,-0.00188636954408139,-0.0022091474384069443,-0.0045040505938231945,-0.3023877035183894,1.4068816636170514,0.2535184274489917
2.5215179920196533,-0.006074965000152588,-0.0031541287899017334,-0.0036934614181518555,0.0001829066313803196,-0.004844345152378082,-0.0006656366749666631,-0.30242066525985895,1.406865546012117,0.2535273453350491
2.531397819519043,-0.0049664974212646484,-0.003599315881729126,-0.0024491995573043823,0.0007173698395490646,-0.008075025863945484,-0.00046488753287121654,-0.30242344913543373,1.4068079422156383,0.25351930400923817
2.541471004486084,-0.005641818046569824,-0.002662479877471924,-0.0007363408803939819,0.0009993985295295715,-0.01060902327299118,0.0012637703912332654,-0.3024171119880097,1.4067231760538992,0.2535101753688513
2.551506996154785,-0.004142343997955322,-0.003520965576171875,-0.001115366816520691,-0.002181231277063489,-0.01324479840695858,5.565385799854994e-05,-0.3024212419694262,1.4066069064788445,0.25351442497730603
2.5616297721862793,-0.00415271520614624,-0.00506901741027832,0.00047338008880615234,-0.002106662839651108,-0.012388059869408607,0.0011054719798266888,-0.3024285683048351,1.4064912292926968,0.25353339029278577
2.571568012237549,-0.004305243492126465,-0.003767848014831543,0.0016720890998840332,-0.003816894954070449,-0.00956053752452135,0.00044064049143344164,-0.30242421458206137,1.406385141774839,0.2535631948458391
2.582735061645508,-0.0026831626892089844,-0.002679169178009033,0.003986060619354248,-0.002190502593293786,-0.008688085712492466,-0.0004632364143617451,-0.3024346128919376,1.4062768924694313,0.2535906143606845
2.591622829437256,-0.002407073974609375,-0.0005816519260406494,0.0038263946771621704,-0.001223758445121348,-0.006430657580494881,-0.0009211404249072075,-0.30244314212268886,1.4061867376127584,0.2536071986806904
2.601545810699463,-0.002255678176879883,-0.0018568933010101318,0.004336893558502197,-0.003291969420388341,-0.006476197391748428,0.0012775654904544353,-0.3024523331327684,1.406114096301813,0.253627248232069
2.611642837524414,-0.003408372402191162,-0.0015856027603149414,0.006462812423706055,-0.002829444594681263,-0.0018936959095299244,-0.0025772005319595337,-0.3024558512941028,1.40607619911916,0.2536533417137895
2.6215758323669434,-0.004729747772216797,-0.001109778881072998,0.007101476192474365,-0.0034406401682645082,-0.0001413361169397831,-0.0011569366324692965,-0.30246891867983,1.406061659168259,0.2536774459441827
2.6327528953552246,-0.005112349987030029,-0.0018463730812072754,0.0065528154373168945,-0.0018391648773103952,0.001934997271746397,0.0003616510657593608,-0.30247329657496796,1.406076960463353,0.25369715352195926
2.6416211128234863,-0.004938840866088867,-0.0023962855339050293,0.00417327880859375,-0.0018580732867121696,0.003976842854171991,0.0019472972489893436,-0.3024579150993325,1.4061092903755603,0.253718992960627
2.6516339778900146,-0.006600081920623779,-0.0019415318965911865,0.004818394780158997,0.0009825043380260468,0.0044938065111637115,9.740935638546944e-06,-0.3024450550550852,1.4061702569386287,0.2537295649856181
2.6619060039520264,-0.006705105304718018,-0.0009270906448364258,0.003072872757911682,-0.0012572143459692597,0.0058653345331549644,-0.0009527255315333605,-0.30243736570477103,1.4062418648218034,0.2537414089710773
2.671764850616455,-0.005279541015625,-0.0009489655494689941,0.002229049801826477,-0.002610333263874054,0.004288654774427414,-0.00011063390411436558,-0.3024442910217268,1.4063111907113364,0.2537673846072689
2.6827518939971924,-0.007130980491638184,-0.0017186105251312256,0.002782166004180908,-0.00549080828204751,0.004804242867976427,-0.0009002612205222249,-0.30246736693078075,1.4063869970862084,0.2538123049090342
2.691689968109131,-0.00784367322921753,-0.002767711877822876,0.003473222255706787,-0.005430420860648155,0.006257085595279932,0.0008642959874123335,-0.30247940473303014,1.4064788797816536,0.2538684002214768
2.701676845550537,-0.005046546459197998,-0.003017246723175049,0.00510859489440918,-0.004685268737375736,0.0029126880690455437,0.0021295638289302588,-0.3024850362974695,1.4065567611872105,0.25392056230596605
2.711700916290283,-0.0019134879112243652,-0.0008122920989990234,0.0012469440698623657,-0.0034203834366053343,0.0024247528053820133,0.0023010713048279285,-0.30247693405969656,1.4066070329387352,0.253965540386872
2.721972942352295,-0.003997981548309326,-0.0016582310199737549,-0.0013410449028015137,-0.006628427654504776,0.0024180947802960873,0.0012845428427681327,-0.30246806925443237,1.4066497016072632,0.2540161396912026
2.7328670024871826,-0.005928099155426025,-0.0020918846130371094,-0.0016579031944274902,-0.006557487417012453,0.0028023000340908766,-0.0006538655725307763,-0.3024747744273151,1.4067104091536682,0.2540930334258462
2.741909980773926,-0.006661117076873779,-0.0016614794731140137,8.656084537506104e-05,-0.006506620906293392,0.0035879325587302446,-0.0012991494731977582,-0.3025033776891425,1.406768483432973,0.25416287438481416
2.7520108222961426,-0.0052220821380615234,2.485513687133789e-05,0.0011260658502578735,-0.004168232437223196,0.0010242853313684464,-0.001891276566311717,-0.3025430738137624,1.4068129660954325,0.25422169088029584
2.762152910232544,-0.0031118392944335938,-0.0008658766746520996,0.00018209218978881836,0.00025075068697333336,-0.0008162255398929119,-0.0012105726636946201,-0.30256511790727886,1.4068258162421317,0.25424660448213776
2.7719779014587402,-0.001083672046661377,-0.0018551647663116455,-0.0009040385484695435,-0.0020919323433190584,-0.00045652128756046295,0.0024950560182332993,-0.30256248148727016,1.4068289004278045,0.2542589822980054
2.7850449085235596,-0.0006099343299865723,-0.002046555280685425,-0.0004776269197463989,-0.0009177445899695158,0.00027877744287252426,0.004568859934806824,-0.30252317999147255,1.4068480590082288,0.254280165333778
2.792382001876831,-0.0024722814559936523,-0.0017400383949279785,0.00043092668056488037,-0.003205033717676997,-0.0004635346122086048,0.006451554596424103,-0.30247385314714387,1.4068579817102536,0.254310178608694
2.802037000656128,-0.004561960697174072,-0.0013098716735839844,-0.0001277327537536621,-0.003365356009453535,-0.0021176240406930447,0.005511192604899406,-0.3024227928183616,1.4068543417410773,0.25436360169047595
2.811999797821045,-0.005286455154418945,0.0002682805061340332,0.0007531642913818359,-0.003077717963606119,-0.004047217313200235,0.0033310221042484045,-0.3023840264513144,1.4068282952406344,0.2544073527485245
2.82204008102417,-0.0047792792320251465,0.0005614757537841797,0.0011175274848937988,-0.005841813050210476,-0.003809663001447916,0.000521920039318502,-0.30238055348504356,1.406798042534246,0.2544520901109165
2.832974910736084,-0.005184829235076904,0.0005719661712646484,-0.00025697052478790283,-0.004858740139752626,-0.006421602331101894,-0.000952618895098567,-0.30238560943362564,1.4067666277994955,0.2545036326205625
2.841977119445801,-0.0061476826667785645,0.0013575851917266846,0.0014908313751220703,-0.002082128543406725,-0.0029975762590765953,-0.002369420602917671,-0.30240977492128085,1.4067241640686172,0.2545322793244484
2.851938009262085,-0.007938921451568604,0.0018981099128723145,0.0018961280584335327,0.001039446098729968,-0.004296799190342426,-0.00018802541308104992,-0.3024190470991113,1.4066822136335746,0.25453504992345805
2.861982822418213,-0.00796443223953247,0.0010494589805603027,0.00311279296875,0.00403949711471796,-0.0025012968108057976,0.0005030649481341243,-0.3024128690579045,1.406638201096375,0.2545000336958444
2.8719468116760254,-0.006695091724395752,0.0017290115356445312,0.003039121627807617,0.004255012609064579,-0.0008931024931371212,0.0007063173688948154,-0.3024043044618626,1.4066034592279049,0.254460857282816
2.8830318450927734,-0.006495356559753418,0.0013017058372497559,0.0029550641775131226,0.004025980830192566,0.002223328687250614,-0.0011802659137174487,-0.3024043935531474,1.4065955298836643,0.25441957331621207
2.8920021057128906,-0.008415043354034424,-0.00040721893310546875,0.004774928092956543,0.005226234905421734,0.0040157251060009,-0.0013102282537147403,-0.3024202779873869,1.4066065900874316,0.2543652845837573
2.902012825012207,-0.006764709949493408,0.00021222233772277832,0.0055114030838012695,0.005124501883983612,0.004649823531508446,-0.001723018242046237,-0.30244274107762176,1.4066334915257193,0.2543157010074907
2.9127769470214844,-0.006000220775604248,-0.0006923675537109375,0.00536094605922699,0.005770501680672169,0.005887261591851711,-0.0030841599218547344,-0.30246329968714286,1.4066625882539145,0.25425744734961164
2.922071933746338,-0.005387783050537109,-0.0012597739696502686,0.004974484443664551,0.0034700629767030478,0.0068899416364729404,-0.003835171228274703,-0.3024981935101812,1.406714710467838,0.2542071330770767
2.9332869052886963,-0.004577577114105225,-0.0011326074600219727,0.0035021454095840454,0.0037663232069462538,0.008320103399455547,-0.0034202507231384516,-0.30254076574139427,1.40678526469409,0.2541642763594658
2.9421000480651855,-0.003694772720336914,-0.0011692345142364502,0.0031133443117141724,0.001555899390950799,0.00926925428211689,-0.0045733992010355,-0.30257917148206037,1.4068720323744826,0.25412592719303806
2.9521560668945312,-0.0037552714347839355,-0.00259321928024292,0.0038282424211502075,0.002106840955093503,0.010422935709357262,-0.005035564303398132,-0.30263228671990444,1.4069689260668838,0.254093811705666
2.9621458053588867,-0.0047179460525512695,-0.0020481646060943604,0.0023049861192703247,0.003199003404006362,0.01113879308104515,-0.004273633938282728,-0.30268469222169936,1.4070768789223054,0.25406210572682436
2.972108840942383,-0.00530165433883667,-0.0024526119232177734,0.002147570252418518,0.004090246744453907,0.010742293670773506,-0.004577980376780033,-0.30272471830214426,1.4071771582740045,0.25401575197991627
2.982966899871826,-0.004969120025634766,-0.0025973916053771973,0.0018264204263687134,0.003227116307243705,0.008614960126578808,-0.0028583770617842674,-0.3027644972236747,1.407273084446967,0.25396860526170983
2.992325782775879,-0.006319284439086914,-0.0045098066329956055,0.00010992586612701416,0.004682500846683979,0.009524429216980934,-0.0023660119622945786,-0.30278581750725403,1.4073609166091128,0.2539186267441883
3.0021729469299316,-0.006175220012664795,-0.004280984401702881,-0.0006730556488037109,0.0032904662657529116,0.007528123911470175,-0.0012426904868334532,-0.3028018715591821,1.4074462370723546,0.25387882588673033
3.0121009349823,-0.004629671573638916,-0.005017399787902832,-0.0011122822761535645,7.45491124689579e-05,0.00710987439379096,4.366959910839796e-05,-0.3028060944726158,1.4075235461668074,0.25386510128920065
3.0221638679504395,-0.0054054856300354,-0.005876004695892334,-0.00045228004455566406,-0.0012594282161444426,0.0038272622041404247,0.002669546753168106,-0.30279436548850425,1.4075848122521029,0.25388037588580314
3.033060073852539,-0.00556492805480957,-0.0061445534229278564,0.0004150271415710449,-0.002846105955541134,0.005965602584183216,0.005049560219049454,-0.3027560123832977,1.4076542200384612,0.2539106867254739
3.0422348976135254,-0.003258228302001953,-0.003666222095489502,0.0007423162460327148,-0.0024913731031119823,0.005957879591733217,0.00704346876591444,-0.30270135686636435,1.4077307207006597,0.25394440041611
3.052187919616699,-0.002739846706390381,-0.0026826858520507812,-0.0007796287536621094,-0.003109293058514595,0.004868558142334223,0.00770686287432909,-0.30263008345072295,1.407795037742118,0.2539827950354593
3.0623509883880615,-0.00266265869140625,-0.0030654966831207275,-0.0013178586959838867,-0.0038238191045820713,0.005392668303102255,0.007036278955638409,-0.30256757845428617,1.407867429491908,0.25403483834062474
3.0722908973693848,-0.002525031566619873,-0.004084348678588867,0.0010326355695724487,-0.004146910272538662,0.0047848899848759174,0.007295777089893818,-0.30249999894883595,1.4079350317301718,0.2540936922648064
3.083064079284668,-0.002495706081390381,-0.0012215375900268555,0.0007470846176147461,-0.004654775373637676,0.0030836628284305334,0.006800695322453976,-0.30242620527237324,1.4079990014107662,0.25415128010217086
3.092312812805176,-0.003617703914642334,7.280707359313965e-05,0.0004273056983947754,-0.004485531244426966,0.0014071143232285976,0.004515862558037043,-0.30236502784792446,1.408033809015495,0.2541971572970685
3.102214813232422,-0.0020937323570251465,-0.001437842845916748,0.0010815709829330444,-0.002800549380481243,0.0009256149642169476,0.004716665018349886,-0.3023171211254515,1.4080544050360975,0.2542397019714804
3.112257957458496,-0.0019244551658630371,0.00017076730728149414,0.0008243769407272339,-0.004138671327382326,0.0007419902831315994,0.0026451516896486282,-0.3022783997867647,1.408070283245061,0.25427805157038746
3.1223058700561523,-0.005245029926300049,-0.0005977153778076172,0.00040303170680999756,-0.0042670355178415775,-0.00014936970546841621,0.002589491894468665,-0.30225223708556853,1.4080815124671517,0.2543224189653945
3.1330769062042236,-0.006047964096069336,-0.0008753836154937744,-0.0005476474761962891,-0.004345981869846582,-0.0007915026508271694,0.002764727920293808,-0.30222343349360614,1.4080879541181623,0.2543671497703834
3.142336845397949,-0.006143093109130859,-0.0007093250751495361,0.0013638138771057129,-0.005133478436619043,-0.0017265384085476398,0.0005809357389807701,-0.30220931389661293,1.40808431073543,0.25442024725906065
3.152333974838257,-0.0057166218757629395,-0.002294212579727173,0.0021718740463256836,-0.008010824210941792,-0.003132864832878113,-0.0009680120274424553,-0.30220720378251137,1.4080850851438669,0.2544861640846335
3.162424087524414,-0.00570911169052124,-0.0019341707229614258,0.0020998716354370117,-0.008340523578226566,-0.0038010524585843086,-0.0020247544161975384,-0.30222960898400847,1.4080793995520946,0.2545717570188384
3.1723170280456543,-0.0039400458335876465,-0.0008829236030578613,0.0017439723014831543,-0.007740497123450041,-0.005137293599545956,0.0001301690936088562,-0.3022632592709568,1.4080505384232245,0.254655440916503
3.1832399368286133,-0.0041588544845581055,0.0006688833236694336,0.0017208307981491089,-0.0037127321120351553,-0.0032946523278951645,-0.0013113999739289284,-0.30228412419752043,1.4080254442189704,0.25470901599751206
3.192370891571045,-0.005509495735168457,0.0005609691143035889,0.001521185040473938,-0.0002112078946083784,-0.0010103699751198292,-0.0013678057584911585,-0.30230116205603574,1.408009725291496,0.25472558513443405
3.202265977859497,-0.005381941795349121,0.00045096874237060547,0.002022683620452881,0.0028860485181212425,0.002229898003861308,-0.0014271942200139165,-0.3023204902380167,1.4080108832955387,0.2547114058433119
3.2123680114746094,-0.004601657390594482,0.0007449686527252197,0.0013884305953979492,0.004837629850953817,0.0024302119854837656,-0.0015589140821248293,-0.30233224124696423,1.4080195006667369,0.2546640168909095
3.2225430011749268,-0.004522800445556641,-0.0005246102809906006,0.0015057176351547241,0.004105260130017996,0.004416131414473057,-0.003033240092918277,-0.30235149544234463,1.408039770903517,0.25460898383701913
3.233150005340576,-0.004599332809448242,-0.0016070008277893066,0.001293957233428955,0.0025383559986948967,0.005241888575255871,-0.003992404323071241,-0.30236644669673146,1.4080694433639431,0.25456516154783215
3.242569923400879,-0.004607975482940674,-0.0008531510829925537,0.0016696006059646606,-0.0008774143643677235,0.004032813478261232,-0.005592165514826775,-0.3024078590026658,1.4081058954459338,0.2545476159956183
3.2525479793548584,-0.004580378532409668,-0.0022502541542053223,0.0019757896661758423,-0.0018541618483141065,0.0006272522732615471,-0.005200094543397427,-0.3024648004804717,1.4081342586853485,0.254558233335662
3.262545108795166,-0.003344237804412842,-0.0019244849681854248,0.001321747899055481,-0.003897871822118759,-0.000411114189773798,-0.004151607863605022,-0.302523163952662,1.4081452706770712,0.2545806302704004
3.2725470066070557,-0.004965782165527344,-0.001911252737045288,0.0017706900835037231,-0.0048894998617470264,0.0005401666276156902,-0.0037492576520889997,-0.3025732023663142,1.408168261587523,0.2546213355891369
3.2831239700317383,-0.0039781928062438965,-0.001551121473312378,0.0014630109071731567,-0.004667924717068672,0.00313328648917377,-0.003980153705924749,-0.3026275385341518,1.4082005625331369,0.2546653779190306
3.292508125305176,-0.003790557384490967,-0.0011176764965057373,0.0015671402215957642,-0.0025031575933098793,0.005045036785304546,-0.002592700067907572,-0.3026689796272312,1.4082498804952268,0.2546988480953201
3.3025269508361816,-0.003275275230407715,-0.0015651285648345947,-0.0007518380880355835,-0.0034682871773838997,0.005510823801159859,-0.0004488553386181593,-0.3026901819811085,1.4083131837740164,0.25471798216912084
3.3125479221343994,-0.0025768280029296875,-0.0033929944038391113,-0.000902712345123291,-0.0019131675362586975,0.004034988582134247,-0.0006928541697561741,-0.3027028550077444,1.4083593303045714,0.2547345156140513
3.3225297927856445,-0.0022443532943725586,-0.004140317440032959,-0.00014244019985198975,-0.005254102870821953,0.004446446895599365,-0.0009349355241283774,-0.3027184337829518,1.4084099468470361,0.2547734462925473
3.333085060119629,-0.005209386348724365,-0.005207717418670654,-0.0013292431831359863,-0.007455422077327967,0.002022659406065941,0.0002066018059849739,-0.3027336989938002,1.4084704134916282,0.2548446376422823
3.342568874359131,-0.0031975507736206055,-0.0031531453132629395,-0.0008502006530761719,-0.008998190984129906,-0.0017361259087920189,0.0013650767505168915,-0.302739323110264,1.4084961354620587,0.2549330291866205
3.352576971054077,-0.0029807090759277344,-0.0028835833072662354,-0.00018453598022460938,-0.007429373450577259,-0.004773239605128765,0.0013300295686349273,-0.30274464947397306,1.4084857033875815,0.2550108611448984
3.3626880645751953,-0.0038816332817077637,-0.002517223358154297,-0.002126932144165039,-0.005335063207894564,-0.005802284926176071,0.002881587017327547,-0.30272853867376925,1.4084589515952624,0.2550766448741319
3.3726110458374023,-0.0038533806800842285,-0.0021058320999145508,-0.0005570650100708008,-0.004415357019752264,-0.006326350849121809,0.003248837310820818,-0.3026971639015333,1.4084138694624249,0.2551302519267846
3.383178949356079,-0.0033068060874938965,-0.0028154850006103516,-0.00014960765838623047,-0.0034358464181423187,-0.007105591241270304,0.004831820260733366,-0.3026573280484441,1.4083558946005021,0.2551742729002885
3.392642021179199,-0.004315197467803955,-0.0005508363246917725,-0.0011086463928222656,-8.663861081004143e-05,-0.006192792672663927,0.0026417961344122887,-0.30261869751462317,1.408290693917429,0.25519236064926715
3.4025840759277344,-0.005890309810638428,-0.0011298954486846924,-0.0015131086111068726,0.0017975480295717716,-0.007359257433563471,0.0027483226731419563,-0.3025698718848545,1.408220392531632,0.25518521801683686
3.412837028503418,-0.006332695484161377,-0.0005362033843994141,-0.001258954405784607,0.0030118494760245085,-0.008134769275784492,0.003111151745542884,-0.3025234122196023,1.4081311569170056,0.2551710614432502
3.422684907913208,-0.0061187744140625,-0.0004940032958984375,0.0008994489908218384,0.002091727452352643,-0.008680185303092003,0.00371915171854198,-0.30247918187486816,1.408045075732378,0.25515461439799764
3.433198928833008,-0.007520794868469238,-0.00028780102729797363,0.0012740492820739746,0.0025175833143293858,-0.008309251628816128,0.003010964021086693,-0.3024390517539556,1.4079572708944383,0.2551390434719175
3.442678928375244,-0.0070146918296813965,0.00031495094299316406,0.0015615969896316528,0.004763427190482616,-0.006733458489179611,0.004297004081308842,-0.30239903826934156,1.4078646386349976,0.25510471566965987
3.4527080059051514,-0.0076389312744140625,0.0012662708759307861,0.002279713749885559,0.006559562869369984,-0.005058064125478268,0.002901241183280945,-0.3023615470039804,1.4077845305076415,0.2550530459228268
3.4627459049224854,-0.007138490676879883,0.0011611580848693848,0.0032522231340408325,0.010680271312594414,-0.004956064745783806,0.002373935654759407,-0.3023118044289965,1.407710393202854,0.25496187411971466
3.4727330207824707,-0.0055977702140808105,0.00028634071350097656,0.0034192800521850586,0.013232279568910599,-0.0037172515876591206,0.0018798657692968845,-0.30226922360288117,1.407632462690111,0.2548373088868487
3.4831910133361816,-0.004786849021911621,0.002224355936050415,0.00407177209854126,0.011826395988464355,-0.002557977568358183,0.0008787836413830519,-0.30223708998778814,1.4075569347240764,0.25470524490645585
3.4927499294281006,-0.00523531436920166,0.0017434358596801758,0.0041725486516952515,0.01015492994338274,-0.00398880522698164,-0.002827058080583811,-0.3022294175486223,1.407482791242921,0.2545825945561426
3.502777099609375,-0.005356311798095703,0.0012288689613342285,0.004205822944641113,0.007736513391137123,-0.0018130023963749409,-0.005010850261896849,-0.3022569075356585,1.4074298532117728,0.254486902792753
3.5128378868103027,-0.006175577640533447,0.0020044147968292236,0.004829421639442444,0.0068701039999723434,0.000888375099748373,-0.004762910306453705,-0.3023076136671932,1.407396928401763,0.25439575409872844
3.522812843322754,-0.006311893463134766,-0.00038880109786987305,0.005074813961982727,0.008723930455744267,0.004336103331297636,-0.007487590424716473,-0.30236903838750123,1.4074086289378707,0.2543089348717629
3.533026933670044,-0.007564067840576172,-0.0013296902179718018,0.0041237473487854,0.011540640145540237,0.006814751774072647,-0.005846496671438217,-0.3024275884288614,1.407427172752647,0.25419471387355225
3.542818069458008,-0.006844043731689453,0.00045368075370788574,0.0009660124778747559,0.013699663802981377,0.009424382820725441,-0.00392156420275569,-0.3024615556972463,1.4074731790656139,0.2540596777955229
3.5528907775878906,-0.005841732025146484,-0.00043779611587524414,0.0012311488389968872,0.013226969167590141,0.012213023379445076,-0.003218383062630892,-0.3024842569014159,1.4075468921208978,0.2539112542615076
3.5629889965057373,-0.008153021335601807,-0.004354745149612427,0.0021140575408935547,0.012191799469292164,0.012932343408465385,-0.002315305173397064,-0.3025114821939402,1.4076449084094107,0.2537817041954926
3.572835922241211,-0.007738769054412842,-0.005663096904754639,0.003660917282104492,0.009882155805826187,0.013326358050107956,-0.0019453387940302491,-0.30252334934343633,1.407751616948413,0.25367094774529747
3.5830650329589844,-0.004275977611541748,-0.005068063735961914,0.001731276512145996,0.010726377367973328,0.011776931583881378,-2.8395443223416805e-05,-0.30252347095588805,1.4078562933824628,0.25356691885091437
3.592987060546875,-0.002601921558380127,-0.0028488337993621826,0.0016694813966751099,0.011367733590304852,0.008995437063276768,0.003339224960654974,-0.3025004078152015,1.4079392724335298,0.253458631091751
3.602971076965332,-0.001726388931274414,-0.0022381842136383057,-0.00026911497116088867,0.0077343834564089775,0.00939677469432354,0.003274243790656328,-0.3024521566681638,1.4080073520515477,0.25336308859353246
3.6128180027008057,-0.003519713878631592,-0.004963815212249756,-0.00017374753952026367,0.0022871033288538456,0.008619620464742184,0.002412817906588316,-0.30241424364277214,1.408086207050705,0.2533150152689213
3.6229610443115234,-0.0019297003746032715,-0.0046791136264801025,-0.0011900216341018677,-0.0022176336497068405,0.0037596176844090223,0.0022479682229459286,-0.3024037635874853,1.4081450843716603,0.25331766230750397
3.633074998855591,-0.0023040771484375,-0.004629760980606079,-0.0013699382543563843,-0.0037502492778003216,0.002657601609826088,0.0019518777262419462,-0.30239992372019003,1.408190480445736,0.2533551076073177
3.642949104309082,-0.004384934902191162,-0.0026494860649108887,-0.0034875869750976562,-0.0021315799094736576,-0.0006604306399822235,0.0016530710272490978,-0.3023875098712055,1.408203776238032,0.2533917327640591
3.6529688835144043,-0.0049591064453125,-0.0027052462100982666,-0.007306933403015137,1.4628050848841667e-05,-0.002760067116469145,0.004342011641710997,-0.302350041526454,1.408194439775047,0.2534099375193584
3.6630489826202393,-0.0065694451332092285,-0.001738041639328003,-0.005883514881134033,0.0026279878802597523,-0.005853594746440649,0.003933482803404331,-0.30229589153332037,1.4081440151912614,0.25340661581398544
3.6730499267578125,-0.00804126262664795,-0.001436382532119751,-0.004381164908409119,0.004822332877665758,-0.005698864813894033,0.0055085825733840466,-0.30223563187283214,1.408074885735005,0.25337682872700057
3.6830899715423584,-0.007369041442871094,2.5987625122070312e-05,-0.004078805446624756,0.004523260053247213,-0.009259510785341263,0.0016422055196017027,-0.30219030577544675,1.407983045059435,0.25333639303247313
3.692995071411133,-0.004902482032775879,-0.0008913576602935791,-0.0019188523292541504,0.003367081983014941,-0.01044967770576477,0.00019104895181953907,-0.30216024321242385,1.407862226138297,0.2532960828735162
3.7030999660491943,-0.005451083183288574,-0.0009236335754394531,-0.0010176301002502441,0.004304514266550541,-0.012056894600391388,-0.0008984501473605633,-0.3021460786803978,1.4077323432107967,0.25325168421989924
3.7130630016326904,-0.0060691237449646,-0.00026676058769226074,0.001212775707244873,0.0047294883988797665,-0.012391744181513786,-0.0008884900016710162,-0.3021452884582656,1.4075838199212087,0.2531966230274621
3.7232251167297363,-0.005156874656677246,-0.0001233518123626709,0.0031762123107910156,0.0070821247063577175,-0.012547539547085762,-0.001563335070386529,-0.3021549242909554,1.4074265578459135,0.2531305179456364
3.7332069873809814,-0.005910277366638184,0.0014652907848358154,0.0038947612047195435,0.00719845574349165,-0.011331051588058472,-0.0013059672201052308,-0.30215311378382104,1.4072631965468445,0.2530468379221833
3.743241786956787,-0.0060994625091552734,0.00014021992683410645,0.003438428044319153,0.006498577073216438,-0.007056411821395159,-0.003445018082857132,-0.3021665294550766,1.40713143619687,0.25296464234554533
3.753119945526123,-0.005864858627319336,-0.001029372215270996,0.005088642239570618,0.003598460927605629,-0.0041315509006381035,-0.0029650633223354816,-0.3021928395202736,1.4070466778672488,0.25290195926629
3.76322603225708,-0.005650579929351807,-0.0011971890926361084,0.0067748576402664185,0.006710630375891924,0.0006150016561150551,-0.0037855831906199455,-0.3022248201394503,1.4070044025009283,0.25284810511774836
3.7731189727783203,-0.006432533264160156,-0.001470118761062622,0.006484165787696838,0.007394880056381226,0.0014099995605647564,-0.004245297983288765,-0.30225497527832784,1.4069874348587463,0.2527753897952011
3.7832438945770264,-0.005794703960418701,0.0009230077266693115,0.007074475288391113,0.010233011096715927,0.0016691247001290321,-0.004631722345948219,-0.30228957631045733,1.40697454536971,0.2526767515358551
3.793113946914673,-0.005658447742462158,-0.00011327862739562988,0.007883906364440918,0.011160323396325111,0.0045671770349144936,-0.006486081518232822,-0.30233615702550637,1.4069713948015912,0.25255946475091867
3.803375005722046,-0.006315171718597412,-0.0011962354183197021,0.006788969039916992,0.009954710491001606,0.0077003855258226395,-0.009098376147449017,-0.30239965633527255,1.4069965874520245,0.2524485387974915
3.8133578300476074,-0.005237281322479248,-0.0027247071266174316,0.006710827350616455,0.011342267505824566,0.00863448902964592,-0.006603047717362642,-0.3024663094770803,1.4070599184039156,0.2523352108081809
3.8232550621032715,-0.006053507328033447,-0.0034704208374023438,0.004218563437461853,0.009312406182289124,0.008943948894739151,-0.008394822478294373,-0.302528234883455,1.4071269220919964,0.2522200465788405
3.833271026611328,-0.006654560565948486,-0.0023116469383239746,0.0006467700004577637,0.010125651955604553,0.009019538760185242,-0.007565461099147797,-0.30259307679512076,1.4071896974296993,0.25210153920620465
3.8436760902404785,-0.00901108980178833,-0.004118382930755615,0.0002952367067337036,0.008140532299876213,0.010591868311166763,-0.006491408217698336,-0.30266346537136685,1.4072676880958073,0.25199243171377805
3.8532328605651855,-0.010795831680297852,-0.005354791879653931,0.000698387622833252,0.00817824900150299,0.009412531740963459,-0.005766282789409161,-0.30271192841197386,1.4073555794237178,0.2519013595113509
3.863326072692871,-0.007010161876678467,-0.006133168935775757,0.00022195279598236084,0.00660938024520874,0.007532606367021799,-0.00508557865396142,-0.30276011084826354,1.4074377621409468,0.2518350718250601
3.8732681274414062,-0.005318939685821533,-0.0047070980072021484,-0.0016387104988098145,0.006243512500077486,0.005978874396532774,-0.001346926437690854,-0.3027847157339296,1.4075003160900688,0.2517700616959559
3.883345127105713,-0.006594955921173096,-0.00520932674407959,-0.002563774585723877,0.0042144497856497765,0.006800459697842598,0.0005609621293842793,-0.3027833198424208,1.4075591253551178,0.2517240945253879
3.8932790756225586,-0.006094515323638916,-0.006845533847808838,-0.002074107527732849,0.003493515308946371,0.00478218263015151,0.00365885766223073,-0.30275504110339707,1.4076239104165997,0.2516916999772933
3.903355121612549,-0.004313826560974121,-0.004692584276199341,-0.0014772415161132812,0.0002979885321110487,0.006119089666754007,0.0027653672732412815,-0.3027215846017982,1.40768856915513,0.25167466049721016
3.9133028984069824,-0.00196760892868042,-0.0034696459770202637,-0.0016356557607650757,0.0003955101128667593,0.005779758561402559,0.0040133241564035416,-0.3026871882426772,1.4077451010384683,0.2516747453485576
3.9232888221740723,0.0007887482643127441,-0.002213716506958008,-0.0018330365419387817,0.004082124214619398,0.0035347137600183487,0.005654097534716129,-0.30263436329726523,1.4077791441381915,0.2516622693267361
3.9333300590515137,0.0016965270042419434,-0.0005858540534973145,-0.000492393970489502,0.004899032413959503,0.00023368094116449356,0.007023974787443876,-0.30255950130423526,1.4077852671246076,0.2516319083141653
3.943351984024048,0.0012184381484985352,0.0014277398586273193,-0.0014310479164123535,0.004936848767101765,-0.0018158876337110996,0.00494058383628726,-0.3024801249918096,1.407765304710611,0.25159304907229463
3.953558921813965,-0.00036007165908813477,0.0014575421810150146,-0.0028664320707321167,0.005889111664146185,-0.00239437073469162,0.0019962461665272713,-0.3024329020129749,1.4077202942268852,0.2515425350530602
3.9634549617767334,-0.004144787788391113,0.0013638138771057129,-0.001609906554222107,0.004887497518211603,-0.0025240667164325714,0.0007650668267160654,-0.3024032428216247,1.4076675754189607,0.2514837718686591
3.973479986190796,-0.00634920597076416,0.0018549561500549316,-0.0036150068044662476,0.00506770983338356,-0.0031611393205821514,-0.0032951352186501026,-0.3024002475036382,1.4076095048070456,0.2514259606688405
3.983564853668213,-0.006914794445037842,0.0006969869136810303,-0.0024408549070358276,0.004992608912289143,-0.004674080293625593,-0.0027270831633359194,-0.30241440428388544,1.407544821130691,0.25137056467712166
3.9933888912200928,-0.008318305015563965,0.0002588033676147461,-0.0021080225706100464,0.006724512670189142,-0.00507555203512311,-0.0026653511449694633,-0.302425918626312,1.407466210401036,0.25130872183417774
4.003571033477783,-0.009462952613830566,0.0002790987491607666,-0.0013652592897415161,0.0053551155142486095,-0.004855309147387743,-0.002672807779163122,-0.3024366330613641,1.4073898814192578,0.2512383066164677
4.013424873352051,-0.00902247428894043,-0.0003510713577270508,-0.0015837699174880981,0.0048246136866509914,-0.007204482797533274,-0.000896745827049017,-0.3024414050241697,1.4073138553908067,0.2511779574773802
4.023530006408691,-0.00893181562423706,-0.001376122236251831,-0.0010282397270202637,0.005224620457738638,-0.0059767658822238445,-0.00016331125516444445,-0.30244423791745095,1.4072261399763153,0.2511159042724742
4.0334320068359375,-0.008670985698699951,-0.0005158185958862305,0.001877129077911377,0.00830747839063406,-0.00642706174403429,-0.0014900448732078075,-0.30245411582538323,1.4071379921983995,0.2510456063635324
4.04357385635376,-0.007783293724060059,-0.00010141730308532715,0.0040972232818603516,0.009339720010757446,-0.005271783098578453,-0.002195249777287245,-0.3024675992008505,1.4070482618234235,0.2509514089407973
4.053497791290283,-0.007412254810333252,0.0006763041019439697,0.005073904991149902,0.010719354264438152,-0.004547802731394768,-0.003739297389984131,-0.3024840701720986,1.406950086917313,0.2508328342653241
4.064300060272217,-0.006061971187591553,0.0007309317588806152,0.004545882344245911,0.009121458046138287,-0.0012135249562561512,-0.005338525865226984,-0.3025227608623988,1.4068768763785229,0.2507145996502411
4.073497772216797,-0.005231022834777832,-0.0004961490631103516,0.006563976407051086,0.009437774308025837,0.0027566268108785152,-0.007296375464648008,-0.3025773290087647,1.4068374511560802,0.25060377691978847
4.083559989929199,-0.0058367252349853516,-0.001261383295059204,0.006212398409843445,0.01060423906892538,0.005432837177067995,-0.009187751449644566,-0.30264376911192337,1.4068347097832787,0.25049236963548055
4.093506813049316,-0.005408823490142822,-0.000922471284866333,0.004458412528038025,0.014052500948309898,0.00669180229306221,-0.0066382549703121185,-0.30270431712158874,1.4068469538119497,0.2503509618580237
4.103585958480835,-0.004895210266113281,-0.0027205348014831543,0.0037649869918823242,0.015596600249409676,0.008220190182328224,-0.0055365050211548805,-0.3027496677892912,1.4068680146484043,0.25018732995177145
4.113536834716797,-0.005257248878479004,-0.0028514862060546875,0.005057469010353088,0.01375577412545681,0.010931244120001793,-0.005895392503589392,-0.3027909315968553,1.4069192873697984,0.2500300391820616
4.123615980148315,-0.005778789520263672,-0.004346758127212524,0.0038838833570480347,0.009201768785715103,0.011429255828261375,-0.004521734081208706,-0.3028228580391109,1.4069972467888563,0.24990098603505986
4.133534908294678,-0.007842838764190674,-0.00670468807220459,0.002793058753013611,0.005522611550986767,0.0132021214812994,-0.0040980251505970955,-0.3028632930317434,1.407100275428872,0.2498135626910364
4.143660068511963,-0.007509589195251465,-0.0066002607345581055,0.0011603832244873047,0.0014551652129739523,0.010183961130678654,-0.004966215696185827,-0.3029137579856694,1.4072110859424216,0.2497776977162945
4.15360689163208,-0.005333006381988525,-0.007642418146133423,0.0010755062103271484,-0.0014927376760169864,0.007525993511080742,-0.0032830447889864445,-0.3029504724079424,1.407315545767023,0.24977870696866866
4.163755893707275,-0.005185961723327637,-0.007412254810333252,0.0032134652137756348,-0.003817677265033126,0.006314521189779043,-0.0015242930967360735,-0.302981118261965,1.4074093163347798,0.2498042241727929
4.1736578941345215,-0.004531502723693848,-0.006966501474380493,0.0024487972259521484,-0.002542921807616949,0.004990841262042522,-0.001454837853088975,-0.30300969095768104,1.4074744762830071,0.2498416557014355
4.183671951293945,-0.004168212413787842,-0.005504876375198364,0.0008547455072402954,-0.005453224293887615,0.0022126317489892244,-0.0007472359575331211,-0.3030289839691767,1.4075296649612359,0.24988886307055982
4.19362998008728,-0.004144489765167236,-0.007301688194274902,-0.0012076646089553833,-0.007996110245585442,0.0060074590146541595,0.0001536048948764801,-0.3030411522409794,1.4075965211923875,0.2499649567430872
4.2037811279296875,-0.005196213722229004,-0.007744133472442627,-0.0011254996061325073,-0.00900731235742569,0.006516654975712299,0.0012577514862641692,-0.30304102814521233,1.4076874944301243,0.25005033988365716
4.213705062866211,-0.004927158355712891,-0.006384849548339844,-0.0013885945081710815,-0.00882257241755724,0.0059615192003548145,0.003309717169031501,-0.3030237309455271,1.4077895329121444,0.2501517488964535
4.223897933959961,-0.0031061172485351562,-0.006855219602584839,-0.001035928726196289,-0.010092368349432945,0.006589492782950401,0.0021429862827062607,-0.30298898556748577,1.4078866985545395,0.25025695918596447
4.23396897315979,-0.0038385987281799316,-0.004633158445358276,-0.0008864402770996094,-0.008756326511502266,0.004859148059040308,0.005923076998442411,-0.3029310368144203,1.4079739196390346,0.25035986573373803
4.24382209777832,-0.003838658332824707,-0.00446435809135437,-0.00025135278701782227,-0.008402392268180847,0.0021701541263610125,0.007066905032843351,-0.3028661354188472,1.4080481961606546,0.25046199392402874
4.253730773925781,-0.003483712673187256,-0.004892706871032715,0.0003895759582519531,-0.012835490517318249,-0.0011216015554964542,0.0063597820699214935,-0.30280330731889715,1.4080999728793493,0.2505855744198078
4.263798952102661,-0.0036217570304870605,-0.0033284425735473633,-3.0413269996643066e-05,-0.015412631444633007,-0.0019138921052217484,0.006674834061414003,-0.30276312198961763,1.4081267511081623,0.25073726242176503
4.273776054382324,-0.004198610782623291,-0.003219395875930786,0.0005989670753479004,-0.016291674226522446,-0.004390365909785032,0.004581429995596409,-0.30272876124890713,1.4081407442661422,0.250906920859993
4.283945083618164,-0.005626082420349121,-0.001734614372253418,0.001303151249885559,-0.015858378261327744,-0.003268908243626356,0.0026501051615923643,-0.3027079068166443,1.4081555301090845,0.2510741370342488
4.293823003768921,-0.0038434267044067383,0.0006342530250549316,0.00021107494831085205,-0.016913888975977898,-0.0021737273782491684,0.0007058912888169289,-0.3027039256039037,1.4081649849521718,0.25124725262411324
4.3038740158081055,-0.0059223175048828125,-0.0012484192848205566,0.0017643719911575317,-0.01692347601056099,0.001931002363562584,-0.00032262143213301897,-0.30271006551698665,1.4082003387190267,0.25142481434825914
4.313827037811279,-0.005759775638580322,-0.001678466796875,0.0020475834608078003,-0.013699835166335106,0.0026414894964545965,-0.0007817504811100662,-0.3027290170203837,1.4082712802479316,0.25158482574009877
4.323894023895264,-0.0046062469482421875,0.00010502338409423828,0.001931607723236084,-0.011147461831569672,0.004723548889160156,-6.454065442085266e-07,-0.3027468616125606,1.408344910516972,0.251722407256053
4.333877086639404,-0.0048909783363342285,2.345442771911621e-05,0.0002428293228149414,-0.01024403516203165,0.004835445899516344,0.0003037006827071309,-0.30275240860618713,1.4084204122429755,0.2518244636270671
4.3438379764556885,-0.006778597831726074,-0.00042304396629333496,0.0013437122106552124,-0.008663182146847248,0.005914292298257351,0.0013465944211930037,-0.3027565819375474,1.4084987590289393,0.2519270680058733
4.353882789611816,-0.005754828453063965,-0.0013675689697265625,0.0022240281105041504,-0.007829912006855011,0.005606697406619787,0.0023215245455503464,-0.30275501298329793,1.4085848208844767,0.25202184902326996
4.363903045654297,-0.004576504230499268,-0.002055048942565918,0.0018295645713806152,-0.005542523227632046,0.0034982727374881506,0.00017528305761516094,-0.3027558836216352,1.4086634001811964,0.25209515279533223
4.373899936676025,-0.004948556423187256,-0.0009968280792236328,0.001026451587677002,-0.0067194076254963875,0.0037043127231299877,0.0004312661476433277,-0.302766208481971,1.4087217045226326,0.252165601900282
4.384120941162109,-0.0051046013832092285,-0.0010330677032470703,-0.0008353441953659058,-0.007529008202254772,0.004330954514443874,-0.0014526540180668235,-0.3027881488241556,1.4087856323257562,0.252238154156805
4.3939080238342285,-0.004342138767242432,0.0002772510051727295,-0.0008402913808822632,-0.007607155479490757,0.003905780613422394,-0.001612763269804418,-0.30282220663820086,1.4088539142225847,0.2523181851472029
4.403979778289795,-0.005502521991729736,-9.357929229736328e-06,-1.2248754501342773e-05,-0.00741221196949482,0.0026911129243671894,-0.001974953105673194,-0.3028506864018322,1.408912909044187,0.25239801767460945
4.413961887359619,-0.005179166793823242,-0.0002556443214416504,0.0005223751068115234,-0.00444839708507061,0.0028202319517731667,-0.0031029083766043186,-0.3028849301677305,1.408959208843972,0.252455555215918
4.424022912979126,-0.0036179423332214355,4.932284355163574e-05,-0.0011715441942214966,-0.004213772714138031,0.0013246005401015282,-0.001750555238686502,-0.3029171292786805,1.4089901372699323,0.25249302859669803
4.434048891067505,-0.004023909568786621,-0.0005271732807159424,-0.0019954442977905273,-0.0024031559005379677,-0.0005875490605831146,-0.001338138128630817,-0.30294557586605375,1.409004848969632,0.2525203594111806
4.444009780883789,-0.004360198974609375,0.0001221299171447754,-0.0021195560693740845,-0.0007250981871038675,0.000860411673784256,-0.0015714310575276613,-0.302952793900099,1.4090228162814002,0.25253346633820833
4.4540181159973145,-0.004374146461486816,-0.0013575553894042969,-0.002354040741920471,0.0021592217963188887,0.002880463609471917,-0.0012079095467925072,-0.3029682936128087,1.4090441481632792,0.25252279619174517
4.464030981063843,-0.004755377769470215,-0.00025856494903564453,-0.0022902488708496094,0.004979775287210941,-0.0003584730438888073,0.0006696190685033798,-0.30296790428339015,1.4090412844716798,0.25247661594362425
4.4740800857543945,-0.0032453536987304688,-0.0005942881107330322,-0.0015323758125305176,0.0059627145528793335,-0.00019486527889966965,0.0006946526700630784,-0.3029519689816038,1.4090150207903283,0.2524216145937829
4.484335899353027,-0.0035645365715026855,-0.0012554526329040527,-0.0005590468645095825,0.005768836475908756,-0.0016516144387423992,0.0010973225580528378,-0.3029413291851152,1.408986626455859,0.25235481299844686
4.494035959243774,-0.003592848777770996,-0.0019764304161071777,-0.0008737444877624512,0.004035302437841892,-0.002099691890180111,0.0019322235602885485,-0.30292929760623355,1.4089487807784553,0.2523044917438533
4.50391697883606,-0.003814220428466797,-0.001976102590560913,-0.0014836937189102173,0.0037317017558962107,-0.0037636347115039825,-0.0012912665260955691,-0.3029289488479782,1.40889974569282,0.2522561178904452
4.513929843902588,-0.0046120285987854,-0.0017957091331481934,-0.0010099858045578003,0.00513065978884697,-0.004680028185248375,-0.0015096457209438086,-0.30293174890686,1.4088340659607352,0.25221132871302393
4.523999929428101,-0.004155874252319336,-0.0008240342140197754,-0.00018839538097381592,0.0044028181582689285,-0.006372733972966671,-0.000734399538487196,-0.3029368752815826,1.4087553672240327,0.2521618162788446
4.534058094024658,-0.0031491518020629883,-0.0012096166610717773,-4.416704177856445e-05,0.0036989448126405478,-0.006343439221382141,-0.0011051115579903126,-0.3029411775023143,1.40866679152727,0.2521144408465957
4.544080972671509,-0.004289567470550537,-0.0024361908435821533,0.0001090317964553833,0.002603586995974183,-0.006173263303935528,-0.003864679019898176,-0.30296329824367474,1.4085840473848557,0.2520766989649913
4.5539398193359375,-0.006042599678039551,-0.002398878335952759,0.0021506547927856445,-0.00022895121946930885,-0.0037694936618208885,-0.001873699831776321,-0.302988227842222,1.4085212433230205,0.25205969795027466
4.564115047454834,-0.007164180278778076,-0.004145681858062744,0.002198159694671631,0.004060652107000351,-0.001516059972345829,0.00020324625074863434,-0.30299582373663236,1.4084866253998205,0.25204199936485694
4.574173927307129,-0.007591724395751953,-0.0030339956283569336,0.004357382655143738,0.005690307356417179,-0.0012360727414488792,0.00025970523711293936,-0.3029821798948735,1.408462875655857,0.25200501783087487
4.584451913833618,-0.004897415637969971,-0.0015544295310974121,0.0033233165740966797,0.004812795668840408,0.0013035177253186703,0.004007039126008749,-0.30295078140054255,1.408444523263897,0.25195245538909977
4.594175815582275,-0.0048487186431884766,-0.0034400522708892822,0.0036092400550842285,0.003645914839580655,0.0033782529644668102,0.00340282148681581,-0.30291198594594737,1.4084507247192581,0.25191084001327213
4.6043548583984375,-0.005792558193206787,-0.003377944231033325,0.00421576201915741,-0.0019603054970502853,0.003654689062386751,0.0023524705320596695,-0.3028789545063154,1.4084727334752791,0.25190341285801154
4.614198923110962,-0.00484013557434082,-0.0026877522468566895,0.004916727542877197,-0.005727762822061777,0.004160468000918627,-0.0005985783063806593,-0.3028752060989991,1.4085224901968942,0.25194623403121336
4.624269008636475,-0.004617035388946533,-0.0028603971004486084,0.005588904023170471,-0.006531504914164543,0.0012419098056852818,-0.00045716448221355677,-0.30288016701530784,1.4085699926331043,0.25200964914971163
4.634514808654785,-0.005470633506774902,-0.0023627281188964844,0.005736589431762695,-0.004937669727951288,0.0029884998220950365,-0.0017128982581198215,-0.3029023182963104,1.4086064824286086,0.2520608857082498
4.6443190574646,-0.00481104850769043,-0.001888364553451538,0.0034427642822265625,-0.0017362837679684162,0.002275837818160653,-0.0024327505379915237,-0.302932902836042,1.4086426115724662,0.25209547544482164
4.654277801513672,-0.004412651062011719,-0.0012328922748565674,0.000783577561378479,-0.0016853341367095709,0.004518352448940277,-0.004763016477227211,-0.3029655853172226,1.4086939814784025,0.25210923151033154
4.664309978485107,-0.005066990852355957,-0.001171499490737915,0.0009503811597824097,-0.001504239160567522,0.006955411285161972,-0.0033153221011161804,-0.30301317788650545,1.4087736518906988,0.2521243951290303
4.674243927001953,-0.0051149725914001465,-0.003817051649093628,0.0010807514190673828,-0.0022324472665786743,0.008853890001773834,-0.0021815611980855465,-0.30305122416644314,1.408860100931053,0.25214078065202544
4.684359073638916,-0.004040718078613281,-0.005085587501525879,0.0022879987955093384,-0.006485248915851116,0.005870083812624216,-0.00030909269116818905,-0.3030693314138452,1.408954419012275,0.2521793853232276
4.6941258907318115,-0.0016919374465942383,-0.005266308784484863,0.0008649826049804688,-0.010466941632330418,0.005622765514999628,0.003136824816465378,-0.3030668227562769,1.4090559700385874,0.2522749310713674
4.70450496673584,-0.002660393714904785,-0.005396157503128052,-0.000937044620513916,-0.015794062986969948,0.0036637443117797375,0.0025938060134649277,-0.3030430499856182,1.409155917622352,0.25242263357611033
4.714401960372925,-0.0034852027893066406,-0.005716502666473389,-0.0019966959953308105,-0.02098812535405159,0.0033205507788807154,0.0031116846948862076,-0.3030429277423085,1.409260322350415,0.2526225119378573
4.724388122558594,-0.0028886795043945312,-0.0042380690574646,-0.0016728639602661133,-0.02266964502632618,2.4889130145311356e-05,0.00274976110085845,-0.30304466323926255,1.4093538415327522,0.25286253841962775
4.734571933746338,-0.0034273862838745117,-0.003548264503479004,-0.002320721745491028,-0.020674370229244232,-0.002927756868302822,0.0014445987762883306,-0.303057396693628,1.409409218815606,0.2530909804687831
4.744288921356201,-0.002722620964050293,-0.002699732780456543,-0.0034888535737991333,-0.01844450645148754,-0.004619130864739418,0.0015790885081514716,-0.3030795893647433,1.4094332628250283,0.25329573513300735
4.754449844360352,-0.002795696258544922,-0.0030479133129119873,-0.004225313663482666,-0.016047295182943344,-0.0051848748698830605,0.00228972639888525,-0.30309266376999916,1.4094368878775512,0.2534730757076385
4.7653398513793945,-0.006033420562744141,-0.0032818615436553955,-0.005306646227836609,-0.013477878645062447,-0.004456500522792339,0.003387215081602335,-0.3030819889871774,1.4094352399738743,0.25362496125899664
4.774357795715332,-0.007077932357788086,-0.0030274391174316406,-0.004643082618713379,-0.012947792187333107,-0.005146037321537733,0.00451740762218833,-0.3030552796243683,1.4094287467223778,0.25376586930127426
4.7846739292144775,-0.00730520486831665,-0.0033768415451049805,-0.0032925009727478027,-0.009636684320867062,-0.0037225778214633465,0.006056448444724083,-0.303005641174979,1.4094229776700442,0.25389497997402727
4.794481992721558,-0.0078355073928833,-0.0030913352966308594,-0.003897249698638916,-0.007585284300148487,-0.0019164220429956913,0.010981111787259579,-0.3029143245476781,1.4094216630188785,0.25399407427993087
4.804689884185791,-0.008733630180358887,-0.001209348440170288,-0.00391387939453125,-0.005074989050626755,-0.004174249712377787,0.009863649494946003,-0.3028130412172625,1.4094120600554179,0.2540736704026698
4.814472913742065,-0.009366452693939209,-0.0003871023654937744,-0.0022446513175964355,-0.0032512228935956955,-0.003946017008274794,0.010161178186535835,-0.3027189442346139,1.4093780474396058,0.254134686066015
4.824570894241333,-0.007249414920806885,0.000486910343170166,-0.0024354010820388794,-0.00574660487473011,-0.005117808002978563,0.007280170451849699,-0.302634543991897,1.4093418686576806,0.2541909873733224
4.835188865661621,-0.004971742630004883,0.001386493444442749,0.00034487247467041016,-0.003975918982177973,-0.005854305345565081,0.004632508847862482,-0.30257130979590496,1.4092931385492735,0.25425245001748353
4.8452959060668945,-0.0030582547187805176,0.0031582415103912354,0.0033456087112426758,-0.002351657021790743,-0.008298555389046669,-0.0004189747851341963,-0.3025535296619186,1.4092186484266964,0.2542818211706398
4.854471921920776,-0.0038465261459350586,0.00234183669090271,0.004219472408294678,1.2813834473490715e-05,-0.006773317698389292,-0.004547673277556896,-0.30257751370102953,1.4091320806843552,0.2542852203623551
4.86469292640686,-0.0014128684997558594,0.004925519227981567,0.004539504647254944,0.001406446099281311,-0.0036302548833191395,-0.0044744363985955715,-0.3026203360991071,1.409065567978159,0.25426530244733525
4.874612808227539,-0.0019675493240356445,0.003996819257736206,0.0035265833139419556,0.0018756450153887272,-0.0013226703740656376,-0.0078014167957007885,-0.3026820588830553,1.4090200325930047,0.2542348547435139
4.884634971618652,-0.0036787986755371094,0.0013169944286346436,0.00370122492313385,0.003490852192044258,0.0029434473253786564,-0.009743927046656609,-0.3027719583078351,1.4090082301478872,0.2541916337319757
4.894576072692871,-0.006433367729187012,-0.00020754337310791016,0.00470145046710968,0.003764175809919834,0.006701034493744373,-0.010121562518179417,-0.3028665040434722,1.4090430683573631,0.25413250062039694
4.904619932174683,-0.007114231586456299,-0.00031754374504089355,0.0033495426177978516,0.00565155828371644,0.00894155167043209,-0.009515693411231041,-0.3029657669352635,1.4090963025553913,0.2540651715996453
4.914562940597534,-0.005952239036560059,-0.0017810463905334473,0.0014510750770568848,0.00542279239743948,0.010410996153950691,-0.00858816783875227,-0.3030602776467621,1.4091630270926692,0.253982696879706
4.925140857696533,-0.005452096462249756,-0.004571855068206787,-0.00014708936214447021,0.004060319159179926,0.007551027461886406,-0.007206520065665245,-0.30313860555290756,1.4092357480834716,0.2539208467441306
4.9346559047698975,-0.0071662068367004395,-0.006744027137756348,-0.0007023811340332031,0.0014566800091415644,0.007218576036393642,-0.00596745777875185,-0.30320824703119537,1.409303372020571,0.2538839209793848
4.944628953933716,-0.007648110389709473,-0.006806164979934692,0.000238075852394104,-0.002358830999583006,0.008473191410303116,-0.002888577291741967,-0.3032733126545762,1.4093869670706927,0.25388780758347457
4.954643964767456,-0.007616698741912842,-0.007843822240829468,0.00235159695148468,-0.003883124329149723,0.0057179732248187065,-0.000649870780762285,-0.30332135877557975,1.4094734125178074,0.25392156184384496
4.964721918106079,-0.003012716770172119,-0.006992459297180176,-0.0013566017150878906,-0.007405953947454691,0.0036660076584666967,-8.155219256877899e-05,-0.3033406330790092,1.4095375982110137,0.25397967690332185
4.974668025970459,-0.0028087496757507324,-0.006994336843490601,-0.00305233895778656,-0.00833311676979065,0.00502106873318553,0.002177660586312413,-0.30334257030759454,1.4096044080301822,0.25405295992938687
4.9846978187561035,-0.004531145095825195,-0.007709711790084839,-0.0038335323333740234,-0.011685770004987717,0.005180591717362404,0.0041768960654735565,-0.3033407612936536,1.409688683343198,0.2541579347237829
4.9946489334106445,-0.0066506266593933105,-0.00705111026763916,-0.003913775086402893,-0.013020596466958523,0.003097866429015994,0.0015268372371792793,-0.30333816205809766,1.40977400955614,0.25429376408277315
5.005186080932617,-0.0055487751960754395,-0.005290001630783081,-0.0006638616323471069,-0.011785156093537807,0.003558859694749117,0.002133771777153015,-0.30333147120442405,1.409839362866571,0.2544272047549915
5.014698028564453,-0.004093945026397705,-0.005212217569351196,-0.000921890139579773,-0.010304654948413372,-0.0006204829551279545,0.0024664003867655993,-0.30331389897184025,1.409871147862406,0.25454208711285276
5.024666786193848,-0.0025385022163391113,-0.005767703056335449,-0.000654563307762146,-0.011418655514717102,-0.0020580575801432133,0.006804157048463821,-0.30327244620763183,1.409897256633398,0.2546680760413989
5.034778118133545,-0.0021063685417175293,-0.005102932453155518,2.586841583251953e-05,-0.013265158049762249,-0.0010121455416083336,0.008003219030797482,-0.30319945734884507,1.4099237886942944,0.25480794268067153
5.044641971588135,-0.002703368663787842,-0.004039406776428223,0.0014147758483886719,-0.014432687312364578,-0.0003170603886246681,0.011323381215333939,-0.3031083078902879,1.4099603948569255,0.2549679366696529
5.054798126220703,-0.004622101783752441,-0.0036758482456207275,0.0012682080268859863,-0.01639137603342533,0.0017497302033007145,0.011637954041361809,-0.30299921492536847,1.4100243594143245,0.25514469276217305
5.064675807952881,-0.004645407199859619,-0.001580953598022461,0.0015384554862976074,-0.015639565885066986,0.001918841153383255,0.010574022307991982,-0.30289857682610705,1.4100826918949203,0.2553211890212142
5.074767112731934,-0.005442917346954346,0.000746309757232666,0.0025424957275390625,-0.01359840203076601,0.0013403575867414474,0.007748887408524752,-0.30281036859320226,1.4101389817252004,0.25548677291557026
5.085294008255005,-0.0072228312492370605,0.00020357966423034668,0.003190860152244568,-0.011934192851185799,0.003037323709577322,0.004943779669702053,-0.3027555480743107,1.410198548006879,0.25563099232334535
5.0947959423065186,-0.0075604915618896484,0.00033420324325561523,0.004047095775604248,-0.012665131129324436,0.002708335407078266,0.0016809811349958181,-0.30273059176210715,1.4102627551166051,0.25576494460009863
5.104829788208008,-0.007205486297607422,0.0025534331798553467,0.001762673258781433,-0.010546852834522724,0.0033490918576717377,0.0013241174165159464,-0.3027235628808538,1.4103232241713806,0.25588533393622126
5.114863872528076,-0.007110476493835449,0.0019350647926330566,-0.0003706812858581543,-0.008737867698073387,0.00441879453137517,0.00337150227278471,-0.30271594627667503,1.4103853473773085,0.2559860036399865
5.124790906906128,-0.007740139961242676,0.0009055435657501221,0.0008067935705184937,-0.005249126348644495,0.007498207502067089,0.002099310513585806,-0.302691541042195,1.4104648594757738,0.2560620115553227
5.134927988052368,-0.006925046443939209,0.002293199300765991,0.0025309473276138306,-0.00097721628844738,0.009656965732574463,0.004224406089633703,-0.30266046293617693,1.4105636293244168,0.2561025322725289
5.144742965698242,-0.0055808424949646,0.00332033634185791,0.0010617375373840332,0.0029858339112251997,0.00903378613293171,0.004038517829030752,-0.30260749453478897,1.4106519546435359,0.256102662481367
5.154886960983276,-0.004019677639007568,0.0026930272579193115,0.0012325644493103027,0.007584081031382084,0.010111302137374878,0.004048957489430904,-0.3025613024638517,1.410732055859105,0.25606025097416446
5.1666669845581055,-0.004394650459289551,0.003861933946609497,-0.00022689998149871826,0.008291683159768581,0.009026329964399338,0.002994345733895898,-0.30251963958363354,1.4108094381869787,0.2559877022241289
5.174910068511963,-0.0035035014152526855,0.0031612515449523926,-0.0017615556716918945,0.008834268897771835,0.007653736509382725,-0.002885221503674984,-0.302518386856259,1.410867322214018,0.25588725931254214
5.185120105743408,-0.0034999847412109375,0.0013567209243774414,0.0001917034387588501,0.009552523493766785,0.007199667394161224,-0.006442938931286335,-0.3025545249378728,1.41091397058628,0.25577428666330954
5.194858074188232,-0.0038490891456604004,0.0017924904823303223,0.00010402500629425049,0.010704807005822659,0.004488213919103146,-0.007628737483173609,-0.30262552198489984,1.410938650519279,0.25565694378870857
5.205006122589111,-0.0026316046714782715,0.0005288422107696533,9.930133819580078e-05,0.009115166030824184,0.0040202965028584,-0.010939313098788261,-0.30271852245350306,1.4109390060356122,0.25554371512820734
5.215039968490601,-0.0027405619621276855,-0.0011836588382720947,-0.0018643736839294434,0.009861532598733902,0.0028482843190431595,-0.011694265529513359,-0.302818114219587,1.410945198810337,0.2554273407894357
5.224991798400879,-0.004372119903564453,-0.0025508105754852295,-0.002186000347137451,0.009099069982767105,0.005065898410975933,-0.010191444307565689,-0.3029235705557931,1.4109411599583401,0.25530627005409395
5.235087871551514,-0.006671786308288574,-0.003928720951080322,-0.002849578857421875,0.011405733413994312,0.003837736789137125,-0.006205704063177109,-0.30299236903810195,1.410945539718295,0.2551818781484294
5.2452709674835205,-0.0047515034675598145,-0.005173146724700928,-0.0034253597259521484,0.009669352322816849,0.0024441045243293047,-0.0034237662330269814,-0.30303315762742294,1.410939236324813,0.2550591319294805
5.255026817321777,-0.004549860954284668,-0.006215810775756836,-0.003323376178741455,0.007340934127569199,0.0007541077211499214,0.00033443362917751074,-0.30303848941908584,1.4109279005962063,0.25496197260128534
5.265146970748901,-0.005136728286743164,-0.008204787969589233,-0.00115126371383667,0.00479495245963335,0.0012824786826968193,0.004891634918749332,-0.30301210121536404,1.4109235282367998,0.2549043428734741
5.275113105773926,-0.005746901035308838,-0.008340537548065186,-0.0006632059812545776,0.0021932770032435656,0.0010041785426437855,0.005262027494609356,-0.30296248478467386,1.4109262749385416,0.25487580048555075
5.285030841827393,-0.003566563129425049,-0.006879985332489014,-0.0020756572484970093,-0.000979346688836813,-0.001086935866624117,0.0064932070672512054,-0.3029030418079787,1.4109222413569773,0.2548833467728673
5.29506778717041,-0.0017834305763244629,-0.006375223398208618,-0.001024007797241211,-0.00290472898632288,-0.0032784068025648594,0.006349875126034021,-0.30283783970118744,1.410910603543246,0.2549125165901775
5.305027008056641,-0.0014947056770324707,-0.005583405494689941,0.0008676052093505859,-0.004699699580669403,-0.0016008815728127956,0.008626878261566162,-0.3027756163283729,1.4108980222548593,0.25495901203649846
5.315061092376709,-0.0016800761222839355,-0.003646373748779297,0.0021278858184814453,-0.00716105941683054,-0.0016031893901526928,0.005392149090766907,-0.3027125330369677,1.410891624215944,0.2550283541138054
5.32515287399292,-0.0027495622634887695,-0.003516077995300293,0.0023750215768814087,-0.008291837759315968,-0.0015166369266808033,0.004384408704936504,-0.3026559394961245,1.4108912618924454,0.2551219773620136
5.335178852081299,-0.0036211609840393066,-0.002424269914627075,0.00036098062992095947,-0.007543222978711128,-0.0016032783314585686,0.005951359868049622,-0.30259910972125037,1.410894037243736,0.2552139265679037
5.34515905380249,-0.0023767948150634766,-0.001839667558670044,-0.0004405379295349121,-0.005988736171275377,-0.0009539998136460781,0.005546293221414089,-0.3025302019070866,1.4109059991569015,0.2552890925140321
5.355216979980469,-0.004506409168243408,-0.0003050267696380615,0.0022182464599609375,-0.004514027386903763,0.0017820876091718674,0.008233635686337948,-0.3024571459151123,1.410921929794911,0.25535368292018773
5.365253925323486,-0.005251646041870117,-0.0002415776252746582,0.0012374520301818848,-0.0033078815322369337,0.000770885031670332,0.0064530461095273495,-0.3023746627255633,1.4109467681880052,0.255403490142857
5.375150918960571,-0.0055664777755737305,0.0008356571197509766,-0.0001684427261352539,-0.0019005174981430173,0.0009680036455392838,0.006956703029572964,-0.3023011741501352,1.4109688449271358,0.2554371078233635
5.385188102722168,-0.006231844425201416,0.0004794001579284668,0.0019242912530899048,-0.0014171537477523088,0.0004420294426381588,0.006850709207355976,-0.3022267801736871,1.4109863681549484,0.2554664884291449
5.39518404006958,-0.005505561828613281,0.0011022388935089111,0.0004405975341796875,0.000462821451947093,0.0019683309365063906,0.004602362401783466,-0.3021657648171835,1.411009424554114,0.25548746053395643
5.40562891960144,-0.005997300148010254,0.0013519823551177979,0.0010660290718078613,0.0021275633480399847,0.0026319907046854496,0.003325643017888069,-0.3021119476929586,1.4110285035269323,0.25547979865118614
5.415198802947998,-0.0063936710357666016,0.0026299655437469482,0.0008425861597061157,0.007545631378889084,0.002938254503533244,0.004085389431566,-0.30206790625418134,1.411041128927441,0.2554387105448041
5.425193786621094,-0.005169391632080078,0.001998335123062134,3.9517879486083984e-05,0.00917868223041296,0.0010109245777130127,0.0026001445949077606,-0.30202630461263635,1.4110372472459995,0.25536214901701804
5.435198783874512,-0.004216134548187256,0.0023065805435180664,-0.00018894672393798828,0.012209226377308369,0.0013240240514278412,0.0004191753687337041,-0.3019911217921281,1.4110223544306,0.255247994945428
5.4451680183410645,-0.0044116973876953125,0.0022391080856323242,0.0001659989356994629,0.014220711775124073,0.0006057694554328918,-0.001249827677384019,-0.3019819256110614,1.4109862220880178,0.2551130920568489
5.455226898193359,-0.005439937114715576,-0.0001666545867919922,0.0007535815238952637,0.011451173573732376,-7.719825953245163e-05,-0.0023473696783185005,-0.3019924799404496,1.4109450768625584,0.25497636145429076
5.466584920883179,-0.005534648895263672,-1.6450881958007812e-05,0.001129433512687683,0.013054929673671722,-0.001009038183838129,-0.0035780163016170263,-0.3020109926223996,1.4109015625633634,0.2548419341881574
5.4753639698028564,-0.006601512432098389,0.0013251304626464844,-0.0018511265516281128,0.015006011351943016,-0.00037702592089772224,-0.0038175410591065884,-0.3020441700827783,1.4108567416716054,0.25469798503077495
5.485255002975464,-0.0060538649559021,0.00022134184837341309,-0.0011814236640930176,0.01520601473748684,0.00047491956502199173,-0.005390670616179705,-0.30206556519359246,1.4108088710673226,0.25454217649582367
5.495368957519531,-0.00439000129699707,-0.00240170955657959,-0.0012766122817993164,0.014661397784948349,-9.473087266087532e-05,-0.0031837087590247393,-0.30209600033290884,1.4107626543555636,0.25437960499126755
5.505373001098633,-0.004838883876800537,-0.0013677477836608887,-0.001946285367012024,0.014692822471261024,-0.0004121796227991581,-0.000990062952041626,-0.30209983131147755,1.4107120283204702,0.2542170667230936
5.5166919231414795,-0.0045441389083862305,-0.0028569698333740234,-2.746284008026123e-05,0.013553372584283352,0.0013263761065900326,-0.001514173112809658,-0.302093393365791,1.4106678386069853,0.25406338742233187
5.525357961654663,-0.006235480308532715,-0.0019962191581726074,-0.0005192011594772339,0.014136605896055698,0.00022329483181238174,0.00014604150783270597,-0.3020868114041152,1.4106394160331932,0.25391889236913545
5.535344123840332,-0.0050435662269592285,-0.003944516181945801,-0.0011709332466125488,0.015376590192317963,-0.001983178313821554,0.0003909991355612874,-0.3020657885466965,1.4105872650945497,0.2537757033722063
5.545376777648926,-0.004048407077789307,-0.0037202537059783936,-0.001862749457359314,0.01391078531742096,-0.004701733123511076,0.0010655778460204601,-0.3020386682444535,1.4105131685324688,0.25362539537166917
5.555397987365723,-0.004161953926086426,-0.002826869487762451,-0.003000020980834961,0.012130745686590672,-0.006731727626174688,0.0006939603481441736,-0.30201391398143396,1.4104097295617148,0.25348747451999504
5.566502094268799,-0.002559661865234375,-0.00341150164604187,-0.0008397400379180908,0.005834233947098255,-0.009196748957037926,5.799462087452412e-06,-0.30200291846607613,1.4102876149105905,0.25338994696180367
5.575403928756714,-0.0015313029289245605,-0.004921615123748779,-0.0004321187734603882,-0.0016389286611229181,-0.010327527299523354,-0.002680371282622218,-0.3020183957388202,1.4101780897441958,0.253369236420833
5.5854339599609375,-0.003439962863922119,-0.006357282400131226,0.00017525255680084229,-0.004774534609168768,-0.011196251958608627,-0.005162703804671764,-0.30206774933194397,1.410081655147474,0.253402867277764
5.595456123352051,-0.004570364952087402,-0.0061032772064208984,0.00033229589462280273,-0.005714846774935722,-0.010502364486455917,-0.005561698228120804,-0.30212133140554825,1.409993268130787,0.2534620432351356
5.605420112609863,-0.0041106343269348145,-0.005511194467544556,0.0013848543167114258,-0.0036524946335703135,-0.009666930884122849,-0.0051454463973641396,-0.3021884090844348,1.4099092300916989,0.2535088284282234
5.616483926773071,-0.006543159484863281,-0.004094213247299194,0.001347959041595459,-0.002493819920346141,-0.008699670433998108,-0.0018264553509652615,-0.3022225985214613,1.409817104727118,0.2535360022551559
5.625442981719971,-0.005887925624847412,-0.003752470016479492,0.0019828230142593384,-0.005170829594135284,-0.006003486458212137,0.0009589449036866426,-0.30223222279738443,1.4097420429166576,0.2535773425391278
5.6355438232421875,-0.006136953830718994,-0.007594585418701172,0.001427963376045227,-0.010691046714782715,-0.005291490349918604,6.90228771418333e-05,-0.3022449690745841,1.4096986965111087,0.2536515023547531
5.645474910736084,-0.0069724321365356445,-0.007022827863693237,0.0015881657600402832,-0.014292705804109573,-0.004053386393934488,0.0005918014794588089,-0.3022534441147398,1.4096901897727736,0.25377733347088066
5.655504941940308,-0.0075827836990356445,-0.007117599248886108,0.0024663805961608887,-0.01518746092915535,-0.003783519845455885,0.0008716995362192392,-0.3022568417416619,1.409697193152775,0.2539368555998951
5.666575908660889,-0.006471812725067139,-0.0065101683139801025,0.003236547112464905,-0.016251128166913986,-0.0011081080883741379,0.0007689015474170446,-0.30225985461883886,1.409721764374246,0.2541045752596971
5.675661087036133,-0.0071489810943603516,-0.005136460065841675,0.002149060368537903,-0.013200858607888222,-0.0015876097604632378,0.0011527696624398232,-0.30225942722607557,1.4097585385307088,0.2542558565203004
5.685521125793457,-0.007005155086517334,-0.003716379404067993,0.003424525260925293,-0.011789916083216667,0.003210607450455427,0.0010158831719309092,-0.3022583961293001,1.409813837449791,0.2543932862521534
5.695833921432495,-0.007032811641693115,-0.004053562879562378,0.0029327422380447388,-0.013428226113319397,0.005819706246256828,0.001445291331037879,-0.302259908106432,1.4098984561731571,0.2545320252570106
5.705639839172363,-0.00835120677947998,-0.0033769607543945312,0.003269016742706299,-0.012889469042420387,0.01046825386583805,0.0025805968325585127,-0.30225448759826407,1.4100276356312973,0.25467118093894425
5.716378927230835,-0.008549749851226807,-0.0029572248458862305,0.001690104603767395,-0.009479258209466934,0.011631610803306103,0.003666047938168049,-0.30223036529273145,1.410182282919892,0.2547961111510231
5.7256760597229,-0.007571995258331299,2.7298927307128906e-05,0.00036634504795074463,-0.0067489854991436005,0.011792732402682304,0.0031778905540704727,-0.30220486624348747,1.4103253010286474,0.25488705096741204
5.735752105712891,-0.007085680961608887,0.0004909038543701172,-0.0012283176183700562,-0.004706057719886303,0.011426502838730812,0.0028995368629693985,-0.30216681405338214,1.4104649597028458,0.2549524209778689
