timestamp,accel_x,accel_y,accel_z,rotation_x,rotation_y,rotation_z, pitch,roll,yaw
0.04374504089355469,-0.005839526653289795,-0.01759245991706848,-0.003058016300201416,0.0062646931037306786,-0.003372298087924719,-0.00421456154435873,-0.14440602456447293,0.2556789000130653,0.018593808672732887
0.05739307403564453,-0.0025423169136047363,-0.016612350940704346,-0.0007132887840270996,0.0032331831753253937,-0.010924136266112328,-0.004716301336884499,-0.14437159754461548,0.2555965553399158,0.018532992379374245
0.0691680908203125,-0.002423018217086792,-0.016573801636695862,0.0026850104331970215,-0.0026745067443698645,-0.00924874097108841,-0.007291577756404877,-0.1443789068766444,0.25548815082596643,0.018468712593151408
0.07580184936523438,-0.00178605318069458,-0.01833498477935791,0.006480276584625244,-0.003691418096423149,-0.005584097933024168,-0.006747813895344734,-0.1444316282204353,0.2554145410396344,0.018400698334887552
0.07945799827575684,-0.0044422447681427,-0.020174041390419006,0.007200956344604492,-0.004289297852665186,-0.00017441902309656143,-0.003962413407862186,-0.14448599041169508,0.25537003853814433,0.018348203742581972
0.08446097373962402,-0.005311727523803711,-0.01919214427471161,0.008133649826049805,0.003799721132963896,0.009781187400221825,-0.0014204262988641858,-0.14449602530138367,0.2554179510995594,0.018318854772421567
0.09253501892089844,-0.0053709447383880615,-0.018645942211151123,0.010871827602386475,0.009593427181243896,0.007617901545017958,0.00361401354894042,-0.14442206568790483,0.2554928807000371,0.018310297350160376
0.100067138671875,-0.006735324859619141,-0.015958815813064575,0.008344769477844238,0.011571524664759636,0.011726094409823418,0.002997864503413439,-0.144312539364301,0.25559100260591827,0.018318519345482634
0.1100611686706543,-0.004739224910736084,-0.015798717737197876,0.01014012098312378,0.01324558723717928,0.0066490438766777515,0.002292126649990678,-0.1441815957904897,0.2556845739827939,0.018313606015706866
0.12014603614807129,-0.003456324338912964,-0.018233180046081543,0.01009976863861084,0.008031900972127914,0.006162439472973347,-0.00014929950702935457,-0.14406664505312788,0.2557268055836256,0.018291362893598097
0.13008594512939453,-0.0032776594161987305,-0.016300588846206665,0.012056469917297363,-0.00538563821464777,0.0053901225328445435,-0.002807400655001402,-0.14405657192143104,0.25577887705025976,0.018270823222784276
0.14016294479370117,-0.001838982105255127,-0.01798151433467865,0.009603142738342285,-0.016101514920592308,0.005722973495721817,-0.0044953119941055775,-0.1441669895265883,0.2558263363036336,0.018260589267535186
0.15012502670288086,-0.0024637579917907715,-0.019969910383224487,0.005963802337646484,-0.023315485566854477,0.0045346710830926895,-0.007455681916326284,-0.14437222518180343,0.2558651456982723,0.01825818211699252
0.1603679656982422,-0.001972973346710205,-0.01972849667072296,0.007868468761444092,-0.024592306464910507,0.006260222289711237,-0.0059250034391880035,-0.14462170232204055,0.25591983682053776,0.01825723578381532
0.17030715942382812,-0.003461480140686035,-0.018621698021888733,0.009376347064971924,-0.007153927348554134,0.013157542794942856,-0.004410996567457914,-0.14479848523094666,0.25601505885730735,0.01825861648876999
0.1803131103515625,-0.0062386393547058105,-0.016086161136627197,0.0068266987800598145,0.014650421217083931,0.006936087738722563,0.005635139532387257,-0.14474959968481357,0.25610886870482524,0.018258445766489013
0.19042205810546875,-0.0052588582038879395,-0.011656835675239563,0.0016958117485046387,0.021236151456832886,0.008047424256801605,0.007148347795009613,-0.14454484261073108,0.25617741092878976,0.018271875684188848
0.20045709609985352,-0.004739701747894287,-0.005105361342430115,-0.0001392960548400879,0.014981519430875778,0.013142939656972885,0.0065283640287816525,-0.14407675596277728,0.25627079691182575,0.01829027500677556
0.21048212051391602,-0.0064089298248291016,-0.009556770324707031,3.904104232788086e-05,-0.003992172423750162,0.012996199540793896,0.0030545364134013653,-0.14377962042106493,0.2563933186897909,0.01831671160065762
0.2204599380493164,-0.007327526807785034,-0.01804541051387787,0.002501964569091797,-0.01982952654361725,0.007762644439935684,-0.001420958898961544,-0.14364564915416433,0.25650301941846226,0.018346519376167894
0.2301640510559082,-0.005345463752746582,-0.019051849842071533,0.003981173038482666,-0.01851312443614006,0.006732800044119358,-0.004870551638305187,-0.14356793060793566,0.2565495425590647,0.018360326368624728
0.24032211303710938,-0.00487905740737915,-0.016856297850608826,0.0015395879745483398,0.0022604139521718025,-0.0005574701353907585,-0.0017594466917216778,-0.14340005889761026,0.2565819419565962,0.01834890919110623
0.25050997734069824,-0.0014808475971221924,-0.01202082633972168,-0.002505362033843994,0.019206907600164413,-0.013564083725214005,0.0019514020532369614,-0.1430470592182841,0.25647769042189617,0.018311727117627987
0.26047515869140625,0.0002911090850830078,-0.005424588918685913,-0.005427420139312744,0.022370293736457825,-0.01636257767677307,0.005403284449130297,-0.14262633544409917,0.25625260329607435,0.01827668551030954
0.2705810070037842,0.002206772565841675,-0.0032388120889663696,-0.004978835582733154,0.007959661073982716,-0.014870408922433853,0.0010357004357501864,-0.1423296514849061,0.2560256276462709,0.01826893244643257
0.28043603897094727,-0.003132939338684082,-0.010371282696723938,-0.004390835762023926,-0.008186068385839462,-0.010684050619602203,-0.0016223471611738205,-0.14229008726866166,0.2558320310608716,0.018267272734646015
0.29029202461242676,-0.0074866414070129395,-0.01976238191127777,0.0010218024253845215,-0.014471394941210747,-0.007470681797713041,0.00013454013969749212,-0.14229711257503957,0.2556622025775972,0.018266955646771908
0.30037689208984375,-0.00951319932937622,-0.020995140075683594,0.005135893821716309,-0.00723824929445982,-0.008810695260763168,0.005961057264357805,-0.14217053942701444,0.25551108655595844,0.018320275494358502
0.31050705909729004,-0.007917672395706177,-0.015288963913917542,0.002222001552581787,-0.0012767633888870478,-0.010742018930613995,0.00922875665128231,-0.14195538730300972,0.25538255995359466,0.01839949930004257
0.320605993270874,-0.005468845367431641,-0.01436769962310791,0.0007503628730773926,0.0004302395973354578,-0.004737700801342726,0.01426058541983366,-0.14173379860957636,0.255286896509201,0.018512238207382747
0.3305089473724365,-0.004631727933883667,-0.016589611768722534,0.0034468770027160645,0.003474232740700245,-0.00850740633904934,0.015274184755980968,-0.14152749050709096,0.2552336488948888,0.018661851902325447
0.34057188034057617,-0.005013942718505859,-0.01782996952533722,0.006181240081787109,0.005120981950312853,-0.006005321629345417,0.016708029434084892,-0.14137781325282878,0.2551810805885271,0.018816792690174465
0.3505258560180664,-0.00356118381023407,-0.015213251113891602,0.006514251232147217,0.005946561694145203,-0.011295956559479237,0.013983084820210934,-0.14124696163990108,0.25514105872136605,0.01895471463765257
0.3605990409851074,-0.00276733934879303,-0.013479277491569519,0.005588889122009277,0.004247864708304405,-0.011439856141805649,0.00993470661342144,-0.14103678117693635,0.25498950955105787,0.019055108801927373
0.3706178665161133,-0.0030815303325653076,-0.014054790139198303,0.007635593414306641,-0.00030321162194013596,-0.008106911554932594,0.012656456790864468,-0.14075500825941198,0.2548292504995266,0.01915824649200212
0.38066697120666504,-0.0029914677143096924,-0.012655377388000488,0.004928946495056152,-0.0043776314705610275,-0.006876042112708092,0.00990258902311325,-0.14051285719980056,0.25467853656014183,0.019267103353930323
0.39058804512023926,-0.0030337125062942505,-0.00924539566040039,0.0012691617012023926,-0.0013730532955378294,-0.001461569219827652,0.013322354294359684,-0.14035140991798167,0.25457336668740854,0.019384510233564908
0.4006319046020508,-0.0023796409368515015,-0.00918734073638916,0.0019012689590454102,0.007900172844529152,-0.006664764601737261,0.013043041341006756,-0.14012326654057253,0.2544875211941259,0.019499740723688902
0.4104790687561035,-0.0034218579530715942,-0.00801222026348114,0.002313077449798584,0.008411234244704247,-0.0039597912691533566,0.011746082454919815,-0.13983031190247808,0.254402011383832,0.019589527762574003
0.4206509590148926,-0.003837674856185913,-0.005364835262298584,0.0032216906547546387,0.009963057935237885,-0.002334464341402054,0.01135885901749134,-0.13952984180751177,0.254347249154597,0.019676294382756386
0.43161702156066895,-0.004003211855888367,-0.00850735604763031,0.0037584304809570312,0.009846411645412445,-0.005868479143828154,0.007560658268630505,-0.13925170117621624,0.25430285552264775,0.01974442799238971
0.4406249523162842,-0.003409743309020996,-0.01165086030960083,0.004264712333679199,0.007058081682771444,-0.008062124252319336,0.006116426084190607,-0.13902077755914344,0.25423246822110435,0.019789724445606633
0.4503750801086426,-0.000957101583480835,-0.010237932205200195,0.00809544324874878,0.000622286694124341,-0.007892748340964317,0.006634677294641733,-0.1388266937784071,0.2541500196489952,0.019845613001181695
0.46048402786254883,-0.001860290765762329,-0.010578826069831848,0.007608175277709961,-0.009926710277795792,-0.0050937216728925705,0.005014303606003523,-0.13873949433381003,0.25407031753379966,0.01990166368486832
0.4707820415496826,-0.0023164302110671997,-0.013375580310821533,0.006133139133453369,-0.01918572187423706,-0.0018992596305906773,0.0037530302070081234,-0.13879015560688188,0.2540227045006229,0.019979612996147096
0.48088502883911133,-0.0048837810754776,-0.014232948422431946,0.004707813262939453,-0.014238701201975346,0.0014992891810834408,0.0039055761881172657,-0.1388546964246535,0.25401317562189835,0.02006252052012641
0.49075984954833984,-0.006115958094596863,-0.011841371655464172,0.004180312156677246,-0.004317360930144787,-0.002379871439188719,0.0074979146011173725,-0.13884338074680252,0.25399288721389296,0.020137617855981914
0.5064480304718018,-0.00542159378528595,-0.009263381361961365,0.0038497447967529297,-0.0006896196864545345,-0.002806908916682005,0.007581910118460655,-0.13879790149004134,0.2539354419686728,0.020206343855089254
0.5147449970245361,-0.00596192479133606,-0.006389036774635315,0.0043103694915771484,-0.0015013511292636395,0.002290647476911545,0.005517960526049137,-0.13871511690146443,0.2539071550241183,0.02026718611371557
0.5318920612335205,-0.0068196505308151245,-0.01051129400730133,0.0026221871376037598,0.005649186670780182,-0.0018269107677042484,0.0028581018559634686,-0.1385634575343653,0.253905041884155,0.020297713680833912
0.533782958984375,-0.00829237699508667,-0.014253050088882446,0.005686521530151367,0.010351795703172684,-0.0033979094587266445,0.0022434440907090902,-0.1383819679475174,0.25389075130460603,0.02030219334797301
0.5430588722229004,-0.006717965006828308,-0.011027052998542786,0.006206691265106201,0.00857153907418251,-0.001382695510983467,0.005018564406782389,-0.13819064071204504,0.253865065338067,0.020314512967373213
0.5570180416107178,-0.0074602216482162476,-0.008902862668037415,0.0055983662605285645,0.005515562370419502,1.0670628398656845e-05,0.0035253302194178104,-0.13797171969852534,0.2538515168800327,0.020333667890408285
0.565086841583252,-0.0078005194664001465,-0.012739092111587524,0.003553032875061035,-0.0015197934117168188,0.0010963082313537598,0.0028584743849933147,-0.1378086014257425,0.253818620760466,0.02035137702925973
0.5815670490264893,-0.007558956742286682,-0.013392791152000427,0.003837883472442627,-0.011999864131212234,0.005373611114919186,0.0037042945623397827,-0.13775993486262353,0.2538036554219078,0.02039164492585686
0.588986873626709,-0.00844089686870575,-0.011927664279937744,0.0035208463668823242,-0.018189899623394012,0.003223774489015341,0.0021772910840809345,-0.13782127534841113,0.2538185666489779,0.020453984947854196
0.5949859619140625,-0.006804570555686951,-0.010307982563972473,0.0034301280975341797,-0.019269011914730072,0.000742773525416851,0.0020180344581604004,-0.13795763367035901,0.25380376444039343,0.020517809882927018
0.6010539531707764,-0.005310356616973877,-0.008975520730018616,0.0024300813674926758,-0.0200431440025568,-0.008014366030693054,0.0009053121320903301,-0.1380450848340507,0.25372854758507385,0.0205667812261771
0.6155171394348145,-0.004394739866256714,-0.00805307924747467,0.0011954307556152344,-0.01882794313132763,-0.010589908808469772,-0.0007927192491479218,-0.13809972592886857,0.2535712695105397,0.02060506663575134
0.631688117980957,-0.00047895312309265137,-0.0069083571434021,0.0024642348289489746,-0.020902063697576523,-0.01850726455450058,-0.00276468344964087,-0.13819184051108066,0.25338959084688795,0.02063824599261576
0.6332950592041016,0.00012733042240142822,-0.004983454942703247,0.00038039684295654297,-0.02617192640900612,-0.028827279806137085,-0.003721557091921568,-0.13834356636423073,0.2530969206401891,0.020656867672109745
0.6443381309509277,0.001239687204360962,-0.002616181969642639,0.0010222792625427246,-0.03646010160446167,-0.029954107478260994,-0.008634557016193867,-0.13854167946656015,0.2527396857466326,0.020666320973651932
0.6508569717407227,0.0029032379388809204,-0.003485575318336487,0.0020325183868408203,-0.045098595321178436,-0.03064919076859951,-0.009816201403737068,-0.1388340510387637,0.2523838878102257,0.0206736121562672
0.6609129905700684,0.001774519681930542,-0.004346728324890137,0.0015412569046020508,-0.04667075723409653,-0.03170984238386154,-0.012116480618715286,-0.13919514267839936,0.252014599476825,0.02066901336165524
0.6708869934082031,1.9252300262451172e-05,-0.004457801580429077,0.0016867518424987793,-0.04360679164528847,-0.030087176710367203,-0.013865111395716667,-0.1395538323099942,0.2516621478419317,0.020654624060457524
0.682204008102417,-0.002784416079521179,-0.00178566575050354,0.004178822040557861,-0.031057728454470634,-0.027207281440496445,-0.012419387698173523,-0.13986014647673112,0.2513509132731544,0.020624029957634262
0.6909370422363281,-0.0031214356422424316,-0.0018266290426254272,0.005223214626312256,-0.014230811968445778,-0.025564640760421753,-0.010206567123532295,-0.1400093837858744,0.2510554218437168,0.020562845999335833
0.7072601318359375,-0.0035660117864608765,-0.0026476532220840454,0.0063437819480896,0.003185329958796501,-0.01991252601146698,-0.007044489961117506,-0.14002181218612839,0.25083532285427274,0.020494190497194795
0.7156620025634766,-0.004499658942222595,-0.001553177833557129,0.007922649383544922,0.021626388654112816,-0.01930372789502144,-0.005832751747220755,-0.13984109609185133,0.25065680626545167,0.02040951265796422
0.7319920063018799,-0.005245700478553772,-0.001923874020576477,0.009017586708068848,0.02426370047032833,-0.014610571786761284,-0.006603630259633064,-0.13958367042567055,0.2505026881493803,0.02028945312437093
0.7336399555206299,-0.005409955978393555,-0.0024073421955108643,0.012193858623504639,0.016946665942668915,-0.0073068528436124325,-0.008112844079732895,-0.13936308616381834,0.25042738700072553,0.02017949996052703
0.7415060997009277,-0.007158249616622925,-0.005736678838729858,0.014399170875549316,0.012733478099107742,0.0016674678772687912,-0.012153764255344868,-0.139211971392843,0.25041523969613305,0.020055948058663994
0.7566690444946289,-0.007721081376075745,-0.011331766843795776,0.014030873775482178,0.01752450503408909,0.003498923731967807,-0.012453103438019753,-0.13906835526794467,0.25044008902371256,0.019888380288307608
0.7649731636047363,-0.009236305952072144,-0.01086340844631195,0.014171421527862549,0.023664722219109535,0.003450453979894519,-0.013828040100634098,-0.1389035874539399,0.2504548953953429,0.019704667199051156
0.7819640636444092,-0.008390232920646667,-0.0047569721937179565,0.01246100664138794,0.02671244367957115,0.0050017451867461205,-0.015033919364213943,-0.13868493410956167,0.2504558541239134,0.01949996960659639
0.7896130084991455,-0.005828157067298889,-0.005896270275115967,0.007736146450042725,0.015399634838104248,0.00620389636605978,-0.012893217615783215,-0.13851031112638706,0.25046699272311823,0.01931404793059635
0.8064980506896973,-0.005330130457878113,-0.008625343441963196,0.00420689582824707,-0.0007276695687323809,0.007615904323756695,-0.012464715167880058,-0.13847720659487653,0.2505033463046466,0.019176944776407794
0.815126895904541,-0.006360441446304321,-0.011347189545631409,0.002954840660095215,-0.011317113414406776,0.0030803189147263765,-0.014167326502501965,-0.1385754977913444,0.25051516374115657,0.01906872937743131
0.8317019939422607,-0.004406765103340149,-0.015093803405761719,0.002644479274749756,-0.011287552304565907,-0.0074279820546507835,-0.01389888022094965,-0.13872245249475637,0.2504562305596694,0.01895755217188942
0.8398561477661133,-0.0019126832485198975,-0.013947322964668274,-0.0005211234092712402,-0.013542067259550095,-0.01531124860048294,-0.01207679882645607,-0.1388436096657854,0.2502943303895339,0.018855677409134526
0.8566288948059082,0.0017011314630508423,-0.010809212923049927,-0.002800464630126953,-0.015663009136915207,-0.017756562680006027,-0.012836598791182041,-0.13894131320973105,0.2500778190014675,0.018764812722138757
0.8648538589477539,0.0027665942907333374,-0.0131043940782547,-0.003459632396697998,-0.005312451161444187,-0.024790549650788307,-0.009848212823271751,-0.1389939520877817,0.24981214389920323,0.018679147057572714
0.881770133972168,0.0025212466716766357,-0.013641029596328735,-0.0024674534797668457,-0.0035782007034868,-0.03129984810948372,-0.006022847723215818,-0.1390273557214576,0.24948067391781997,0.018608325230124786
0.8897910118103027,0.004645943641662598,-0.010989725589752197,-0.0008900761604309082,-0.005033218767493963,-0.028627632185816765,-0.002078493358567357,-0.13903111416693964,0.2491430367647353,0.018571977482078193
0.9058928489685059,0.0036501288414001465,-0.008410856127738953,0.0006169676780700684,-0.007455363869667053,-0.024975106120109558,-0.002544812858104706,-0.13903097591593921,0.24884513654473694,0.018562850741763007
0.9101581573486328,0.001716330647468567,-0.009987205266952515,2.008676528930664e-05,-0.006176247261464596,-0.027414470911026,0.0011081385891884565,-0.13900490804711269,0.24855383961468663,0.018576390008216787
0.9144120216369629,0.002008199691772461,-0.011982351541519165,0.0009301304817199707,0.0020896720234304667,-0.02855750173330307,0.003383543575182557,-0.1388932882389491,0.24826175047200144,0.018598288040569046
0.9193391799926758,0.0023407340049743652,-0.008952543139457703,0.0017209053039550781,0.008634639903903008,-0.03586312755942345,0.004845512565225363,-0.1386997444757956,0.24794031509904274,0.018622143650118304
0.9310941696166992,0.002931639552116394,-0.005758211016654968,0.0024476051330566406,0.0051416377536952496,-0.03406389802694321,0.0032737147994339466,-0.1385249708502863,0.24762065942134487,0.018640588189447457
0.935276985168457,0.0020518898963928223,-0.007019147276878357,0.005355656147003174,-0.0023385656531900167,-0.030151404440402985,0.0031689992174506187,-0.13839612726315895,0.24734052068955814,0.018669750291051338
0.941382884979248,0.00013589859008789062,-0.010379970073699951,0.005290389060974121,-0.0023771815467625856,-0.03102225810289383,0.0007497837068513036,-0.13830760980266057,0.24709216444320264,0.01869673672022712
0.9464058876037598,-0.001816779375076294,-0.012396171689033508,0.004313647747039795,-0.0008233768166974187,-0.0332195870578289,-0.0001791269751265645,-0.1382326579881329,0.2468189929045003,0.01870359791170035
0.9556679725646973,-0.0014383792877197266,-0.0120333731174469,0.008552134037017822,0.0011473624035716057,-0.029982250183820724,0.0014310202095657587,-0.1381744742553284,0.24655007586988778,0.018715655839007896
0.961115837097168,-0.004171207547187805,-0.009709060192108154,0.011697888374328613,0.0036208564415574074,-0.03089442476630211,0.0025230227038264275,-0.1380770072975033,0.24627817395140367,0.01872707437598519
0.971107006072998,-0.006303638219833374,-0.010094299912452698,0.009395599365234375,0.012297701090574265,-0.02248389646410942,0.002350450027734041,-0.1379113664190645,0.24604607510028445,0.018728498454102478
0.9810881614685059,-0.005786120891571045,-0.009073615074157715,0.009222567081451416,0.026457296684384346,-0.0271594300866127,0.00936212670058012,-0.1376511376383669,0.24583186720712885,0.01875076170539449
0.9910800457000732,-0.00744667649269104,-0.004623696208000183,0.007892191410064697,0.038787201046943665,-0.023167353123426437,0.010519802570343018,-0.1372717512998226,0.24560949559997014,0.01876810955696066
1.001326084136963,-0.007466062903404236,0.0005673468112945557,0.00858074426651001,0.04561096802353859,-0.022055616602301598,0.0127145666629076,-0.13679117359792275,0.24542251504503337,0.01878610662427644
1.0111188888549805,-0.008507564663887024,-0.0007623136043548584,0.007978320121765137,0.04658089205622673,-0.018972475081682205,0.014187294989824295,-0.13623884693831986,0.2452487995275776,0.01881381551629614
1.021151065826416,-0.009596362709999084,0.00020372867584228516,0.006914019584655762,0.0397830531001091,-0.018028516322374344,0.01408843882381916,-0.1357104541781678,0.24507760953677662,0.018839846488426765
1.0311460494995117,-0.007515713572502136,-0.003159448504447937,0.006476938724517822,0.03178665041923523,-0.018167532980442047,0.0053093284368515015,-0.1352701501011193,0.24491405487246223,0.01884906353610107
1.0412280559539795,-0.006601899862289429,-0.005568280816078186,0.008018732070922852,0.02083306759595871,-0.02413337118923664,0.0024939412251114845,-0.13496009670666978,0.24469897189914067,0.01882367872786774
1.0511088371276855,-0.007433220744132996,-0.00534270703792572,0.011020421981811523,0.027355946600437164,-0.029430396854877472,0.00018258369527757168,-0.13470165415472335,0.2444121943883897,0.018779056292405037
1.061142921447754,-0.004979521036148071,-0.0064680129289627075,0.009596824645996094,0.04584111273288727,-0.0462428443133831,0.002630454720929265,-0.13431283629178967,0.2440054573939423,0.01869743155744696
1.0711588859558105,-0.0006374269723892212,-0.0019262433052062988,0.0050907135009765625,0.06494476646184921,-0.058702707290649414,0.007214287295937538,-0.1337485269383369,0.24343814411634165,0.018613116081074618
1.0812530517578125,0.0014670789241790771,0.009247750043869019,0.0024123787879943848,0.06227840855717659,-0.06261276453733444,0.008407383225858212,-0.1331281149406595,0.24278426443538795,0.018538388541910755
1.0912418365478516,-0.0009593665599822998,0.005873531103134155,0.0038872957229614258,0.042143579572439194,-0.06270916759967804,0.009870790876448154,-0.13262214976784345,0.2421176571499294,0.018497246394959765
1.1013610363006592,-0.005215942859649658,-0.004556670784950256,0.008103251457214355,0.025596845895051956,-0.05804699286818504,0.011780117638409138,-0.13232279057100543,0.24148882398595084,0.018513830413813236
1.1117348670959473,-0.005737632513046265,-0.009037330746650696,0.013369143009185791,0.02538725547492504,-0.04839995875954628,0.028204362839460373,-0.13200946161724808,0.24094260663745645,0.018648344253299753
1.1213531494140625,-0.0024555474519729614,-0.002152875065803528,0.0163537859916687,0.06798204779624939,-0.08824661374092102,0.03911394998431206,-0.13152954461099936,0.2403232432052767,0.018876254677100808
1.1324491500854492,0.0001503974199295044,0.012115731835365295,0.01713186502456665,0.1296861618757248,-0.10747863352298737,0.031510625034570694,-0.13046592548393537,0.2393417692830909,0.01899030092153811
1.1439080238342285,0.010019823908805847,0.006965473294258118,0.010863661766052246,0.20847775042057037,-0.1370379626750946,0.047418057918548584,-0.12868906868444346,0.23813244548814305,0.018978038121004785
1.1512629985809326,0.0123043954372406,0.008935973048210144,-0.0071350932121276855,0.2278250753879547,-0.14507244527339935,0.060604166239500046,-0.12642550929113752,0.23675287347387033,0.01898403845883157
1.1615159511566162,0.01004190742969513,0.02983999252319336,-0.007983148097991943,0.1825033277273178,-0.13611561059951782,0.06172743812203407,-0.12438055797095296,0.2354297265070969,0.019115738771250997
1.171483039855957,0.004545554518699646,0.02613745629787445,0.009526193141937256,0.12345413118600845,-0.15730932354927063,0.05503997579216957,-0.12285293255796814,0.23407541937702028,0.019344187527970947
1.1815218925476074,-0.004853576421737671,0.014428280293941498,0.02737051248550415,0.026890043169260025,-0.22112983465194702,0.004773872904479504,-0.12204383841239276,0.23220271855631033,0.0194691344363901
1.1915030479431152,-0.002070203423500061,0.002460367977619171,0.04374498128890991,-0.1647592931985855,-0.2841183841228485,-0.0603308267891407,-0.12272534451348033,0.22968905110049442,0.01934494202066188
1.2061610221862793,0.0047130286693573,-0.016915246844291687,0.05915725231170654,-0.5509559512138367,-0.37485435605049133,-0.16039815545082092,-0.12632069973867258,0.22645389186288692,0.01910890753082715
1.2145049571990967,-3.5122036933898926e-05,-0.04639877378940582,0.07202833890914917,-1.249696969985962,-0.4820079803466797,-0.34275463223457336,-0.1354816235828515,0.22216963359044026,0.01866845765357781
1.221682071685791,-0.006292298436164856,-0.11943331360816956,0.10597747564315796,-2.268411636352539,-0.5416069626808167,-0.6274027824401855,-0.15365225215570302,0.2169784564615168,0.017755162647968895
1.2317109107971191,-0.01573827862739563,-0.2489825040102005,0.16613656282424927,-3.3045079708099365,-0.7483039498329163,-0.8586820960044861,-0.18251979433429774,0.21034457115300564,0.016330663377594024
1.2416460514068604,-0.025225937366485596,-0.34658104181289673,0.2112826704978943,-4.432485580444336,-1.0531196594238281,-1.1140097379684448,-0.2223402432827479,0.20101703091516937,0.014581967196846285
1.25655198097229,0.020306721329689026,-0.35152938961982727,0.20909082889556885,-5.795400142669678,-1.3928353786468506,-1.4502214193344116,-0.2749005002912194,0.1880766958529332,0.011782925802707058
1.2660789489746094,0.06731320917606354,-0.29725563526153564,0.19896304607391357,-7.403881549835205,-1.75469172000885,-1.8182127475738525,-0.34256704025160345,0.17085904149845865,0.007248500274914182
1.2822141647338867,0.06325091421604156,-0.3630860149860382,0.2270069718360901,-9.648528099060059,-1.983866810798645,-2.0807290077209473,-0.4300025984266482,0.15009792749956663,0.0012522008890290704
1.2840209007263184,0.05109135061502457,-0.4368961453437805,0.2953738570213318,-12.155683517456055,-2.3174290657043457,-2.2862982749938965,-0.5407474008475397,0.12494169036603453,-0.006502195110959481
1.292759895324707,0.0173325315117836,-0.40075910091400146,0.36723238229751587,-14.869787216186523,-2.3656067848205566,-2.485826015472412,-0.6776583514449521,0.0950417901972761,-0.017486207932699765
1.3069720268249512,0.013295665383338928,-0.4089999794960022,0.44283998012542725,-17.69147491455078,-2.3789680004119873,-2.366070032119751,-0.8421350683199151,0.06002087568651595,-0.03386466172787877
1.3150370121002197,-0.03980976343154907,-0.29814285039901733,0.44793200492858887,-20.1448917388916,-2.2752625942230225,-1.9021155834197998,-1.0327668039074458,0.01709163034919325,-0.05785216187505891
1.3329520225524902,-0.08008426427841187,-0.008382201194763184,0.4186011552810669,-21.16624641418457,-1.8944110870361328,-1.3991369009017944,-1.2403020118620784,-0.046172235825750516,-0.10405364070176207
1.3416240215301514,-0.0554509162902832,0.21623265743255615,0.26072001457214355,-21.000276565551758,-1.6104507446289062,-1.3760976791381836,-1.4485570479196253,-0.2657802197999068,-0.31050983309671487
1.357222080230713,-0.06025729328393936,0.37592077255249023,-0.011589527130126953,-19.666706085205078,-1.5270997285842896,-1.6761953830718994,-1.4717260924107065,-2.642237808361373,-2.675377102574455
1.3657450675964355,-0.1445254385471344,0.6597691774368286,-0.2055339813232422,-17.89095687866211,-1.7505143880844116,-2.1122350692749023,-1.287973815759952,-2.913898759774247,-2.93454790931013
1.3819870948791504,-0.19712401926517487,0.7910388708114624,-0.42905810475349426,-16.356473922729492,-2.001981019973755,-2.28488826751709,-1.115520359598151,-2.965604548147062,-2.969442284077047
1.3901770114898682,-0.14224573969841003,0.6842151880264282,-0.5286038517951965,-14.901525497436523,-2.083763360977173,-2.261586904525757,-0.9573905332847563,-2.9912426090614765,-2.9752510860714168
1.406728982925415,-0.08823855966329575,0.5518151521682739,-0.47823673486709595,-12.871445655822754,-2.040243625640869,-2.2510313987731934,-0.8160242944731119,-3.0087709152000635,-2.9709838549769167
1.4149229526519775,-0.13763439655303955,0.7198184132575989,-0.5252206325531006,-10.134766578674316,-1.9300299882888794,-2.327545642852783,-0.6985748637244553,-3.0210855677752884,-2.9600760195172304
1.4318628311157227,-0.15363222360610962,0.821101725101471,-0.6502412557601929,-7.286176681518555,-1.9113537073135376,-2.2912588119506836,-0.6093455275453007,-3.0304137901589505,-2.943456751061429
1.439399003982544,-0.1424453854560852,0.6474499106407166,-0.7276222109794617,-4.577282905578613,-1.9465028047561646,-2.1655170917510986,-0.5482805679347418,-3.039291681121184,-2.9245461932197423
1.445138931274414,-0.090958371758461,0.5446823835372925,-0.6169383525848389,-2.8030993938446045,-1.8978973627090454,-1.9932209253311157,-0.510236194629688,-3.0486264090276225,-2.9046555071507356
1.4517650604248047,-0.029823243618011475,0.6449374556541443,-0.42063307762145996,-2.1543288230895996,-1.624751329421997,-1.7297804355621338,-0.48441273989401673,-3.0574097171821806,-2.8859047027980296
1.4598469734191895,0.07026860862970352,0.3982281982898712,-0.10746556520462036,-2.058806896209717,-1.3152388334274292,-1.4832618236541748,-0.4622171080543307,-3.064732098775171,-2.8698484830621114
1.4670629501342773,0.04457104951143265,0.07746556401252747,0.07233035564422607,-2.079915761947632,-1.130307912826538,-1.3309646844863892,-0.44045286419688595,-3.070819501623824,-2.8560061081527532
1.4812378883361816,0.03837750107049942,-0.08887884020805359,0.16677933931350708,-1.9457426071166992,-1.0661791563034058,-1.213640570640564,-0.41939462765743735,-3.0765895173741824,-2.843482268233826
1.48638916015625,0.059077855199575424,-0.12005239725112915,0.26888227462768555,-1.753374457359314,-1.011035442352295,-1.082076072692871,-0.4001960759014293,-3.0825645183237573,-2.832241315875792
1.4936370849609375,0.091889388859272,-0.09937894344329834,0.3219883441925049,-1.4495123624801636,-0.8878928422927856,-0.923538327217102,-0.383588719253683,-3.0883357879186053,-2.8223853155558927
1.5064139366149902,0.10800009220838547,-0.08347612619400024,0.3148815631866455,-1.164745807647705,-0.6498011350631714,-0.7604039907455444,-0.37012875736813433,-3.0930302342785825,-2.8139766727308695
1.5142199993133545,0.12209315598011017,-0.09801805019378662,0.2870153784751892,-0.9784724712371826,-0.307091623544693,-0.5613853931427002,-0.35912076215932404,-3.095541132040822,-2.807433853309418
1.5202009677886963,0.11859709024429321,-0.13128098845481873,0.22656947374343872,-0.8003575801849365,-0.029548155143857002,-0.39493945240974426,-0.35004024274103435,-3.0955351146858363,-2.8028027894574965
1.5259809494018555,0.10147261619567871,-0.18074297904968262,0.17124110460281372,-0.6691781878471375,0.15777051448822021,-0.22981803119182587,-0.34257067736829633,-3.093814717592938,-2.7998625142732223
1.5339150428771973,0.10441369563341141,-0.19037052989006042,0.1706751585006714,-0.5909427404403687,0.2543604373931885,-0.08615459501743317,-0.3362429173790106,-3.0912390782808847,-2.798484204016986
1.5418601036071777,0.09828206896781921,-0.17897629737854004,0.15684926509857178,-0.5272940397262573,0.2780778408050537,0.041291188448667526,-0.33061140324073995,-3.0885723987725813,-2.798580620137943
1.5518178939819336,0.07739024609327316,-0.1525888741016388,0.11892139911651611,-0.5182480812072754,0.26405203342437744,0.10579747706651688,-0.3255128652266078,-3.0862317488734283,-2.7997048899508727
1.5624749660491943,0.04215051978826523,-0.13346534967422485,0.07836198806762695,-0.4783066213130951,0.24365989863872528,0.144142746925354,-0.3204879078090058,-3.0841585555009243,-2.8013254860692096
1.5720748901367188,0.00017165020108222961,-0.13187247514724731,0.03224915266036987,-0.3967161774635315,0.19510434567928314,0.15499192476272583,-0.31624014078860524,-3.0825202546609276,-2.8031865291550355
1.5823421478271484,-0.03195740655064583,-0.10014405846595764,-0.03606295585632324,-0.3695014715194702,0.12762592732906342,0.1349497139453888,-0.3125440861376299,-3.0814766008040113,-2.804962707582599
1.5918889045715332,-0.046175312250852585,-0.0486905574798584,-0.07198178768157959,-0.37113267183303833,0.0645737275481224,0.12455780059099197,-0.30890526756628234,-3.080997860330218,-2.8065764806549813
1.6067070960998535,-0.047990597784519196,-0.04052329063415527,-0.062383294105529785,-0.3637203574180603,0.02869713120162487,0.11297890543937683,-0.30526742363182985,-3.0810031683402346,-2.808039086775659
1.6148500442504883,-0.055573154240846634,-0.032274454832077026,-0.06916403770446777,-0.3060317635536194,-0.02545611746609211,0.09737890958786011,-0.30207581573016823,-3.0812548346742097,-2.8091050435141733
1.6323809623718262,-0.0506606362760067,0.0035154521465301514,-0.06406700611114502,-0.2784425914287567,-0.05190534517168999,0.08193709701299667,-0.29917594444881035,-3.0819978354011672,-2.810307405410148
1.6339919567108154,-0.05326210334897041,0.03058755397796631,-0.05862927436828613,-0.2529849112033844,-0.06511009484529495,0.07132759690284729,-0.2966029172009119,-3.082867933753945,-2.811259454669247
1.6566359996795654,-0.056214287877082825,0.021124929189682007,-0.0419926643371582,-0.21568873524665833,-0.07574610412120819,0.06002194806933403,-0.29427658865293305,-3.083795539050537,-2.812100898242387
1.658167839050293,-0.04658467695116997,0.02875998616218567,-0.019014298915863037,-0.21862700581550598,-0.09518983960151672,0.0327029787003994,-0.29219842838492116,-3.0848519247185484,-2.8126971717239235
1.665308952331543,-0.037911564111709595,0.04823535680770874,0.0052658915519714355,-0.24888047575950623,-0.08427846431732178,0.010144084692001343,-0.2898993322548531,-3.085873434522143,-2.813070252299163
1.676481008529663,-0.025574125349521637,0.051240384578704834,0.044767141342163086,-0.24371899664402008,-0.059713996946811676,0.0019793652463704348,-0.28740140587442453,-3.0866550598561964,-2.813278728350708
1.6852149963378906,-0.016507204622030258,0.041446954011917114,0.07355356216430664,-0.2121763974428177,-0.016616376116871834,-0.014547999948263168,-0.28512403696549893,-3.087054841462461,-2.8133437791016593
1.6923210620880127,-0.003393273800611496,0.0745580792427063,0.08546459674835205,-0.1568492203950882,0.02786773443222046,-0.016011672094464302,-0.2832327947479642,-3.0869666710721826,-2.8132795589537762
1.7073240280151367,0.0014791637659072876,0.0705990195274353,0.09310734272003174,-0.08110588043928146,0.0600242055952549,0.002039552666246891,-0.28204839255037395,-3.0865348858982498,-2.813269674466253
1.7150578498840332,0.012503404170274734,0.06827616691589355,0.11753642559051514,-0.02361489087343216,0.13381028175354004,0.02534780465066433,-0.2815436918559461,-3.0856284320503042,-2.8134258077093377
1.7222390174865723,0.030460868030786514,0.07797864079475403,0.13363224267959595,0.045483700931072235,0.20704281330108643,0.04767446964979172,-0.2816570905340285,-3.0840059614512163,-2.813805254604422
1.732205867767334,0.026019897311925888,0.06123289465904236,0.11019241809844971,0.12679825723171234,0.2648469805717468,0.0711401104927063,-0.2825698600091263,-3.081779030868531,-2.8143709197819926
1.7422330379486084,0.017100609838962555,0.055991947650909424,0.0793810486793518,0.13074906170368195,0.3094349503517151,0.08188037574291229,-0.2840234602480812,-3.0791344935372167,-2.8150876487070273
1.7566380500793457,0.015280991792678833,0.056242913007736206,0.049703896045684814,0.08784075081348419,0.3427119553089142,0.09289947152137756,-0.2852087011509624,-3.076073448296313,-2.815949066101205
1.7642149925231934,0.008968211710453033,0.04372793436050415,0.014758467674255371,0.06934114545583725,0.3186708688735962,0.08871447294950485,-0.2860067912952181,-3.072961016171613,-2.816841437411286
1.7722821235656738,-0.009056642651557922,0.008360743522644043,-0.027293682098388672,0.10699637979269028,0.24973413348197937,0.07169128209352493,-0.28695846298506555,-3.0703465797197933,-2.8176052258081548
1.7823948860168457,0.002931952476501465,0.03309863805770874,-0.03135448694229126,0.14349763095378876,0.19039508700370789,0.05622342601418495,-0.2882914457196349,-3.0683288028975304,-2.8181897568398475
1.792382001876831,0.008598223328590393,0.044077515602111816,-0.04588603973388672,0.1975691318511963,0.1368381232023239,0.049867261201143265,-0.2900504712256071,-3.0668477831607017,-2.818616206530266
1.806926965713501,0.0017532631754875183,0.033559590578079224,-0.0643695592880249,0.27461835741996765,0.0924484133720398,0.04723003879189491,-0.29244470725424304,-3.0658446291411745,-2.8189450405206373
1.814574956893921,0.003155738115310669,0.03918212652206421,-0.06368744373321533,0.36950013041496277,0.04971133545041084,0.040271200239658356,-0.2957054537295539,-3.065227142874918,-2.8191519431294574
1.82249116897583,0.002887822687625885,0.044402092695236206,-0.06501418352127075,0.48666810989379883,0.02029978483915329,0.0441049300134182,-0.29996565520035706,-3.0649437161264457,-2.819279253968381
1.832298994064331,0.004557408392429352,0.04311451315879822,-0.052153944969177246,0.7253296971321106,-0.016903508454561234,0.05598662048578262,-0.30599891584291816,-3.064904383327116,-2.8192864766440455
1.8423690795898438,0.01367909461259842,0.033514589071273804,-0.02825796604156494,1.0283689498901367,-0.044313427060842514,0.07260959595441818,-0.31479870768738744,-3.065237630035003,-2.819262634267528
1.8569231033325195,0.0317922905087471,0.04848566651344299,-0.00015681982040405273,1.3781768083572388,-0.006601204164326191,0.09787154197692871,-0.326823579579052,-3.065479654562927,-2.8191801503430454
1.8648581504821777,0.035946525633335114,0.051008790731430054,0.005216240882873535,1.8631324768066406,0.04830465465784073,0.14364467561244965,-0.3429420161365203,-3.0652740764103488,-2.8191541034828553
1.8723969459533691,0.03310765326023102,0.019325077533721924,0.012264728546142578,2.6568925380706787,0.09047767519950867,0.1774553656578064,-0.36533457761259847,-3.0645244357247234,-2.8190425606382727
1.882491111755371,0.052687183022499084,0.04434451460838318,0.03490042686462402,3.875028133392334,0.11173529177904129,0.21857377886772156,-0.39791221105421526,-3.06330616752797,-2.818448157051367
1.8923890590667725,0.06577832996845245,0.08225870132446289,0.042350947856903076,5.376468658447266,0.1981325000524521,0.279583603143692,-0.4441481259379453,-3.0612247518530236,-2.8171473495524433
1.9070549011230469,0.07876433432102203,0.11211025714874268,0.0292208194732666,6.909878730773926,0.3044840693473816,0.367398202419281,-0.5058010077746882,-3.0578229382173467,-2.8151136165668182
1.9155678749084473,0.08067765831947327,0.14436697959899902,0.03271687030792236,8.185701370239258,0.5005771517753601,0.4372585117816925,-0.5816512579958936,-3.0522961409413356,-2.81216924891225
1.931830883026123,0.06642523407936096,0.1476404070854187,0.06520634889602661,9.049520492553711,0.7130560874938965,0.47911280393600464,-0.6682939504191618,-3.0437020438993607,-2.807841689488204
1.9335789680480957,0.035867780447006226,0.07471662759780884,0.12400192022323608,9.442010879516602,0.9668854475021362,0.5096360445022583,-0.7610788550664795,-3.0312279030209925,-2.801599394773347
1.9458751678466797,0.01724223792552948,-0.00744938850402832,0.20077592134475708,9.836187362670898,1.267188549041748,0.5362366437911987,-0.85739020044316,-3.013443261516788,-2.7925372870962586
1.9525220394134521,0.009300723671913147,-0.04202723503112793,0.2868419885635376,10.348326683044434,1.473105788230896,0.5916908979415894,-0.9582661652800968,-2.988671014475774,-2.7786027037630583
1.9636750221252441,0.018633224070072174,-0.03694427013397217,0.3069019913673401,11.032746315002441,1.70936918258667,0.6350668668746948,-1.0644968157945998,-2.9535158032299726,-2.755961397205069
1.9725489616394043,0.01586027443408966,0.034045517444610596,0.2896255552768707,11.987455368041992,1.8282289505004883,0.6617943048477173,-1.1785930154559638,-2.897682870613583,-2.7137813964810493
1.9824960231781006,-0.011419177055358887,0.0979304313659668,0.2713606357574463,12.78981876373291,1.8987555503845215,0.5915518403053284,-1.2993319158156023,-2.790689315733476,-2.62058116076605
1.992522954940796,-0.013775266706943512,0.17214566469192505,0.31344449520111084,13.003461837768555,2.0908875465393066,0.541968584060669,-1.4172789330318176,-2.508975633356984,-2.353301197866167
2.006657123565674,-0.06881214678287506,0.1846035122871399,0.3828117251396179,12.780961036682129,2.392454147338867,0.593741774559021,-1.484267765411208,-1.4863032606739153,-1.3475370949526841
2.0144481658935547,-0.11574510484933853,0.09911942481994629,0.4618876576423645,12.279328346252441,2.6690404415130615,0.7456614971160889,-1.415182061983308,-0.5251860188703147,-0.40643618005744164
2.022523880004883,-0.12642629444599152,0.10511738061904907,0.5546343922615051,11.382033348083496,2.7790608406066895,0.9397817850112915,-1.3074746077975627,-0.24892546871568566,-0.1523297137451883
2.0326361656188965,-0.13874515891075134,0.16612958908081055,0.6157606244087219,9.924870491027832,3.0004937648773193,1.1723915338516235,-1.2043365518099896,-0.12691210313340565,-0.05445559325829183
2.0426249504089355,-0.1896337866783142,0.08276385068893433,0.6478514075279236,8.566184997558594,3.211008310317993,1.485825538635254,-1.1133216101339103,-0.04672997575314543,-0.0012116995885630144
2.056947946548462,-0.221156045794487,-0.08655834197998047,0.6141551733016968,7.449147701263428,3.177870988845825,1.6686222553253174,-1.0335593140152133,0.016718017467824444,0.03460445519266477
2.0649919509887695,-0.175922691822052,-0.16278696060180664,0.5519953966140747,6.700337886810303,3.0987770557403564,1.7981215715408325,-0.9622079912074767,0.07047294510470427,0.06088956844343348
2.081362009048462,-0.1650175005197525,-0.17839330434799194,0.5020766258239746,6.266073703765869,2.787839412689209,1.8225880861282349,-0.8960348275457053,0.11617366693690334,0.08116297947044812
2.0826070308685303,-0.16189703345298767,-0.16169500350952148,0.4115450382232666,6.085313320159912,2.5051801204681396,1.7129631042480469,-0.8325304702441186,0.15357671954104551,0.09545773257778105
2.0924999713897705,-0.12492197751998901,-0.145455002784729,0.3850414752960205,6.108072757720947,2.145038366317749,1.5785613059997559,-0.769673048964967,0.18311192783152744,0.1041329497222792
2.1062510013580322,-0.11344656348228455,-0.13224846124649048,0.3116469979286194,6.27537202835083,1.909562110900879,1.478518009185791,-0.7058915002759033,0.20614486266394455,0.10810759731762634
2.1134259700775146,-0.08601720631122589,-0.07190728187561035,0.2729759216308594,6.420022487640381,1.7021995782852173,1.4536259174346924,-0.6407175379196551,0.2246611501075577,0.10898012946135843
2.1225061416625977,-0.07597427070140839,0.0375974178314209,0.21404540538787842,6.467370510101318,1.570706844329834,1.5251014232635498,-0.5743864390661723,0.24072691315257577,0.10846892017952289
2.1325759887695312,-0.06535623967647552,0.15306904911994934,0.17174607515335083,6.3638176918029785,1.580846905708313,1.602885365486145,-0.5082223795959863,0.25610814392928455,0.10772352901635769
2.1425650119781494,-0.05947805941104889,0.19308117032051086,0.1378875970840454,6.016801834106445,1.4422872066497803,1.604284644126892,-0.4439815213779978,0.27091524864157507,0.10705019076369734
2.1525158882141113,-0.08565491437911987,0.1652621626853943,0.11713176965713501,5.36076021194458,1.4554309844970703,1.4902206659317017,-0.3847979894118797,0.2849991398169542,0.10626889115270426
2.1625330448150635,-0.09796738624572754,0.06755289435386658,0.1541990041732788,4.681086540222168,1.5782583951950073,1.4008607864379883,-0.33250696356727416,0.29994886828515177,0.10551103015851553
2.1729259490966797,-0.11752855777740479,-0.06593996286392212,0.14003467559814453,3.954667568206787,1.514464259147644,1.3008577823638916,-0.28718700048870327,0.31541470037891395,0.10540486825235414
2.182558059692383,-0.11329877376556396,-0.09517312049865723,0.09403347969055176,3.3484110832214355,1.5133309364318848,1.1562942266464233,-0.24869933682786546,0.33066626221849715,0.10544615229150472
2.1926231384277344,-0.0786166787147522,-0.038712278008461,0.1098901629447937,2.9696261882781982,1.4090476036071777,1.0736520290374756,-0.21522032900055132,0.34553945117589807,0.10550002811262438
2.205857992172241,-0.06055894494056702,-0.04144187271595001,0.07317739725112915,2.636087417602539,1.1051404476165771,0.8494650721549988,-0.18550936641568122,0.35791483472594093,0.10496203013834694
2.212928056716919,-0.03495270013809204,-0.009347230195999146,0.058811306953430176,2.2751946449279785,0.9663037657737732,0.6303305625915527,-0.1599304339648775,0.36789980872811984,0.10301790918908561
2.222604990005493,-0.003750830888748169,-0.0022632181644439697,0.06787794828414917,1.9083595275878906,0.8084474205970764,0.5395027995109558,-0.13829315910496578,0.37647304175902757,0.10083120459371821
2.232570171356201,0.021330296993255615,-0.005625560879707336,-0.004950225353240967,1.5829129219055176,0.7355787754058838,0.42408889532089233,-0.12031068592308536,0.3838122613959826,0.09882191680925671
2.242638111114502,0.038467854261398315,0.03563401848077774,-0.02247178554534912,1.2972733974456787,0.6142398715019226,0.3406095504760742,-0.10547631665336321,0.3904713177771884,0.09692952365323433
2.257534980773926,0.03541883826255798,0.01341770589351654,-0.03597980737686157,1.0409742593765259,0.5686976909637451,0.21986210346221924,-0.09368333127066719,0.3961224391669388,0.09503009929074964
2.262908935546875,0.028999358415603638,-0.019893042743206024,-0.03674119710922241,0.8821077346801758,0.459334135055542,0.16695836186408997,-0.08410956898688314,0.4011439624644777,0.09308628758305379
2.2725839614868164,0.016739577054977417,-0.01825892925262451,-0.04336577653884888,0.8145899176597595,0.3566088378429413,0.1039692685008049,-0.07581133904330092,0.40501173129933904,0.09102326906602418
2.284487009048462,0.01617935299873352,0.026106223464012146,-0.05249565839767456,0.7727362513542175,0.2872045040130615,0.06959568709135056,-0.06816954236980315,0.4080843024456173,0.08863660763093748
2.2928171157836914,0.024353593587875366,0.051442891359329224,-0.05370783805847168,0.6890341639518738,0.23967665433883667,0.04671727493405342,-0.06118985198805226,0.4105265657717389,0.08625134230026116
2.3069100379943848,0.016119778156280518,0.05352332815527916,-0.07024240493774414,0.5513345003128052,0.22968199849128723,8.607062045484781e-05,-0.05537638988345482,0.4127402611708377,0.08397019507250343
2.313283920288086,0.013265073299407959,0.032267652451992035,-0.07175487279891968,0.41443896293640137,0.24145103991031647,-0.04717705026268959,-0.05106748139604368,0.4149773798851714,0.08181137179457522
2.323057174682617,0.007236003875732422,0.0007051154971122742,-0.06030881404876709,0.295955091714859,0.23362314701080322,-0.0814782977104187,-0.04808044908766969,0.4172356009031703,0.07978929129617185
2.332818031311035,-0.004263728857040405,-0.017893388867378235,-0.046591222286224365,0.20579056441783905,0.22709360718727112,-0.11305113881826401,-0.046214842673937426,0.4194641651391051,0.07786838769123006
2.342916965484619,-0.005081504583358765,-0.019369564950466156,-0.038422465324401855,0.17204010486602783,0.1989605575799942,-0.10811080783605576,-0.044973678301159004,0.42152357826454506,0.0760962743921211
2.3568079471588135,-2.7805566787719727e-05,-0.0037009790539741516,-0.04260289669036865,0.19283060729503632,0.18534328043460846,-0.09771702438592911,-0.04376922332813548,0.42335498794471604,0.0744002308119738
2.365144968032837,0.00665128231048584,0.015427935868501663,-0.04309868812561035,0.23922841250896454,0.14723952114582062,-0.07148425281047821,-0.04215591897649677,0.4249370940494144,0.07274372544309729
2.382628917694092,0.0006042122840881348,0.02842671424150467,-0.04220867156982422,0.27725863456726074,0.12381463497877121,-0.05035632848739624,-0.0400348586871702,0.4262272006774465,0.0711120412248877
2.3858840465545654,-0.0059722959995269775,0.029024936258792877,-0.035096049308776855,0.2616700232028961,0.11468306183815002,-0.04359744116663933,-0.037741172438123784,0.4273776272347802,0.06956390941893402
2.3939270973205566,-0.009425848722457886,0.005021769553422928,-0.023929357528686523,0.2019534409046173,0.07353881746530533,-0.06827642768621445,-0.035833631623070336,0.4282742140705376,0.06808698882092944
2.4072329998016357,-0.015973001718521118,-0.030947096645832062,-0.007496953010559082,0.1253781020641327,0.04990237578749657,-0.09153258055448532,-0.0346771468683399,0.42884432455085,0.0666666490323352
2.415712833404541,-0.012785881757736206,-0.06969603896141052,0.01527482271194458,0.05276275426149368,0.022676613181829453,-0.07992519438266754,-0.034225994845726124,0.4291583438574985,0.06550144426068731
2.432845115661621,-0.0031984448432922363,-0.06589189171791077,0.021561801433563232,-0.008375336416065693,-0.007311202585697174,-0.06615015119314194,-0.03434342789568277,0.4292219659010125,0.06476255459140151
2.4408369064331055,-0.0007867813110351562,-0.032135557383298874,0.01782834529876709,-0.07134897261857986,-0.03922040015459061,-0.04762280732393265,-0.03493497958714325,0.4289450586525461,0.06441097996803001
2.457015037536621,-0.0008714795112609863,-0.023919809609651566,0.011821985244750977,-0.10944361239671707,-0.05203832685947418,-0.04467293247580528,-0.03596670299575424,0.4284842005523412,0.06438079663481808
2.4644670486450195,0.003013134002685547,-0.030395060777664185,0.0074860453605651855,-0.13252496719360352,-0.06707267463207245,-0.029995186254382133,-0.037224292061391835,0.4278744406546101,0.06453719930017152
2.4697799682617188,-0.00012177228927612305,-0.02758178487420082,-0.0017264485359191895,-0.15758024156093597,-0.056302182376384735,-0.0187532901763916,-0.03863872265833136,0.4272687563235325,0.06490926658795898
2.476172924041748,-0.00435444712638855,-0.013293903321027756,-0.008957982063293457,-0.1799481213092804,-0.046426646411418915,-0.015566019341349602,-0.04025175252518403,0.4266835647608968,0.06544966206044575
2.490778923034668,-0.005014628171920776,-0.013217378407716751,-0.013950347900390625,-0.1867297738790512,-0.03250696882605553,-0.018591370433568954,-0.04183977597634528,0.4262144282770924,0.06605118421711556
2.4947750568389893,-0.007896900177001953,-0.016272082924842834,-0.00783628225326538,-0.16790175437927246,-0.029607851058244705,-0.015590520575642586,-0.043171432175917936,0.42595322478029674,0.06663973065844302
2.5032689571380615,-0.015588819980621338,-0.009167958050966263,-0.0042198896408081055,-0.12894895672798157,-0.05952797830104828,-0.023247748613357544,-0.04424704864395118,0.4255904787427092,0.06707835004400739
2.514014959335327,-0.016160279512405396,-0.001934342086315155,-0.0011158585548400879,-0.12023695558309555,-0.08402293920516968,-0.034213580191135406,-0.045300017685844234,0.4249151496042335,0.06731535600790547
2.5231759548187256,-0.009873002767562866,-0.0016367137432098389,0.006200909614562988,-0.1354750394821167,-0.07583042979240417,-0.03481326997280121,-0.04643790815649856,0.4241502088036711,0.06751207579308222
2.533616065979004,-0.013415247201919556,0.001542799174785614,0.005732476711273193,-0.17022982239723206,-0.05222763121128082,-0.03259405866265297,-0.04774593079470562,0.42359386423795187,0.06783780033525262
2.5436148643493652,-0.02408507466316223,-0.005151890218257904,-0.0016678571701049805,-0.19807849824428558,-0.027368534356355667,-0.051069047302007675,-0.04937662565468114,0.4232317524538043,0.06822091133023539
2.5567760467529297,-0.02843916416168213,-0.015517111867666245,-0.004741787910461426,-0.18790122866630554,-0.004553233273327351,-0.05099048465490341,-0.05122977454586407,0.4230785690730701,0.06854073675278263
2.563927173614502,-0.02641811966896057,-0.014624249190092087,-0.00766223669052124,-0.1636965274810791,-0.007914053276181221,-0.04807980731129646,-0.052887378618031874,0.4229758480895889,0.06882184500908124
2.5733139514923096,-0.02062317728996277,-0.0014401078224182129,-0.015275299549102783,-0.14144234359264374,-0.008801419287919998,-0.04993576183915138,-0.05424681849919008,0.4228112746312126,0.06899173145124411
2.5834221839904785,-0.012866556644439697,0.009905781596899033,-0.015298426151275635,-0.12755998969078064,-0.0031859218142926693,-0.05482170358300209,-0.05550658696046509,0.4226021637316747,0.06906739146803897
2.593371868133545,-0.006396383047103882,-0.0033963583409786224,-0.016356468200683594,-0.12289920449256897,-0.012541074305772781,-0.06526635587215424,-0.05677153049120024,0.42238224328817064,0.06902928412361588
2.607029914855957,-0.006491631269454956,-0.014774378389120102,-0.01703476905822754,-0.10311179608106613,-0.017377596348524094,-0.07373174279928207,-0.05800448490396378,0.4221668168627176,0.06884932990322817
2.6159579753875732,0.0029509663581848145,-0.013146068900823593,-0.016648530960083008,-0.07578616589307785,-0.03559468314051628,-0.07569129765033722,-0.059048245928213165,0.4217950074407344,0.06852951760537053
2.6338260173797607,0.013126075267791748,-0.005539245903491974,-0.017391681671142578,-0.05291244387626648,-0.052469003945589066,-0.08456293493509293,-0.059835142604286476,0.42108167666474117,0.06804139452639163
2.6357531547546387,0.013666391372680664,0.002140425145626068,-0.012519538402557373,-0.037857864052057266,-0.04277030751109123,-0.08830520510673523,-0.06038095463528208,0.42028570516314434,0.0674158765366136
2.6441168785095215,0.014107972383499146,-0.0018329061567783356,-0.009730994701385498,-0.03319811075925827,-0.02911481261253357,-0.09094689786434174,-0.06086090180527839,0.4196300293494445,0.06671434112111511
2.658082962036133,0.0141867995262146,-0.0082864910364151,-0.010136008262634277,-0.03073015995323658,-0.013755029998719692,-0.08596652001142502,-0.061440934731325045,0.4191577010739314,0.06601663666706217
2.6665968894958496,0.011580079793930054,-0.009298227727413177,-0.00879889726638794,-0.021409345790743828,-0.012617550790309906,-0.08205236494541168,-0.06207241374765882,0.41882088365335457,0.0653447753074235
2.6820809841156006,0.015434831380844116,-0.012465164065361023,-0.0065711140632629395,0.0031127752736210823,-0.016519349068403244,-0.07192835956811905,-0.062386560722016274,0.41855137264418335,0.06466211649902243
2.6899781227111816,0.021879494190216064,-0.00731237605214119,-2.9981136322021484e-05,0.02673962526023388,-0.027673421427607536,-0.0633050948381424,-0.062345387021134645,0.4181928904707948,0.06397229202034552
2.696213960647583,0.021736472845077515,-0.0009033679962158203,-0.0008211135864257812,0.020087581127882004,-0.03420748934149742,-0.0625772550702095,-0.06222276590605126,0.4178277185196848,0.06330074515963596
2.706382989883423,0.024719446897506714,-0.010427787899971008,-0.003422379493713379,-0.005581047385931015,-0.02684895135462284,-0.05452502891421318,-0.062302141895951825,0.41757076799319875,0.06272544335383357
2.714184045791626,0.025356411933898926,-0.027196019887924194,-0.004742622375488281,-0.040962740778923035,-0.015000548213720322,-0.044503554701805115,-0.06271375625231096,0.41741921475705307,0.06237684963931395
2.723446846008301,0.022177398204803467,-0.031122200191020966,-0.00864952802658081,-0.06435922533273697,-0.0063813598826527596,-0.029086515307426453,-0.0633299930954748,0.41740868561962247,0.06226388446490648
2.733497142791748,0.0184878408908844,-0.03589945286512375,-0.012927055358886719,-0.06658563017845154,-0.012029924429953098,-0.015974707901477814,-0.06395814343839352,0.4174063683454097,0.062336697641437185
2.743515968322754,0.0186498761177063,-0.03465936332941055,-0.014727354049682617,-0.026777928695082664,-0.046135254204273224,-0.006742487195879221,-0.06439742159864188,0.41719108192480875,0.06245705180952769
2.757099151611328,0.021481961011886597,-0.02202773094177246,-0.01094353199005127,-0.01369621604681015,-0.07144620269536972,-0.010256528854370117,-0.06452239652197522,0.4166828725816588,0.06244256854515019
2.7646288871765137,0.02613675594329834,-0.014969274401664734,-0.0015110969543457031,-0.027171295136213303,-0.08399505913257599,-0.004519120790064335,-0.06466639695290924,0.41605072879316923,0.06247479560548314
2.7735140323638916,0.025428682565689087,-0.017729416489601135,0.004912376403808594,-0.060037098824977875,-0.08614982664585114,-0.003284479258581996,-0.06506224133318393,0.41535010196018707,0.06262500466472988
2.7834129333496094,0.014802902936935425,-0.02556712180376053,0.010990321636199951,-0.08165951818227768,-0.07883336395025253,-0.004013013560324907,-0.06563800699009795,0.4147212286008913,0.06288625197343053
2.793665885925293,0.010074377059936523,-0.028518475592136383,0.015330374240875244,-0.0979924201965332,-0.0717586800456047,0.0007758826250210404,-0.06621022979567721,0.4142013723898606,0.06326330323930614
2.807082176208496,0.001739799976348877,-0.03027266263961792,0.016099750995635986,-0.10048432648181915,-0.05385642498731613,0.01053311862051487,-0.0668213518055547,0.4137885595848927,0.06373052247782968
2.814754009246826,-0.0055276453495025635,-0.028295859694480896,0.02015507221221924,-0.07396935671567917,-0.03842340409755707,0.022913355380296707,-0.06724111287147401,0.4135049202190778,0.0642524393186649
2.823697090148926,-0.012693613767623901,-0.02423267811536789,0.019506096839904785,-0.031676046550273895,-0.025343865156173706,0.03947347775101662,-0.06728265154906757,0.4133663715484344,0.06477211040950089
2.8337531089782715,-0.016462594270706177,-0.012483157217502594,0.020364761352539062,-0.009180592373013496,-0.024241048842668533,0.03798982873558998,-0.0670835824262577,0.41331047779600366,0.06521447202106752
2.8435521125793457,-0.017591089010238647,-0.006433643400669098,0.02240622043609619,-0.015774063766002655,-0.002856799401342869,0.02500436268746853,-0.06690829891508934,0.4134214722890483,0.06557253526312756
2.857020854949951,-0.020235002040863037,-0.010217487812042236,0.025707781314849854,-0.03444521874189377,0.019103892147541046,0.02399129793047905,-0.06687739787375152,0.41379254947654476,0.06591742381560371
2.8657288551330566,-0.024702608585357666,-0.015383601188659668,0.02155017852783203,-0.05922991409897804,0.031099170446395874,0.008970162831246853,-0.0670236970506979,0.41424434717145836,0.06627862090879816
2.8826730251312256,-0.023493856191635132,-0.01049555093050003,0.016522765159606934,-0.052685193717479706,0.03419110178947449,0.0011042504338547587,-0.06730901636788061,0.41475041175551997,0.06656879041615361
2.8844900131225586,-0.016315370798110962,-0.0005124509334564209,0.012469232082366943,-0.027213240042328835,0.027981363236904144,-0.007763543166220188,-0.0674580894647304,0.41513170314019127,0.06670579100763051
2.907047986984253,-0.012497872114181519,0.015754565596580505,0.004534482955932617,-0.0003046597121283412,0.01922835223376751,-0.015797767788171768,-0.06744164721951731,0.4153621347254624,0.06665377915669612
2.908663034439087,-0.01099860668182373,0.029347896575927734,-0.0013008713722229004,0.006463764235377312,0.021482806652784348,-0.027026932686567307,-0.06735213491827233,0.4155056351707282,0.0664326481720334
2.9165940284729004,-0.01359248161315918,0.028707846999168396,-0.0045111775398254395,-0.00460193632170558,0.040714558213949203,-0.032914381474256516,-0.06739718778623227,0.4157408756325175,0.06614122197434567
2.933040142059326,-0.018240660429000854,0.02433573454618454,-0.009843766689300537,-0.00660987664014101,0.04557469114661217,-0.04343109950423241,-0.06758883075255318,0.4161080978478062,0.0658208236638871
2.940998077392578,-0.019375115633010864,0.02389521896839142,-0.0158233642578125,0.002253922400996089,0.04293789714574814,-0.050633884966373444,-0.06777035963533967,0.4164538244223099,0.06538236071495106
2.9574790000915527,-0.01672765612602234,0.025234371423721313,-0.018714487552642822,0.010711356066167355,0.023176975548267365,-0.05750957876443863,-0.06785046442349758,0.41664845456677246,0.06485152285781134
2.9654030799865723,-0.013538628816604614,0.02665451169013977,-0.021424949169158936,0.006705163046717644,0.005617689806967974,-0.07068263739347458,-0.06795644667131788,0.41661829850083215,0.06421327763495295
2.971284866333008,-0.012294352054595947,0.02751585841178894,-0.022708475589752197,-0.006557096261531115,0.0004022885113954544,-0.08374156057834625,-0.06825546110268739,0.4165010960679974,0.06349574936475219
2.976900100708008,-0.01154470443725586,0.023348800837993622,-0.022814035415649414,-0.024115582928061485,-0.013275174424052238,-0.09961346536874771,-0.06889926188865332,0.4162843981759472,0.06271882958138861
2.986063003540039,-0.014232784509658813,0.019361570477485657,-0.025123238563537598,-0.02618539147078991,-0.027024809271097183,-0.11343154311180115,-0.06979108419250801,0.41592992066865603,0.0618370750775175
2.9941091537475586,-0.015033960342407227,0.01568634808063507,-0.024516940116882324,-0.014406496658921242,-0.05191924050450325,-0.11953364312648773,-0.0706608436277331,0.41534673276330647,0.060834666372923216
3.006458044052124,-0.014539837837219238,0.020251251757144928,-0.025619864463806152,-0.006927808281034231,-0.06929636746644974,-0.12539659440517426,-0.07140787867931153,0.41447783307001473,0.05974431347019887
3.0172581672668457,-0.013091862201690674,0.027468755841255188,-0.02453792095184326,-0.01391221396625042,-0.07382506877183914,-0.12718969583511353,-0.07215738963691883,0.41348398228689903,0.0586162207847773
3.031790018081665,-0.015612095594406128,0.0199180468916893,-0.020929038524627686,-0.01963508129119873,-0.06320678442716599,-0.1271342933177948,-0.07298113484933244,0.41252746530778966,0.05750748083284112
3.0399560928344727,-0.020554423332214355,0.012391775846481323,-0.020043790340423584,-0.011389851570129395,-0.06581760942935944,-0.11928011476993561,-0.07378044604190674,0.4116665244815845,0.05642090691537063
3.0445239543914795,-0.020574361085891724,0.009091585874557495,-0.018155992031097412,0.009659474715590477,-0.06958553940057755,-0.11154879629611969,-0.07439678105858043,0.4108068964155915,0.0553569052157953
3.0539679527282715,-0.015204250812530518,0.01256842166185379,-0.01928609609603882,0.043893344700336456,-0.0843421146273613,-0.09308004379272461,-0.07465906687904848,0.40988205621475166,0.05429919968553953
3.064210891723633,-0.005643904209136963,0.014617547392845154,-0.019240260124206543,0.06412148475646973,-0.09172511100769043,-0.08427222073078156,-0.07457810436022518,0.4088194889283878,0.0532650974235926
3.0740649700164795,0.0008458495140075684,0.010209798812866211,-0.013331472873687744,0.07427691668272018,-0.09940779954195023,-0.06574834138154984,-0.07428533403972044,0.40770454290317837,0.05229041206616797
3.0838499069213867,0.004705607891082764,0.007078491151332855,-0.006985843181610107,0.06824726611375809,-0.10851363092660904,-0.06106745824217796,-0.0739366820530001,0.40649443808855484,0.05142235612784172
3.0940871238708496,0.00440293550491333,0.001134239137172699,-0.005903482437133789,0.043135255575180054,-0.10626645386219025,-0.05181936174631119,-0.07376168185842932,0.40528709337208113,0.05067739172421129
3.107754945755005,0.007087588310241699,-0.006916247308254242,-0.002218484878540039,0.020541084930300713,-0.1045294925570488,-0.038713205605745316,-0.07374021014127237,0.4041055986135651,0.050122268143599755
3.118267059326172,0.00606006383895874,-0.009290993213653564,-0.0011364221572875977,0.0014147935435175896,-0.11119218915700912,-0.033108316361904144,-0.07384168049049807,0.4028833537306703,0.049728084147473296
3.1340441703796387,0.007621169090270996,-0.006583459675312042,0.0012777447700500488,-0.01592729426920414,-0.11167294532060623,-0.030101871117949486,-0.07407973092968485,0.4016219940866124,0.04945547047401556
3.136415958404541,0.008274108171463013,-0.005261033773422241,0.007623791694641113,-0.023022489622235298,-0.10668590664863586,-0.025995010510087013,-0.07445206596075818,0.4004240147849234,0.049270571229167566
3.145416021347046,0.005535036325454712,-0.003937527537345886,0.015255570411682129,-0.022662395611405373,-0.11076702177524567,-0.030199343338608742,-0.07486922772159552,0.39928282017376665,0.04910643755512965
3.1573660373687744,0.0021830201148986816,0.0009208768606185913,0.02086097002029419,-0.01729665882885456,-0.11060962826013565,-0.03764980286359787,-0.07524564251960592,0.3981768914108191,0.048869215332775696
3.165497064590454,-1.3023614883422852e-05,0.004795044660568237,0.021428346633911133,-0.016445212066173553,-0.1024467721581459,-0.042788319289684296,-0.07559916879204473,0.39715772947956063,0.04856810789437261
3.182705879211426,-0.0031756460666656494,0.0053109899163246155,0.024550318717956543,-0.019406648352742195,-0.08955787122249603,-0.04728586599230766,-0.07592338063752323,0.39624335280085643,0.048232199924537915
3.1908679008483887,-0.008124053478240967,0.00782947987318039,0.02859318256378174,-0.022786550223827362,-0.0705772116780281,-0.050942279398441315,-0.0762439488299371,0.3955121624297186,0.04786055960174616
3.2073311805725098,-0.011214613914489746,0.008673429489135742,0.029884934425354004,-0.008837977424263954,-0.04677840694785118,-0.05074440687894821,-0.07651469036151394,0.39499917725892214,0.047460660142114315
3.2153820991516113,-0.015301227569580078,0.0064012110233306885,0.030065536499023438,0.021399004384875298,-0.04078349471092224,-0.05041033774614334,-0.0765898588813674,0.3946338649136516,0.04699148776198186
3.2322909832000732,-0.019995898008346558,0.013817079365253448,0.030705809593200684,0.05419769883155823,-0.032197464257478714,-0.052892670035362244,-0.07637550747136716,0.3943563220573142,0.04636533443754229
3.241279125213623,-0.020298629999160767,0.022101789712905884,0.02904188632965088,0.06730891764163971,-0.024395069107413292,-0.058434922248125076,-0.07599374493085145,0.39410950931471067,0.0456242175527793
3.2571489810943604,-0.016442924737930298,0.0237438902258873,0.023895442485809326,0.053397368639707565,-0.009743424132466316,-0.07138533890247345,-0.07567825289618169,0.3939390033849911,0.04478899371604835
3.2646219730377197,-0.0129469633102417,0.019208364188671112,0.02056419849395752,0.02910439297556877,0.0011467309668660164,-0.08099940419197083,-0.07560541623973661,0.39388515474537666,0.0439226492231183
3.2702579498291016,-0.010759145021438599,0.009466499090194702,0.016836822032928467,0.009020165540277958,0.009726369753479958,-0.09038198739290237,-0.0757958214141588,0.39390140239384,0.04304966594492717
3.2759408950805664,-0.0071623921394348145,0.005095645785331726,0.01563441753387451,0.00016234209761023521,0.006534705404192209,-0.0886109322309494,-0.07613934750411283,0.39395012452046196,0.042203969609827426
3.283010959625244,-0.0045837461948394775,0.005026988685131073,0.01303863525390625,0.0037541475612670183,0.0005601700395345688,-0.08780346810817719,-0.07649897125149281,0.3939284744899644,0.04137313260452193
3.290440082550049,-0.0006347894668579102,0.010671086609363556,0.007935643196105957,0.0041247764602303505,-0.010846992954611778,-0.08009862154722214,-0.07680670361592447,0.3938090669757099,0.04057289418208334
3.2958970069885254,0.0037893056869506836,0.010010667145252228,0.003663361072540283,-0.0021235321182757616,-0.010544456541538239,-0.07743146270513535,-0.07716299847691659,0.3936226624445217,0.03983184396278768
3.306717872619629,0.005084812641143799,0.004883535206317902,0.0011890530586242676,-0.00323838135227561,-0.012280616909265518,-0.06578721851110458,-0.07754579063371497,0.3934377442893202,0.03917184187813412
3.3141520023345947,0.004566371440887451,0.001976422965526581,-0.0011899471282958984,0.005764967296272516,-0.019430670887231827,-0.05818735808134079,-0.07785985820451219,0.3932155213787318,0.03860037234638467
3.3241569995880127,0.004719078540802002,0.001227542757987976,-0.0004405379295349121,0.022505631670355797,-0.03080405294895172,-0.04778265208005905,-0.07799880850695712,0.39290506867628455,0.03805739857990285
3.334290027618408,0.004303544759750366,0.004004932940006256,0.00198209285736084,0.03377746045589447,-0.034388937056064606,-0.038591280579566956,-0.077937295150672,0.39252591909874257,0.037542988039645044
3.3443000316619873,0.0041007399559021,0.008219830691814423,0.001744389533996582,0.024841822683811188,-0.037555258721113205,-0.034502215683460236,-0.07782667789262301,0.3921296219898213,0.03708804524175884
3.3569159507751465,0.0019750893115997314,0.004938378930091858,0.0033371448516845703,0.004082748666405678,-0.02736493945121765,-0.0357443131506443,-0.07785809467041603,0.39178791003016344,0.036713517864678295
3.364748954772949,-0.002803325653076172,-0.0028422102332115173,0.009289979934692383,-0.0060056885704398155,-0.016284899786114693,-0.030982844531536102,-0.07807097982927895,0.39158216752644304,0.03641334238894787
3.3742260932922363,-0.007734864950180054,-0.006041727960109711,0.010985732078552246,-0.0036314805038273335,-0.02536255121231079,-0.03158418834209442,-0.07831102421959638,0.39141097491374677,0.03614854340183218
3.384492874145508,-0.005368292331695557,-0.0010263323783874512,0.008732795715332031,0.00253804842941463,-0.03114236891269684,-0.03470898047089577,-0.07846884446455743,0.3911661462441724,0.035851652518212124
3.3942809104919434,0.0002683699131011963,0.004229910671710968,0.009635984897613525,-0.0051587531343102455,-0.03212267532944679,-0.0338146910071373,-0.07861466040052502,0.39084959290800503,0.03554060319773653
3.4071531295776367,-0.0016542375087738037,0.0019367635250091553,0.011298179626464844,-0.023211190477013588,-0.02936825528740883,-0.03518563136458397,-0.0788792088461773,0.3905602711086331,0.035272378274525694
3.4153008460998535,-0.007388085126876831,-0.0036211535334587097,0.012166917324066162,-0.033605508506298065,-0.024614248424768448,-0.03417336568236351,-0.07929621423727529,0.3903218290307012,0.035064734881881644
3.4320850372314453,-0.007021009922027588,-0.007922105491161346,0.011407196521759033,-0.03296157345175743,-0.019309543073177338,-0.02793128974735737,-0.07978401756218712,0.39013827056410594,0.03491273620842105
3.4402928352355957,-0.006250649690628052,-0.008041337132453918,0.011357545852661133,-0.01838715746998787,-0.021030742675065994,-0.01758251152932644,-0.08013324468742102,0.38995967758354616,0.034810088947515895
3.4569740295410156,-0.004533290863037109,-0.0014530420303344727,0.01012331247329712,0.006463548168540001,-0.02443297579884529,-0.0126291923224926,-0.08021330465132451,0.3897380944253518,0.034694411470454045
3.458649158477783,-0.002086043357849121,0.006667755544185638,0.009939312934875488,0.01190651673823595,-0.021971415728330612,-0.008890646509826183,-0.08010301057136746,0.3894798787553967,0.03455806091219861
3.466370105743408,-0.002413123846054077,0.007029332220554352,0.00911647081375122,-0.006375618278980255,-0.00796017050743103,-0.0074885450303554535,-0.08007704668605575,0.3893207602644799,0.03446706373301472
3.482113838195801,-0.005144476890563965,0.0007633417844772339,0.010310113430023193,-0.025998588651418686,-0.00301175145432353,-0.012056665495038033,-0.08028596253418831,0.3893110989274126,0.03444452864030218
3.490288019180298,-0.0046419501304626465,-0.009608015418052673,0.01227569580078125,-0.03949993476271629,0.0019457682501524687,-0.019012361764907837,-0.08066404756025482,0.3893247524396541,0.03442519003982524
3.5072720050811768,-0.004563480615615845,-0.014676257967948914,0.015673518180847168,-0.03828979283571243,-4.730653017759323e-06,-0.01789117231965065,-0.08107971249448959,0.3893362071414345,0.034401607744633016
3.514860153198242,-0.0023345351219177246,-0.012488283216953278,0.01415318250656128,-0.02849523536860943,-0.003566308878362179,-0.021028002724051476,-0.08141052306965602,0.3892963447140898,0.034345577745889096
3.5211739540100098,0.003167480230331421,-0.004690691828727722,0.008715569972991943,-0.014129610732197762,-0.005695240572094917,-0.014888351783156395,-0.08162451041859452,0.3892277347595367,0.03426040309413546
3.5273120403289795,0.00422292947769165,-0.003432951867580414,0.006836652755737305,-0.0046802666038274765,-0.01133008860051632,-0.011114918626844883,-0.08174045315135273,0.389129538429904,0.034174028969942497
3.5354390144348145,0.005563080310821533,-0.00639333575963974,0.00545346736907959,0.003267937572672963,-0.013853168115019798,-0.006034939084202051,-0.08181717834437918,0.38901913208281474,0.034102799854031196
3.5444560050964355,0.006343960762023926,-0.005881406366825104,0.006790637969970703,0.003188442438840866,-0.016213884577155113,-0.0037527161184698343,-0.08183938119317483,0.38886807732576356,0.034058881274588074
3.5563910007476807,0.003376781940460205,-0.008813664317131042,0.006169736385345459,-0.00818858202546835,-0.010518182069063187,0.0003368338802829385,-0.08187258502585447,0.38872784228973156,0.03404601667444
3.564298152923584,-2.8312206268310547e-05,-0.01595168560743332,0.005845308303833008,-0.017130710184574127,-0.008276065811514854,0.007270320784300566,-0.08191540368675723,0.38864910014893816,0.03413566915461756
3.574424982070923,-0.0024977028369903564,-0.016262471675872803,0.004857540130615234,-0.017545897513628006,-0.0039987629279494286,0.014834498055279255,-0.08195165635807347,0.38863108114859635,0.03431217462192884
3.584498882293701,-0.0025136172771453857,-0.015591442584991455,0.004455626010894775,-0.008888676762580872,-0.0018388950265944004,0.02415444329380989,-0.08193670067794105,0.38864779583282066,0.03454406024222961
3.5944361686706543,-0.0026727020740509033,-0.015430621802806854,0.007505178451538086,0.004268936812877655,0.0006333175115287304,0.034228645265102386,-0.08182127533023933,0.3887171576164162,0.03482852118605761
3.607597827911377,-0.004669845104217529,-0.010517366230487823,0.009006023406982422,0.02044154703617096,0.007313590496778488,0.040495119988918304,-0.0815457747262971,0.38883837498405865,0.03513140347772922
3.6157379150390625,-0.006881684064865112,-0.004154413938522339,0.004463493824005127,0.025216061621904373,0.008559150621294975,0.03974916785955429,-0.08113237961084557,0.38898926944667944,0.03541743078951942
3.632162094116211,-0.006571471691131592,-0.004397153854370117,0.00645214319229126,0.015723375603556633,0.013004811480641365,0.03426150977611542,-0.08076356559047346,0.3891700881203076,0.035681811612579425
3.6402969360351562,-0.0075279176235198975,-0.007568001747131348,0.008308470249176025,0.010309968143701553,0.019635550677776337,0.0340346097946167,-0.08046970933270389,0.3894032559336126,0.035952462592598274
3.657071113586426,-0.007358640432357788,-0.006650425493717194,0.006907999515533447,0.010934262536466122,0.024549923837184906,0.030875729396939278,-0.08016149373290671,0.38965632373999826,0.03622442114588209
3.6586339473724365,-0.0108412504196167,-0.004677832126617432,0.00603330135345459,0.021504882723093033,0.020279545336961746,0.027193907648324966,-0.07982048958419799,0.38989719639102327,0.03642414503693267
3.6659188270568848,-0.01066511869430542,0.000535815954208374,0.005650520324707031,0.02660367079079151,0.016697948798537254,0.015229283832013607,-0.07942738048094672,0.3900574037620934,0.03652708268073816
3.6820101737976074,-0.008636295795440674,0.002117261290550232,0.0044386982917785645,0.017168622463941574,0.02473536878824234,0.014783204533159733,-0.07908080569471967,0.3902618742741702,0.036574514327404425
3.6897130012512207,-0.008337527513504028,0.002577275037765503,0.0019812583923339844,0.011538534425199032,0.025897573679685593,0.015579381957650185,-0.0788489581787457,0.3905095766638624,0.03666285734288237
3.695463180541992,-0.008720874786376953,0.0036954879760742188,-0.0049746036529541016,0.019409239292144775,0.020611198619008064,0.012514883652329445,-0.07864563892179131,0.3907036307827215,0.03673057794622453
3.706002950668335,-0.005720794200897217,0.002787955105304718,-0.009096264839172363,0.03488532081246376,0.014861655421555042,0.016450555995106697,-0.07833150647185745,0.39084884517884055,0.03676184846836916
3.7144689559936523,-0.005291551351547241,0.006579391658306122,-0.011518716812133789,0.046817880123853683,0.006622367538511753,0.018661778420209885,-0.07784976214377978,0.39093045667404525,0.036762780115449485
