timestamp,accel_x,accel_y,accel_z,rotation_x,rotation_y,rotation_z, pitch,roll,yaw
0.04251575469970703,-0.00681556761264801,0.008155867457389832,0.010853946208953857,0.0036139891017228365,0.012222057208418846,0.01474895142018795,0.1323978694848618,0.08045108344625136,-0.005336436598343823
0.05190277099609375,-0.006320342421531677,0.0051877498626708984,0.00725710391998291,-0.0004575178027153015,0.012048685923218727,0.013431111350655556,0.13242066962780996,0.08055239212179131,-0.00519780055290318
0.05877399444580078,-0.00771842896938324,0.00793437659740448,0.0069016218185424805,-0.0012822988210245967,0.0009875125251710415,0.009080571122467518,0.1324207232071111,0.08060838701779857,-0.005066466110852766
0.06624269485473633,-0.00573788583278656,0.014554336667060852,0.006631970405578613,-0.0034691202454268932,-0.009855104610323906,0.003270033746957779,0.1324183505923934,0.08054972776354026,-0.004992978107766542
0.07259583473205566,-0.002535291016101837,0.013928353786468506,0.004438161849975586,-0.012694843113422394,-0.008813807740807533,-0.0015665329992771149,0.13234101185942973,0.08044256035332605,-0.004977690150493081
0.08265399932861328,-0.005372397601604462,0.010160639882087708,-0.0012586712837219238,-0.016045749187469482,-0.0044654435478150845,-0.002805169206112623,0.13218828805030905,0.08037811418156651,-0.004987161253506235
0.09267997741699219,-0.009696997702121735,0.007939741015434265,-0.0046874284744262695,-0.005879131145775318,-0.00853981263935566,-0.002248035743832588,0.13207209216269133,0.08032154055164006,-0.004999636518449444
0.10265684127807617,-0.011189773678779602,0.007970258593559265,-0.001758873462677002,-0.0008956911042332649,-0.01741710677742958,-0.0009256699704565108,0.13204130857001123,0.08019505523295363,-0.005016899327519309
0.11264991760253906,-0.009601011872291565,0.00961214303970337,0.004744589328765869,-0.006340257823467255,-0.017012037336826324,-0.0018995879217982292,0.1320044067970663,0.08002292019468453,-0.005024649410154757
0.1226809024810791,-0.008880749344825745,0.003419354557991028,0.005990445613861084,-0.014835475012660027,-0.010922455228865147,0.0012594535946846008,0.13189896002944917,0.07987968628630343,-0.005023213598281926
0.13272571563720703,-0.009932301938533783,-0.0037795156240463257,0.003469526767730713,-0.012952087447047234,-0.009702194482088089,0.00459586177021265,0.1317483426531715,0.07978411960731627,-0.004980756179586103
0.14263582229614258,-0.010451942682266235,-0.0019139349460601807,0.0028383731842041016,-0.006185728125274181,-0.02270108461380005,0.004957892000675201,0.13166002471948043,0.07961418470993649,-0.004926392060212368
0.15267586708068848,-0.004961669445037842,0.002498835325241089,0.008846759796142578,-0.007307983934879303,-0.022378839552402496,0.005100904032588005,0.13160145930401174,0.07936944667931549,-0.004870441854928152
0.16269588470458984,-0.0028407275676727295,0.0002775639295578003,0.0076378583908081055,-0.0116659477353096,-0.014805610291659832,0.007756927981972694,0.13151568075606254,0.07916784509688074,-0.004791700979591755
0.17275786399841309,-0.00776740163564682,-0.0020423531532287598,0.002810835838317871,-0.009803865104913712,-0.011697168461978436,0.009125792421400547,0.13140736067384207,0.07902581322263288,-0.004698482634068438
0.18294191360473633,-0.01155061274766922,-0.001208961009979248,0.005774378776550293,-0.004547500982880592,-0.010777268558740616,0.009465292096138,0.13133989526598527,0.07890061017814352,-0.004599487658827346
0.19299697875976562,-0.010650739073753357,0.0006695091724395752,0.009201347827911377,0.001097601605579257,-0.004194200504571199,0.010661317966878414,0.13132615478297946,0.07880823197961118,-0.004497937568184751
0.20283794403076172,-0.01068287342786789,0.0034337639808654785,0.006651461124420166,0.0035126893781125546,0.003652093932032585,0.01045316457748413,0.13131321036049384,0.07865534197384629,-0.004375661780652634
0.21302175521850586,-0.010960236191749573,0.0027211904525756836,0.0030971765518188477,0.009901346638798714,0.001651793485507369,0.013828455470502377,0.13150253687802635,0.07852109517280986,-0.004227972577539013
0.22295284271240234,-0.009543009102344513,0.003141075372695923,0.004552900791168213,0.009569716639816761,-0.004219943657517433,0.005834338255226612,0.13167981026540906,0.0783395326302565,-0.004125010292427115
0.2330789566040039,-0.008670777082443237,0.003135859966278076,0.009062707424163818,-0.0016368655487895012,-0.006947021000087261,0.006871107034385204,0.13168994065901163,0.0782136135342755,-0.004057127527922267
0.24281597137451172,-0.0053166672587394714,0.005102798342704773,0.006524503231048584,-0.008011557161808014,-0.0016218973323702812,0.0021136892028152943,0.13165770025151333,0.07813894319061346,-0.0040061432841774335
0.2528378963470459,-0.007906362414360046,0.0012049078941345215,0.001791834831237793,-0.004584602080285549,-0.002488756086677313,0.002161093521863222,0.1316353425577549,0.07801085088588462,-0.003973904023581005
0.2628138065338135,-0.010866411030292511,0.005407541990280151,0.0011639595031738281,0.003250317880883813,-0.009371962398290634,0.0024107382632791996,0.1316726475888439,0.07777948989354434,-0.003926065960685234
0.2728428840637207,-0.007042065262794495,0.01218937337398529,0.0024238228797912598,0.010118343867361546,-0.009100586175918579,0.0024959594011306763,0.13175660001038605,0.07752357692645402,-0.0038831511744063635
0.2829558849334717,-0.006185770034790039,0.009377837181091309,0.0023422837257385254,0.009836015291512012,-0.0016765808686614037,0.0012315437197685242,0.1317988105049743,0.07732147842895397,-0.003858741405035727
0.29288196563720703,-0.010282829403877258,0.005349844694137573,-0.001252591609954834,0.010114848613739014,-0.0003979974426329136,0.0038928408175706863,0.13184533289228104,0.07715993907028279,-0.0038129892132753493
0.30294084548950195,-0.00976574420928955,0.006692349910736084,0.002033710479736328,0.009532597847282887,-0.006421401631087065,0.0036347804125398397,0.13189122734507902,0.0770077487973561,-0.003756876227150937
0.31281375885009766,-0.006145350635051727,0.005374506115913391,0.004287004470825195,0.003711727214977145,-0.014605563133955002,0.001811580266803503,0.13193176417697286,0.07680335975454539,-0.0037142937855067747
0.3228738307952881,-0.004851862788200378,0.0013306140899658203,0.00677722692489624,-0.010682575404644012,-0.02061520703136921,0.0009491955861449242,0.13180832707911164,0.07657409771203738,-0.0036774083122657454
0.333223819732666,-0.00042375922203063965,0.0018440932035446167,0.007005751132965088,-0.019313346594572067,-0.01856457255780697,-0.0016058412147685885,0.13163363958164595,0.07627592795214792,-0.003649666509701551
0.34300899505615234,-0.0015403926372528076,-0.0001402050256729126,0.005685210227966309,-0.023231739178299904,-0.022493312135338783,-0.0007442552596330643,0.13130975581857562,0.07593583320276197,-0.0036326399855897114
0.35304689407348633,-0.004333719611167908,0.00164090096950531,0.007871925830841064,-0.01845589280128479,-0.02193804457783699,0.0003106228541582823,0.13085922323090038,0.07563903910365131,-0.0036108707823181182
0.36341190338134766,-0.004907488822937012,0.00600828230381012,0.011242926120758057,-0.011296284385025501,-0.017363442108035088,-0.00018685555551201105,0.13055481166169483,0.07536748945661552,-0.003585860909288893
0.37363576889038086,-0.011046230792999268,0.005630999803543091,0.01570725440979004,-0.007487431168556213,0.00044697942212224007,0.0009657605551183224,0.1303743630885077,0.07515440220780202,-0.0035647788852803484
0.3834547996520996,-0.017749980092048645,0.0043588727712631226,0.01635044813156128,0.0016519054770469666,0.019293637946248055,0.001825002720579505,0.13024555181521513,0.07514290696095281,-0.0035365771652483328
0.39315176010131836,-0.022231251001358032,0.007490381598472595,0.013508498668670654,0.017161889001727104,0.0308136735111475,0.00034375255927443504,0.13027981471467212,0.07533899388049535,-0.0035325560123526446
0.40336084365844727,-0.02158927172422409,0.01131640374660492,0.014079511165618896,0.026842579245567322,0.03759026527404785,-0.006555059924721718,0.13052208383271077,0.07564894515988815,-0.0035901288495837243
0.41335296630859375,-0.019509650766849518,0.012816518545150757,0.011904895305633545,0.029450614005327225,0.04245053231716156,-0.011969799175858498,0.13080387573496619,0.07607943899491618,-0.003703288333616192
0.42404794692993164,-0.016572244465351105,0.011347830295562744,0.006402015686035156,0.028974805027246475,0.03554415702819824,-0.019925832748413086,0.1311078249277807,0.07649145440457514,-0.003877722710245045
0.4333677291870117,-0.01298753172159195,0.00946471095085144,0.001515507698059082,0.023748619481921196,0.02408990077674389,-0.02073117345571518,0.13133234971589616,0.07675726476190357,-0.004102749413580801
0.4431798458099365,-0.007890567183494568,0.011959388852119446,-0.0040125250816345215,0.012878992594778538,0.010456292890012264,-0.027743754908442497,0.13140147583443287,0.07689636421210451,-0.004353596777698042
0.4533088207244873,-0.003989428281784058,0.010221526026725769,-0.00793999433517456,0.0037496774457395077,-0.002458972856402397,-0.028768006712198257,0.131372350142573,0.07682405197087222,-0.004628219607716257
0.4631776809692383,-0.002158038318157196,0.007551401853561401,-0.006506085395812988,-0.0025941720232367516,-0.011252377182245255,-0.02823244407773018,0.13129553895341553,0.07656050888143434,-0.004884703522012967
0.4733738899230957,-0.0022054165601730347,0.006396859884262085,-0.0044525861740112305,-0.00721875112503767,-0.01712810806930065,-0.029192248359322548,0.1311006442727901,0.07617426771872603,-0.005132263513719833
0.4837207794189453,-0.002620026469230652,0.0038679391145706177,-0.004231095314025879,-0.009726516902446747,-0.018714554607868195,-0.026641258969902992,0.1308122949571598,0.07575727784043552,-0.005371420292705692
0.49329566955566406,-0.0004931986331939697,0.001069098711013794,-0.0068634748458862305,-0.006519271992146969,-0.02157478965818882,-0.02055247500538826,0.13051334419053442,0.07536253440666643,-0.005571461065979117
0.5036368370056152,0.0016907602548599243,0.0015300959348678589,-0.008693873882293701,-0.005119631066918373,-0.028999194502830505,-0.01856176182627678,0.1302703746383609,0.07495689612591633,-0.005736961933906876
0.5135447978973389,0.005929417908191681,-7.94827938079834e-05,-0.005600631237030029,-0.004543323069810867,-0.03460061922669411,-0.011619966477155685,0.13007824024574893,0.07452623869040874,-0.005858204370585519
0.5233969688415527,0.00896625965833664,-0.003395646810531616,0.0004634261131286621,-0.013289992697536945,-0.036189593374729156,-0.007593746297061443,0.12979619180489996,0.07410650896688134,-0.005942351401492714
0.5334508419036865,0.009441889822483063,-0.008155182003974915,0.004379928112030029,-0.019049610942602158,-0.042207539081573486,-0.001839720061980188,0.12947426931510583,0.07369958238281558,-0.00597420267663831
0.5433917045593262,0.010320395231246948,-0.00954960286617279,0.00990307331085205,-0.02529795467853546,-0.04875616356730461,-0.002538267057389021,0.12914521730137735,0.07324014778455078,-0.005974114224786894
0.5533828735351562,0.010971464216709137,-0.009547457098960876,0.01718062162399292,-0.02456079050898552,-0.04051101952791214,0.000534754479303956,0.1288088730023712,0.07279466736381159,-0.0059740391900492485
0.5632929801940918,0.007023178040981293,-0.008727803826332092,0.018365561962127686,-0.018723173066973686,-0.02402498386800289,0.005057281348854303,0.12855835055689388,0.07246457081734681,-0.005918697170440586
0.5733838081359863,0.0011142119765281677,-0.006046473979949951,0.01712733507156372,-0.007046012207865715,-0.010810911655426025,0.0071486616507172585,0.128430998615405,0.072297545883916,-0.005856280304806704
0.5834269523620605,-0.000680580735206604,-0.003528192639350891,0.01997309923171997,0.0030092184897512197,-0.006091258022934198,0.01125994324684143,0.1284008259371907,0.07224518203690238,-0.005774730091321313
0.5934488773345947,0.0013437122106552124,0.0003058016300201416,0.020160436630249023,0.0019649930763989687,0.0001850132830440998,0.011845839209854603,0.1284664385188919,0.07228182408161284,-0.005670477713992971
0.6034049987792969,0.002439156174659729,-0.0018234103918075562,0.021286725997924805,-0.007986507378518581,0.009357916191220284,0.009738479740917683,0.12851966939954051,0.07243980246031573,-0.005572302253112724
0.6137168407440186,-0.0006018280982971191,-0.005937859416007996,0.01970958709716797,-0.020689519122242928,0.01811465620994568,0.012347312644124031,0.12854053477212568,0.07269136103597378,-0.005478996460404226
0.6235098838806152,-0.0007165446877479553,-0.00929337739944458,0.0165785551071167,-0.023991823196411133,0.024566475301980972,0.013097897171974182,0.12849579948956596,0.07302289179551828,-0.00535610975510528
0.6334877014160156,-0.0005270764231681824,-0.005239307880401611,0.012299537658691406,-0.02173878811299801,0.028785187751054764,0.02228500321507454,0.12846022048745367,0.07338636585074548,-0.005169736060597813
0.6434488296508789,-0.0015345588326454163,0.00048482418060302734,0.009452521800994873,-0.01901642233133316,0.03141377121210098,0.015829715877771378,0.12844692451028183,0.07374146514117087,-0.00496850628838705
0.6534857749938965,-0.0037450790405273438,0.0007555931806564331,0.008385062217712402,-0.013368922285735607,0.023082606494426727,0.026346269994974136,0.12841223103906843,0.07400137441224165,-0.00475251460434865
0.6634337902069092,-0.0013104528188705444,0.005324661731719971,0.009237587451934814,-0.013429826125502586,-0.00043306220322847366,0.027913222089409828,0.1283882156198576,0.07406971893178257,-0.004438302600399598
0.6735208034515381,0.001233130693435669,0.00555671751499176,0.008356928825378418,-0.023955702781677246,-0.005641939118504524,0.020359965041279793,0.1282683140385054,0.07401153943054085,-0.004195034592337929
0.6834988594055176,-0.0005904734134674072,-0.0017551779747009277,0.008176624774932861,-0.03045293502509594,-0.01236158236861229,0.029759272933006287,0.12806536923080172,0.07390951369863148,-0.003926785176047416
0.693504810333252,-0.0041510239243507385,-0.001057639718055725,0.0030736923217773438,-0.033488139510154724,-0.018725739791989326,0.0223183985799551,0.127860960017418,0.0737277623079865,-0.0036403639349661585
0.7036347389221191,-0.005059108138084412,0.001906365156173706,0.005411267280578613,-0.02502313069999218,-0.019923407584428787,0.022640109062194824,0.12772634643307046,0.07350299535255142,-0.00339895688856936
0.7136030197143555,-0.005441941320896149,0.00352516770362854,0.0029153823852539062,-0.029801374301314354,-0.016653046011924744,0.022779125720262527,0.12755850761705845,0.07328683513900082,-0.003146272115273822
0.7235548496246338,-0.0035120993852615356,0.009672686457633972,-0.003477156162261963,-0.028074564412236214,-0.0191927682608366,0.028410807251930237,0.12731056850043404,0.07307666151477314,-0.0028684194530551425
0.7336297035217285,-0.0038528144359588623,0.007698670029640198,-0.003613591194152832,-0.02611820586025715,-0.021383218467235565,0.028119191527366638,0.12708952715266303,0.07281746717674391,-0.002564563549684511
0.743593692779541,-0.0034870877861976624,0.0090484619140625,-0.000401914119720459,-0.023820780217647552,-0.024654334411025047,0.026009008288383484,0.12681971907346093,0.0725532509553261,-0.0022741015010093995
0.7536916732788086,-0.003915533423423767,0.008640065789222717,0.0009371042251586914,-0.03390670567750931,-0.027413101866841316,0.02081690914928913,0.1265156862019768,0.07228946920990269,-0.002013224393786453
0.7636737823486328,-0.0037159472703933716,0.004500895738601685,0.00040215253829956055,-0.045640792697668076,-0.02342945709824562,0.020795604214072227,0.12618861711876458,0.07202307362074864,-0.0017840997139478448
0.7737197875976562,-0.005435451865196228,0.003981083631515503,-4.13060188293457e-05,-0.055206336081027985,-0.02203981950879097,0.016998467966914177,0.12574155743332088,0.07175205634888501,-0.0015507167373302925
0.7836837768554688,-0.007796011865139008,0.006046786904335022,0.0023180246353149414,-0.05401451885700226,-0.02274435944855213,0.011893934570252895,0.12520908145313228,0.0714805048031741,-0.0013698343643257108
0.7937238216400146,-0.009423106908798218,0.005066193640232086,0.004547715187072754,-0.059581857174634933,-0.02196325547993183,0.003990738652646542,0.12462063783642632,0.07119205510819407,-0.001246303593994588
0.8039507865905762,-0.008480675518512726,0.00585523247718811,0.005557656288146973,-0.050783537328243256,-0.024078337475657463,0.0008032543119043112,0.12401646847202424,0.07091284581060904,-0.0011807931855986776
0.8137006759643555,-0.009276323020458221,0.004547052085399628,0.007635772228240967,-0.03782299906015396,-0.01262674480676651,0.006530648563057184,0.12349776446132998,0.07069466439839098,-0.0011230993404944126
0.8240578174591064,-0.013141222298145294,0.007871933281421661,0.009098410606384277,-0.031974732875823975,-0.01202966459095478,-0.003078622743487358,0.1230964601919268,0.07055689994221234,-0.0010526568382748832
0.8337507247924805,-0.012741990387439728,0.005751907825469971,0.0019043684005737305,-0.04369397088885307,-0.01527046412229538,-0.009450768120586872,0.12260543236346294,0.07042678577628458,-0.001095330296038474
0.8436417579650879,-0.00678524374961853,0.004075475037097931,0.00731581449508667,-0.04396651312708855,-0.026840923354029655,-0.022991398349404335,0.12216162497118543,0.07018587232748527,-0.0012058788922564385
0.8537087440490723,-0.006120003759860992,0.004275895655155182,0.01918184757232666,-0.06325872242450714,-0.03281385824084282,-0.028998689725995064,0.12162565773140527,0.0698792710679676,-0.0014468914901798677
0.8638639450073242,-0.006468355655670166,0.001812674105167389,0.014579594135284424,-0.09535425156354904,-0.03540587052702904,-0.03355834260582924,0.1207736166125639,0.06951498956812278,-0.0016777875858291532
0.8757748603820801,-0.0029594600200653076,0.002055041491985321,0.0031655430793762207,-0.09469432383775711,-0.0515291802585125,-0.037503816187381744,0.11977279605873248,0.06904502482587664,-0.0019777873835339264
0.8838438987731934,-0.003184698522090912,-0.0131760835647583,0.0032333731651306152,-0.10127109289169312,-0.05381222069263458,-0.029993541538715363,0.11875563097117973,0.06847840012782955,-0.002261612560273335
0.8938736915588379,-0.004240073263645172,-0.0006829947233200073,-0.00047510862350463867,-0.1620532125234604,-0.03574427217245102,-0.007670391350984573,0.1174917459354893,0.06797782791127616,-0.002363062354895451
0.9038786888122559,-0.004591666162014008,0.01499021053314209,-0.0036780834197998047,-0.21001048386096954,-0.015321597456932068,-0.009496787562966347,0.11558918137963878,0.06760919773088671,-0.0022939343082893937
0.9138107299804688,-0.008532911539077759,-0.005038946866989136,0.004257559776306152,-0.21868546307086945,-0.011749498546123505,0.008555982261896133,0.11342917908978939,0.067396797138257,-0.002148369708404252
0.9238488674163818,-0.007222212851047516,0.0035451799631118774,-0.006030857563018799,-0.19522251188755035,-0.03252188861370087,0.025699496269226074,0.11145702612395669,0.06710633822554123,-0.0018339733587225421
0.9340310096740723,0.004496917128562927,0.030103854835033417,-0.0012926459312438965,-0.21063955128192902,-0.04590214043855667,0.049115605652332306,0.10959245644421513,0.06663048103982813,-0.0013212061392785354
0.9437708854675293,0.007718585431575775,0.019104525446891785,0.0061400532722473145,-0.2342575341463089,-0.06191856786608696,0.06276009976863861,0.10755329220260858,0.06601370966302436,-0.0005886564430196869
0.9538159370422363,0.005088925361633301,-0.0006989464163780212,0.017303168773651123,-0.25772130489349365,-0.0985088124871254,0.05703030899167061,0.10526925257296314,0.06514166685714239,0.0001720319488726489
0.9638566970825195,0.005203895270824432,-0.010830141603946686,0.025872468948364258,-0.2767530083656311,-0.13603989779949188,0.06048059090971947,0.10301463188807126,0.063888309739481,0.0009282025049090251
0.9738826751708984,0.015208546072244644,-0.004012644290924072,0.02377164363861084,-0.30372416973114014,-0.16700047254562378,0.06487241387367249,0.1003579597665319,0.06226264065187062,0.001748261419296643
0.9838478565216064,0.019147410988807678,0.0002472996711730957,0.021212995052337646,-0.3313680589199066,-0.17527398467063904,0.0781683549284935,0.09723265435271669,0.06047480600807797,0.0026474550984987182
0.9938387870788574,0.01294524222612381,-0.0009644478559494019,0.014692902565002441,-0.33880069851875305,-0.20764337480068207,0.09673324972391129,0.0942065299825548,0.058468360819269316,0.003734210565336587
1.0038237571716309,0.016597803682088852,0.004954524338245392,0.00790184736251831,-0.32764989137649536,-0.26399365067481995,0.08659815788269043,0.09110953140353167,0.05600552298040552,0.004862045846143184
1.015467882156372,0.023567795753479004,-0.0032799839973449707,0.014680206775665283,-0.3874969780445099,-0.2929816246032715,0.10076510906219482,0.0874533473588336,0.05322923547172193,0.005952324801577229
1.0240139961242676,0.024753056466579437,-0.004829958081245422,0.010784626007080078,-0.4469843804836273,-0.3037857413291931,0.11930422484874725,0.08338609790944718,0.05027178422023854,0.0072893189624519536
1.0340478420257568,0.022015150636434555,-0.006869152188301086,0.013952255249023438,-0.5224964618682861,-0.3152692914009094,0.13699907064437866,0.07858458690209875,0.04707137082579636,0.008800163460519454
1.04404878616333,0.012996632605791092,-0.01944374293088913,0.02223449945449829,-0.60041344165802,-0.35050466656684875,0.17399948835372925,0.07304363742283496,0.04359085731715085,0.01060480893253169
1.054229736328125,0.01617523655295372,-0.015529178082942963,0.03665703535079956,-0.6605539917945862,-0.4050065279006958,0.2170438915491104,0.0668111208833884,0.03966395571886457,0.012831483804010876
1.066659927368164,0.02349461242556572,-0.012779735028743744,0.03328204154968262,-0.6960012912750244,-0.4518687427043915,0.2602464258670807,0.06008657278517568,0.035215700746993886,0.015483397074619197
1.074821949005127,0.023964447900652885,-0.026380442082881927,0.023486793041229248,-0.6774086952209473,-0.5177441835403442,0.3134680986404419,0.05326506107751358,0.030190588360003965,0.018576253572792807
1.0852408409118652,0.02012668177485466,-0.03565838187932968,0.017489731311798096,-0.6067553162574768,-0.5670952200889587,0.3750980496406555,0.046893543840680195,0.02456523589250127,0.022198696157842146
1.0940558910369873,0.016658728942275047,-0.03124944493174553,0.008710086345672607,-0.5102753639221191,-0.6396980881690979,0.4556083381175995,0.04139417028778992,0.018361666766664772,0.026469226902164838
1.1040618419647217,0.012037164531648159,-0.03606849163770676,0.018614113330841064,-0.37137576937675476,-0.7359590530395508,0.5417963862419128,0.03702952388636595,0.011301485050536983,0.03153772310239916
1.1156318187713623,0.006761549971997738,-0.030824165791273117,0.061506688594818115,-0.25730353593826294,-0.8619750738143921,0.6383391618728638,0.03395587895819654,0.003127928722515026,0.03745861362303057
1.124140739440918,-0.0040274206548929214,-0.033598583191633224,0.10344803333282471,-0.18302030861377716,-0.9970728158950806,0.7423529028892517,0.03177537476491281,-0.006412895085568021,0.04437302986601215
1.134138822555542,-0.017400521785020828,-0.07492997497320175,0.1567956805229187,-0.16769862174987793,-1.1337741613388062,0.8618409037590027,0.029978652456145546,-0.01729135772601065,0.05236629074702957
1.1441917419433594,-0.031873203814029694,-0.12389057874679565,0.2012740969657898,-0.23908160626888275,-1.2912381887435913,1.001025915145874,0.02777005880300073,-0.02977294059626373,0.06162985074539492
1.154127836227417,-0.035367414355278015,-0.15660697221755981,0.22245293855667114,-0.36165544390678406,-1.4554704427719116,1.1312429904937744,0.024349375590949966,-0.04382220912435061,0.07218030115681831
1.1655468940734863,-0.03069739043712616,-0.2393382340669632,0.20614838600158691,-0.6054107546806335,-1.6240298748016357,1.2849801778793335,0.019024694232942906,-0.05951269448723873,0.08398711356225746
1.1744987964630127,-0.026797324419021606,-0.2967734634876251,0.15135711431503296,-1.0222464799880981,-1.7637939453125,1.4990639686584473,0.010111432281620598,-0.07662935629856343,0.09734365533038777
1.1841869354248047,-0.03707653284072876,-0.3418900668621063,0.13689494132995605,-1.5504835844039917,-1.873538851737976,1.6698551177978516,-0.004106300625203263,-0.09490260545763585,0.11205057743191421
1.194131851196289,-0.08846795558929443,-0.46839430928230286,0.18913793563842773,-2.057708740234375,-1.9756766557693481,1.8733019828796387,-0.023953898065683345,-0.1139442511437978,0.12778687668909386
1.2042999267578125,-0.16121906042099,-0.5386468172073364,0.22375649213790894,-2.5038981437683105,-2.107715129852295,2.1187002658843994,-0.0490882820873559,-0.13378923414552718,0.14477539117281918
1.2155399322509766,-0.20094065368175507,-0.5486951470375061,0.20173633098602295,-2.8373701572418213,-2.1188507080078125,2.3975043296813965,-0.0789743893437166,-0.15385729212888033,0.1633086244720912
1.2241387367248535,-0.228678897023201,-0.5601152181625366,0.09123516082763672,-2.733412742614746,-1.9151113033294678,2.709341287612915,-0.1109715236201071,-0.17241450524251886,0.1839515081824785
1.2342119216918945,-0.2931821942329407,-0.6164162158966064,-0.06317520141601562,-2.0695719718933105,-1.3757824897766113,2.537541151046753,-0.14009796360371757,-0.18681891771500378,0.20628233430623744
1.244170904159546,-0.35698553919792175,-0.6496925950050354,-0.22171497344970703,-1.5193434953689575,-1.3279136419296265,2.5924956798553467,-0.1622752164015185,-0.1967141658839507,0.22847986485162436
1.2546288967132568,-0.3146035075187683,-0.5671011209487915,-0.3599815368652344,-0.632407009601593,-1.190014123916626,3.0192363262176514,-0.17827341020413054,-0.20512041118411917,0.2542799565511982
1.2664158344268799,-0.2884591817855835,-0.39786481857299805,-0.2876148223876953,0.12722159922122955,-0.863193929195404,2.7764790058135986,-0.1865580311424545,-0.21023754091664487,0.2827270627992966
1.2743048667907715,-0.4226227402687073,-0.3096235394477844,-0.2543752193450928,0.5322191119194031,-0.6098601818084717,2.8440680503845215,-0.18867059627123242,-0.2124117196387551,0.3114927198869852
1.2843289375305176,-0.28008827567100525,-0.276402086019516,-0.13859087228775024,0.25009799003601074,-0.40284842252731323,2.8153936862945557,-0.19057855494577441,-0.2118888489137052,0.3406698670153853
1.2941007614135742,-0.19451189041137695,-0.23169389367103577,-0.04090672731399536,-0.3429586887359619,-0.16281850636005402,2.6160285472869873,-0.1965650727686195,-0.20953741045364163,0.36764741623572705
1.3042337894439697,-0.311371386051178,-0.3032580614089966,-0.017009854316711426,-0.8714824914932251,-0.0490698404610157,2.652240514755249,-0.20790509445045,-0.20559383290107003,0.3927269346232741
1.3161308765411377,-0.35472601652145386,-0.2873823046684265,-0.06390434503555298,-1.5074543952941895,0.00885351374745369,2.5962941646575928,-0.22506872701691696,-0.20060795289293504,0.4165563015915491
1.3250207901000977,-0.3696843385696411,-0.355487585067749,-0.009824812412261963,-1.47231924533844,0.019372733309864998,2.6107163429260254,-0.2452998510509295,-0.19509335461926083,0.4396428634363981
1.3342399597167969,-0.30231326818466187,-0.3926522135734558,0.06191283464431763,-0.6502029895782471,-0.07207968831062317,2.7894225120544434,-0.26124480370438735,-0.1889466356977048,0.4647834122100335
1.3441658020019531,-0.1975865364074707,-0.129349023103714,0.01950514316558838,0.381918340921402,-0.030226245522499084,3.065044403076172,-0.2676497680394171,-0.18186314901910097,0.4945333878031061
1.3544096946716309,-0.2021396905183792,-0.01760953664779663,-0.032173752784729004,0.6214012503623962,0.13521811366081238,3.0786924362182617,-0.2676978727781467,-0.1727129156770464,0.5270316013170091
1.36558198928833,-0.21254512667655945,-0.21870869398117065,0.0059795379638671875,0.5863452553749084,0.23086127638816833,3.1528408527374268,-0.2670212928636163,-0.16218900272900466,0.5598291892817034
1.3742718696594238,-0.19120390713214874,-0.45462605357170105,0.14122527837753296,0.6778549551963806,0.4293363094329834,3.2365410327911377,-0.2656939718884708,-0.15010130003657998,0.593688556159821
1.3843019008636475,-0.07254770398139954,-0.3512260615825653,0.1549382209777832,0.6521030068397522,0.6884978413581848,3.271132707595825,-0.2636953183779211,-0.13546093911582333,0.6280416811968229
1.3945116996765137,0.01133614033460617,-0.15249040722846985,0.14672809839248657,0.6451537609100342,0.9561838507652283,3.31182599067688,-0.26149367945637775,-0.1182527996727096,0.6627975702122263
1.4043848514556885,0.076256163418293,-0.07998690009117126,0.21009892225265503,0.5313099026679993,1.2501920461654663,3.2851693630218506,-0.25916310326283915,-0.09822855382224949,0.6974315307272244
1.4161138534545898,0.09999708086252213,-0.018696755170822144,0.2816394567489624,0.42292851209640503,1.5139274597167969,3.284451961517334,-0.2572264779831764,-0.0756546887219375,0.7317522091460545
1.4244108200073242,0.11491610109806061,-0.02952110767364502,0.32831716537475586,0.485505610704422,1.7734043598175049,3.2826623916625977,-0.2550085266980044,-0.050562548308549365,0.7659070816825642
1.4344429969787598,0.209147110581398,-0.0070375800132751465,0.3254479169845581,0.7836443185806274,2.073540687561035,3.376354217529297,-0.24986378175149976,-0.02265776752683862,0.8005373987563424
1.4443979263305664,0.31759750843048096,0.07713508605957031,0.26206737756729126,1.0183371305465698,2.374878406524658,3.406961679458618,-0.24106514829173875,0.008185536907042462,0.835627407698155
1.455115795135498,0.4317674934864044,0.09881147742271423,0.1717689037322998,1.2645446062088013,2.639608383178711,3.434211015701294,-0.2288178592167796,0.041430868707697514,0.8705333530816096
1.4655888080596924,0.5047811269760132,0.05213242769241333,0.12231159210205078,1.4535982608795166,2.839749336242676,3.4655938148498535,-0.21313420246093795,0.07649031477765246,0.9050944348209604
1.4744868278503418,0.5802470445632935,0.07387952506542206,0.1206502914428711,1.6082675457000732,2.9548845291137695,3.454838514328003,-0.19455750151832496,0.11238225683051353,0.9388135294669296
1.4846487045288086,0.6437984108924866,0.04515598714351654,0.12401235103607178,1.6007802486419678,2.9780538082122803,3.424455165863037,-0.17402863065628302,0.14812595982317195,0.9714216503845037
1.4945688247680664,0.7456575632095337,0.052775025367736816,0.10810792446136475,1.4294580221176147,2.930762529373169,3.38470721244812,-0.1533613566454963,0.18286338572153157,1.0029767828430018
1.5046110153198242,0.837180495262146,0.0915469378232956,0.058888375759124756,1.1745396852493286,2.8000450134277344,3.2693254947662354,-0.13392015856934694,0.21597393100099943,1.0333890817586104
1.5178308486938477,0.8936843276023865,0.1694340705871582,-0.03117889165878296,0.8163895010948181,2.55047869682312,3.0841691493988037,-0.11681164101572324,0.24645184296420622,1.0623191403184056
1.5245099067687988,0.89838707447052,0.24440239369869232,-0.12503719329833984,0.2503562271595001,2.167393445968628,2.7781805992126465,-0.10399052558625199,0.27314090725614687,1.0895463305595605
1.534911870956421,0.8439227342605591,0.30056828260421753,-0.1854928731918335,-0.5011720657348633,1.6676217317581177,2.3293771743774414,-0.09785748057298611,0.2949184551880168,1.114630540764494
1.5447428226470947,0.7261576652526855,0.3659316301345825,-0.17854654788970947,-1.3960850238800049,1.050879716873169,1.727943778038025,-0.100837703782297,0.31076927454368897,1.137054413383947
1.5551908016204834,0.5628624558448792,0.4616749882698059,-0.11530792713165283,-1.9905728101730347,0.47546350955963135,1.0222995281219482,-0.11301309567098453,0.32034493988950996,1.1556470201699427
1.5672118663787842,0.3878769874572754,0.5284644365310669,-0.08216112852096558,-2.0803451538085938,-0.059238675981760025,0.4273967444896698,-0.13030551344092717,0.3239978694252079,1.1690454042459395
1.5755338668823242,0.2636305093765259,0.5571133494377136,-0.15513932704925537,-1.8152687549591064,-0.43048226833343506,-0.0054212454706430435,-0.14840209082384467,0.32251818499263213,1.1773293605879975
1.5846998691558838,0.20313355326652527,0.44938039779663086,-0.1984618902206421,-1.0884078741073608,-0.586243748664856,-0.31618717312812805,-0.16300434605153505,0.3177735178480168,1.1804242829292306
1.5945687294006348,0.11567944288253784,0.3077518343925476,-0.1656314730644226,-0.15293049812316895,-0.5402804613113403,-0.5024837851524353,-0.1701957254520914,0.31168087462131705,1.1783641603519568
1.6047496795654297,0.03927886486053467,0.22901253402233124,-0.09323453903198242,0.7057215571403503,-0.38269850611686707,-0.5597561597824097,-0.16908510751199593,0.30598133562228014,1.17226247388972
1.616391897201538,0.012579172849655151,0.11675557494163513,-0.038147926330566406,1.3707350492477417,-0.18622778356075287,-0.5207768082618713,-0.16068366719754287,0.30174611532585033,1.1637681987036914
1.6247897148132324,0.022212207317352295,0.03111046552658081,-0.009894013404846191,1.6942906379699707,-0.02089572697877884,-0.448903352022171,-0.1472007146311575,0.29928210041483855,1.1543934741583122
1.6347169876098633,0.03598135709762573,0.021100595593452454,0.026654422283172607,1.607913851737976,0.0822485014796257,-0.3648340106010437,-0.13239252312486455,0.29839222809439564,1.145500515263331
1.6447598934173584,0.047613680362701416,0.009252369403839111,0.08407890796661377,1.242539882659912,0.1246454045176506,-0.28274887800216675,-0.11955705142099236,0.29853042493452947,1.1381105099322184
1.654798984527588,0.05455377697944641,-0.003276422619819641,0.12840330600738525,0.7533066868782043,0.10006442666053772,-0.21161426603794098,-0.11077213458787287,0.2990720798286984,1.1327617907930003
1.6658477783203125,0.061067014932632446,-0.024174004793167114,0.14138758182525635,0.32853713631629944,0.0638851597905159,-0.1517026573419571,-0.10619113072648789,0.29954696345010856,1.1294454313136182
1.6747479438781738,0.06808856129646301,-0.04751303791999817,0.12161499261856079,0.04557358846068382,0.022933203727006912,-0.09544072300195694,-0.10484922625061056,0.29978950069012944,1.127734819721057
1.684776782989502,0.06683233380317688,-0.03193915635347366,0.07356369495391846,-0.12424738705158234,-0.000559651292860508,-0.04784412309527397,-0.10549903631684342,0.29983202239082124,1.127195797177264
1.694753885269165,0.06357371807098389,-0.02146518975496292,0.03377598524093628,-0.19144213199615479,0.011054128408432007,-0.024172615259885788,-0.10719590683533253,0.2998969792997699,1.1273343354931373
1.7048368453979492,0.03822040557861328,-0.030171610414981842,0.036754488945007324,-0.10346485674381256,0.0402069091796875,0.012109970673918724,-0.1087243404360521,0.3001820749171272,1.1277391416437779
1.7158427238464355,0.027683138847351074,-0.03941672295331955,0.03889644145965576,0.05189783126115799,0.08416824042797089,0.03801347315311432,-0.1089068062769519,0.3008241151302054,1.128040572835067
1.7247819900512695,0.01808074116706848,-0.02974315732717514,0.03478425741195679,0.22371205687522888,0.1452566683292389,0.07856275886297226,-0.10743385890194501,0.30198474699458666,1.1282053394797043
1.7349576950073242,0.007492661476135254,-0.0392199382185936,0.032998085021972656,0.34197771549224854,0.2062220275402069,0.10042784363031387,-0.10438133078711935,0.3037466152752238,1.1282011715404845
1.7447888851165771,-0.00289270281791687,-0.042624540627002716,0.037338197231292725,0.39752113819122314,0.235245943069458,0.12295100092887878,-0.10050242162770975,0.3059627257498559,1.1281555249302915
1.754978895187378,-0.0036422312259674072,-0.04198313504457474,0.046430110931396484,0.4079380929470062,0.2396087348461151,0.12871567904949188,-0.09625464220824612,0.3083571497374947,1.1281325848031658
1.767014980316162,0.0009292662143707275,-0.035945288836956024,0.052625298500061035,0.3693709969520569,0.221818208694458,0.13154049217700958,-0.0921210894582459,0.3106846860875029,1.1281846025592694
1.7748889923095703,0.003192991018295288,-0.01842872053384781,0.038686931133270264,0.2908266484737396,0.1992572396993637,0.12636010348796844,-0.08859770592655321,0.3127974988431494,1.1283913848952256
1.7849698066711426,0.0011781752109527588,-0.010358229279518127,0.032290518283843994,0.23364423215389252,0.18974339962005615,0.12083970010280609,-0.08570422811294164,0.3147773127775312,1.1287646732042718
1.7948858737945557,-0.010288834571838379,-0.008243709802627563,0.03273618221282959,0.1891566514968872,0.20055823028087616,0.12065993249416351,-0.08332179899314016,0.31676547735236354,1.1292549034693526
1.8050198554992676,-0.021371930837631226,-0.008124679327011108,0.029251158237457275,0.16989007592201233,0.22473692893981934,0.13516879081726074,-0.08124261214768737,0.31892271930151134,1.129912255599886
1.8157958984375,-0.01594996452331543,-0.012064091861248016,0.013942301273345947,0.14597675204277039,0.25430867075920105,0.13597865402698517,-0.07931644644902663,0.3213980074090967,1.1306901126105249
1.8249177932739258,-0.01121637225151062,-0.008396387100219727,-0.0035463571548461914,0.11829414963722229,0.2754310071468353,0.1584281474351883,-0.07759657474157891,0.3241251668695146,1.1316834868366739
1.835075855255127,0.006584823131561279,8.115172386169434e-05,-0.01593470573425293,0.07231280952692032,0.28045985102653503,0.17462442815303802,-0.07614906847176166,0.32703343364232645,1.1329463583453276
1.8449928760528564,0.010605186223983765,-0.018970072269439697,0.019837617874145508,0.02418266423046589,0.27286815643310547,0.19133879244327545,-0.07508617452840988,0.32990828716085063,1.1345399758088375
1.8550987243652344,0.02265232801437378,-0.03628123551607132,0.06410437822341919,-0.044130876660346985,0.2751387655735016,0.1942024976015091,-0.07454302749171797,0.3327985845653402,1.1363973728197094
1.8667759895324707,0.030447810888290405,-0.034329548478126526,0.06786525249481201,-0.11390581727027893,0.2598724067211151,0.17723976075649261,-0.07468218049846466,0.33563865428443745,1.1384401739265366
1.8752079010009766,0.03594332933425903,-0.009682901203632355,0.03778749704360962,-0.15698137879371643,0.23976768553256989,0.13559511303901672,-0.07547417603037426,0.33829984288482656,1.140389387615714
1.8869147300720215,0.032830119132995605,0.026829324662685394,0.027565419673919678,-0.1653008759021759,0.2193364053964615,0.09639295190572739,-0.07660865228779946,0.34071653327244444,1.1420226998157932
1.895458698272705,0.026119232177734375,0.053940922021865845,0.011847376823425293,-0.15764029324054718,0.1874205470085144,0.06165280565619469,-0.07789751349804414,0.34286058756787946,1.1433162306989926
1.9059009552001953,0.021937638521194458,0.052166685461997986,0.0024510622024536133,-0.11046292632818222,0.1573391705751419,0.0350382961332798,-0.07901906379672621,0.34464863087315245,1.1442200801534563
1.9168329238891602,0.01643955707550049,0.033103927969932556,-0.004650592803955078,-0.052067000418901443,0.13136854767799377,0.017034262418746948,-0.07972773309380622,0.3461382789128341,1.1447269877704818
1.9251677989959717,0.01632136106491089,0.027873478829860687,-0.02869337797164917,0.01865357533097267,0.12130358815193176,0.004872724413871765,-0.07983155583746541,0.34740666213117677,1.1448890407864836
1.935227870941162,0.0059035420417785645,0.017485618591308594,-0.02863907814025879,0.06613214313983917,0.11794480681419373,-0.0016197961522266269,-0.07941487400740393,0.3485953660973794,1.144750419444854
1.945077896118164,-0.003942549228668213,0.01161978393793106,-0.027437686920166016,0.06522440910339355,0.10294649749994278,0.004584942944347858,-0.07876316607978408,0.34968872910472787,1.14451424303697
1.955223798751831,-0.004204809665679932,-0.0019235983490943909,-0.035272300243377686,0.036995165050029755,0.08391261845827103,0.007282458711415529,-0.07825162894488602,0.35062213882785165,1.14440384814312
1.96583890914917,-0.0007260739803314209,-0.015935182571411133,-0.026483118534088135,0.005942291114479303,0.06171149015426636,0.010708881542086601,-0.07830157506545504,0.3516345080388741,1.1444191566740591
1.9752449989318848,0.0018857717514038086,-0.018557406961917877,-0.02938377857208252,0.0032050940208137035,0.039736948907375336,0.029741428792476654,-0.07866662542430745,0.3523597489277687,1.144615802854197
1.9852838516235352,0.005328088998794556,-0.017543800175189972,-0.02188420295715332,0.031447652727365494,0.05879098176956177,0.042668625712394714,-0.07878253458117226,0.35302211445342174,1.144917971799408
1.9951720237731934,-0.008741825819015503,-0.043073832988739014,9.697675704956055e-05,0.04647240787744522,0.07192302495241165,0.06171714887022972,-0.07847848224101829,0.3538140715765652,1.1452807239896217
2.0055248737335205,-0.00664713978767395,-0.05098686367273331,-0.035913944244384766,0.028160560876131058,0.07034070789813995,0.06193520873785019,-0.07804363502494595,0.3546128582974391,1.1457319920978242
2.016561985015869,0.009098827838897705,-0.019670121371746063,-0.06421524286270142,-0.021324699744582176,0.04524414241313934,0.03590228036046028,-0.07793077375996701,0.3551983756947709,1.1461858513850685
2.0252938270568848,0.013179242610931396,0.004980206489562988,-0.043970346450805664,-0.061841100454330444,0.0006094765849411488,0.019415074959397316,-0.07830600087193393,0.3553494628947894,1.1465683640141595
2.0353360176086426,0.016786038875579834,0.015207208693027496,-0.02895331382751465,-0.06819433718919754,-0.02653958648443222,0.008644452318549156,-0.07883808141515951,0.35509763688469237,1.1469266242832084
2.0452828407287598,0.019643127918243408,0.00978737324476242,-0.021099865436553955,-0.05277811363339424,-0.03300720453262329,0.003589080646634102,-0.07925433192634848,0.3547141682598692,1.1471748725684094
2.055361747741699,0.01110944151878357,-0.00027020275592803955,-0.0345119833946228,-0.05368625000119209,-0.03534945473074913,-0.011195724830031395,-0.07963904835389865,0.354321744516549,1.1473288355138587
2.0662527084350586,0.011999636888504028,0.00994141399860382,-0.05825608968734741,-0.08013053983449936,-0.05574030429124832,-0.03865307569503784,-0.0802325431614284,0.3538441516609969,1.147311346604883
2.0753350257873535,0.008037596940994263,0.029895037412643433,-0.06039762496948242,-0.11904677748680115,-0.09251216799020767,-0.0599391907453537,-0.08117126509643248,0.35303439320448093,1.1472029787197575
2.085225820541382,0.014996975660324097,0.04146295785903931,-0.03488361835479736,-0.12611493468284607,-0.11435013264417648,-0.06940566003322601,-0.08236368516699002,0.35187803865056166,1.146988155279133
2.0952630043029785,0.01852107048034668,0.03156434744596481,-0.0030071139335632324,-0.1148444265127182,-0.12115716934204102,-0.06863468140363693,-0.08361485990469654,0.35061235476093355,1.1467518402356
2.10532283782959,0.019426852464675903,0.01876141130924225,0.010528028011322021,-0.10635239630937576,-0.1017356738448143,-0.06399289518594742,-0.08487135815638873,0.3494714764967178,1.146509386897343
2.1162266731262207,0.01801145076751709,0.006698668003082275,0.005719363689422607,-0.08093997836112976,-0.07254050672054291,-0.07123322784900665,-0.08602826964976108,0.34862354289180764,1.1461967350880686
2.1253600120544434,0.009584516286849976,0.01839958131313324,0.0009303689002990723,-0.056200191378593445,-0.054523371160030365,-0.07364290952682495,-0.08694983145660441,0.34803773645693253,1.1457581428852053
2.1353960037231445,-0.0014516115188598633,0.023781299591064453,0.002426326274871826,-0.013497736304998398,-0.044772207736968994,-0.06781724095344543,-0.08747526645329065,0.34750476149238696,1.145208317981664
2.145336866378784,0.0005739033222198486,0.020865872502326965,0.003554224967956543,0.02024632878601551,-0.03766915947198868,-0.052063532173633575,-0.08761412467383019,0.34702464763756014,1.1446306915213507
2.1553428173065186,0.0018748641014099121,0.013352595269680023,0.014393508434295654,0.02168949693441391,-0.03613624349236488,-0.03752107173204422,-0.08763541325853277,0.34659762466312694,1.1441279653512686
2.1656837463378906,0.0032936036586761475,-0.012298785150051117,0.034970223903656006,-0.019436951726675034,-0.033918142318725586,-0.029574625194072723,-0.08795846093106185,0.3463150907442027,1.143808383189982
2.1755638122558594,0.006976962089538574,-0.022618718445301056,0.04311138391494751,-0.08337731659412384,-0.032040614634752274,-0.02649867534637451,-0.08880598746654861,0.34617292582586606,1.143733827791484
2.185518741607666,0.011328727006912231,-0.014754414558410645,0.043642520904541016,-0.11902046948671341,-0.04022166505455971,-0.036127813160419464,-0.090025534729085,0.3460137379362716,1.143823185975578
2.195359706878662,0.01014593243598938,-0.005564838647842407,0.03855961561203003,-0.12592604756355286,-0.05498569831252098,-0.043952181935310364,-0.09138536503921152,0.3456758104370338,1.1438850225652155
2.205552816390991,0.00823831558227539,0.0007072910666465759,0.029284119606018066,-0.10402735322713852,-0.06879574060440063,-0.06712817400693893,-0.09276372849388904,0.3451355993704735,1.1437598063426608
2.216003894805908,0.008431464433670044,0.007711835205554962,0.01523369550704956,-0.08427202701568604,-0.08845146745443344,-0.09393689036369324,-0.09405031817884181,0.34433770350878623,1.1433367607370613
2.2254178524017334,0.011101365089416504,0.016705848276615143,0.00015079975128173828,-0.08232585340738297,-0.11193610727787018,-0.13520683348178864,-0.0953771920634803,0.3433250352582376,1.1425326069880617
2.23549485206604,0.013908237218856812,0.02555740624666214,0.0027617216110229492,-0.06404538452625275,-0.13606968522071838,-0.16228292882442474,-0.09672472253159066,0.34213517266611765,1.1413930687955236
2.2454328536987305,0.016797274351119995,0.030187636613845825,0.0112992525100708,-0.04534030333161354,-0.1439407467842102,-0.1926814764738083,-0.09757640351250127,0.3408250340849143,1.139913916890445
2.255542755126953,0.015814632177352905,0.019423387944698334,0.017687857151031494,-0.023953257128596306,-0.15672683715820312,-0.21848164498806,-0.09821186014465022,0.33942236761271816,1.138103616376234
2.2657828330993652,0.01732495427131653,0.007752552628517151,0.004433572292327881,-0.03010878711938858,-0.18141336739063263,-0.25328078866004944,-0.0990070446277036,0.3378897544224343,1.135990986655993
2.2754998207092285,0.024264425039291382,0.014034025371074677,-0.015605747699737549,-0.060473084449768066,-0.21853570640087128,-0.3061072528362274,-0.10023900884045071,0.3360677826281689,1.1335462758883812
2.2855758666992188,0.028855085372924805,0.02365696430206299,-0.025808274745941162,-0.11486540734767914,-0.27965715527534485,-0.37408190965652466,-0.1021615435870205,0.333669696305427,1.1306413572113272
2.2955288887023926,0.03621509671211243,0.03687068819999695,-0.0348435640335083,-0.19050262868404388,-0.3673827350139618,-0.45609182119369507,-0.10500001690863943,0.33032567938628976,1.127214576366444
2.3057048320770264,0.05416122078895569,0.04978647828102112,-0.046778202056884766,-0.24247469007968903,-0.45253226161003113,-0.5421949028968811,-0.1087683432120558,0.3259546770432772,1.1231801380944604
2.3157598972320557,0.06633967161178589,0.06531400978565216,-0.046016037464141846,-0.27243152260780334,-0.522584080696106,-0.6389515399932861,-0.1132113793485291,0.3207102899091484,1.1183836275705088
2.3255488872528076,0.061073482036590576,0.06541575491428375,-0.028204798698425293,-0.2679029405117035,-0.574585497379303,-0.7128291130065918,-0.11793239772055879,0.3145537743217081,1.1127476461459234
2.335723876953125,0.06394854187965393,0.044480882585048676,-0.019757330417633057,-0.2355489730834961,-0.5978479385375977,-0.7630661725997925,-0.12260464851204443,0.3078990765010548,1.1064261347899087
2.3456408977508545,0.07512009143829346,0.02386040985584259,-0.0144730806350708,-0.18668575584888458,-0.5896681547164917,-0.7859936356544495,-0.12694722194865612,0.3010719365857512,1.0996134808888083
2.3556668758392334,0.06965425610542297,-0.0022863298654556274,0.013028264045715332,-0.1587076485157013,-0.5671905279159546,-0.8059044480323792,-0.1309100658972031,0.29434453250598014,1.0924224192715224
2.3665027618408203,0.05509638786315918,-0.02829509973526001,0.03592479228973389,-0.19681406021118164,-0.545521080493927,-0.8192183375358582,-0.1349205270526974,0.2878047421360607,1.0850691019119394
2.375819683074951,0.05354383587837219,-0.03298574686050415,0.034775376319885254,-0.2623361051082611,-0.5293066501617432,-0.823626697063446,-0.13942460287246664,0.2814184708358269,1.0777592253062227
2.386655807495117,0.05840945243835449,-0.03150554001331329,0.028987526893615723,-0.3422766923904419,-0.5255762338638306,-0.8448013067245483,-0.1446344168478763,0.27512483863464077,1.070495578160574
2.3958187103271484,0.06253141164779663,-0.015467986464500427,0.01967930793762207,-0.4464142918586731,-0.5538883209228516,-0.8769083619117737,-0.15074284660439644,0.2686496417431598,1.0631724091256551
2.4080419540405273,0.07339346408843994,-0.011495992541313171,0.003025531768798828,-0.5290161967277527,-0.5855194330215454,-0.8991397023200989,-0.15776426864567547,0.2618276982793148,1.0557976655157544
2.4175467491149902,0.0915260761976242,-0.012665033340454102,-0.01888883113861084,-0.6250916123390198,-0.6103898882865906,-0.9483786225318909,-0.16570505835803584,0.25463277235515036,1.0482457442428312
2.4256608486175537,0.09587636590003967,-0.010783940553665161,-0.01971989870071411,-0.7042946815490723,-0.6574476361274719,-1.0277502536773682,-0.17461861809852822,0.24693635780360093,1.0402178175814623
2.435685873031616,0.1013503223657608,-0.00859004259109497,0.0041255950927734375,-0.7623851299285889,-0.7094783782958984,-1.1272156238555908,-0.18437658081920943,0.23851194331998377,1.0313727278830438
2.445648670196533,0.11666560173034668,0.02363775670528412,0.0010482072830200195,-0.7960428595542908,-0.7481722831726074,-1.240519642829895,-0.19473860785684458,0.2293431178351616,1.0215105503678141
2.455716848373413,0.14793594181537628,0.0671747624874115,-0.03412806987762451,-0.7931948900222778,-0.7687699794769287,-1.3823974132537842,-0.20543108391458606,0.21951603424953817,1.0102582725302043
2.4662768840789795,0.1654721051454544,0.0988367348909378,-0.07042628526687622,-0.7026346921920776,-0.7834374904632568,-1.5320227146148682,-0.2158700133868519,0.2090269432671578,0.9973128513915887
2.475799798965454,0.18094436824321747,0.1161150187253952,-0.1036117672920227,-0.6161373257637024,-0.807485044002533,-1.6899341344833374,-0.22559155561517352,0.1978206435086262,0.98247423012438
2.4857327938079834,0.20711621642112732,0.127090185880661,-0.1285719871520996,-0.5180195569992065,-0.8290490508079529,-1.8081248998641968,-0.23453592351916866,0.1858675688684832,0.9659178072969824
2.4957618713378906,0.23299872875213623,0.11633490025997162,-0.12669461965560913,-0.318642258644104,-0.8294498920440674,-1.9339467287063599,-0.24205521812451075,0.17325231510908212,0.9477600066592476
2.505837917327881,0.23104654252529144,0.10819792747497559,-0.09144151210784912,-0.098260797560215,-0.7962605953216553,-2.058314085006714,-0.24746966719180427,0.16025730078748682,0.9278131056307211
2.515838861465454,0.21863096952438354,0.12385120987892151,-0.05134904384613037,0.1441369354724884,-0.760789155960083,-2.1941661834716797,-0.2504948813947356,0.14711555589290543,0.9060928199262184
2.525758743286133,0.2246434986591339,0.14722497761249542,-0.02090853452682495,0.3444444239139557,-0.7421643137931824,-2.330820083618164,-0.251222235040753,0.133762195805518,0.8825641930040816
2.535975933074951,0.2498665750026703,0.18516744673252106,3.701448440551758e-05,0.5252301692962646,-0.7348943948745728,-2.447178840637207,-0.2499527791212545,0.12017591203905065,0.8574894662155236
2.545973777770996,0.28081169724464417,0.20869526267051697,0.003473639488220215,0.7118906378746033,-0.7006654739379883,-2.55635142326355,-0.24664831596063616,0.10648665192555705,0.8311005638775152
2.556029796600342,0.2994813621044159,0.20984530448913574,-0.0068621039390563965,0.8564273118972778,-0.6449928879737854,-2.66544246673584,-0.2414533502894164,0.09310527775186664,0.8034689829416672
2.566396713256836,0.29983311891555786,0.22943592071533203,-0.01344287395477295,0.933892011642456,-0.5777838230133057,-2.745682954788208,-0.23489160008342497,0.08029381389341128,0.7748934965090711
2.5759758949279785,0.2874854803085327,0.2246679663658142,-0.01002579927444458,0.9911845922470093,-0.495237797498703,-2.7981011867523193,-0.22734335748191778,0.06826558653989752,0.7457285442737079
2.5864109992980957,0.27601614594459534,0.20485638082027435,0.009842514991760254,1.04325532913208,-0.40819868445396423,-2.8423800468444824,-0.21905628924472995,0.05726143801606259,0.7161686273081969
2.5960118770599365,0.26284652948379517,0.21441969275474548,0.04812920093536377,1.0952287912368774,-0.34992390871047974,-2.8765478134155273,-0.20990895324959097,0.047165840235482606,0.6863290499962916
2.6076388359069824,0.25702354311943054,0.2172926962375641,0.0918804407119751,1.1163028478622437,-0.2873167395591736,-2.899864435195923,-0.2000858525131615,0.037869256425628675,0.6563278315014742
2.616461753845215,0.25549545884132385,0.19866257905960083,0.12460154294967651,1.0892939567565918,-0.2434358149766922,-2.9208223819732666,-0.19006825669103136,0.02944759373873542,0.6262779638006871
2.6259517669677734,0.2469664067029953,0.16641081869602203,0.15256953239440918,1.0127514600753784,-0.2012166678905487,-2.9530763626098633,-0.18036014612930737,0.02168226189068096,0.5961051409207904
2.635972023010254,0.22116443514823914,0.12995296716690063,0.17417359352111816,0.9486023187637329,-0.12914034724235535,-2.9717624187469482,-0.17122116412639155,0.014785320410763698,0.5657968737067095
2.6459789276123047,0.2012890875339508,0.11929769814014435,0.1539536714553833,0.9009448289871216,-0.04281860217452049,-2.966020107269287,-0.16235952555316768,0.008973076527602788,0.535550178763786
2.655974864959717,0.19610373675823212,0.11538819968700409,0.11817395687103271,0.8215533494949341,0.03468843922019005,-2.973287343978882,-0.15401886824957353,0.0042023594011407666,0.5053812551144772
2.666301727294922,0.18104198575019836,0.09435468912124634,0.11911416053771973,0.7831906080245972,0.13268952071666718,-2.9815962314605713,-0.14615535592947043,0.0005433864570508002,0.4752030885792591
2.6760659217834473,0.1444619745016098,0.04127494990825653,0.11829698085784912,0.7509485483169556,0.24012278020381927,-2.990142583847046,-0.13845781665783466,-0.0018558346965632513,0.4450094496462002
2.6863088607788086,0.1147245243191719,-0.005418747663497925,0.05421096086502075,0.7558854818344116,0.32085636258125305,-2.9626576900482178,-0.13092987420290553,-0.00305636484873585,0.4149233739180139
2.696126937866211,0.10308259725570679,-0.02653612196445465,0.016141116619110107,0.828555166721344,0.362253874540329,-2.9397761821746826,-0.12296087578518058,-0.003361286655588875,0.3851901676558389
2.708434820175171,0.08172690868377686,-0.050438858568668365,0.04443156719207764,0.9055692553520203,0.40519005060195923,-2.92610764503479,-0.11419399284917676,-0.003011185668733682,0.3556392581098626
2.717714786529541,0.04006122425198555,-0.04370860010385513,0.08095300197601318,0.9555628895759583,0.4559602737426758,-2.8874361515045166,-0.10479817173017932,-0.001894138573124335,0.3263721117738299
2.726217746734619,0.01622181013226509,-0.03194337338209152,0.11528271436691284,0.9346371293067932,0.49783405661582947,-2.8815784454345703,-0.09521281174021878,2.8917416628507973e-05,0.29740601797748567
2.736217975616455,0.014408031478524208,-0.01778985559940338,0.1703348159790039,0.7973945736885071,0.5329890847206116,-2.8866660594940186,-0.08662375339583016,0.002554048265040128,0.26833569511569855
2.7461156845092773,0.017059575766324997,0.04378949850797653,0.21874338388442993,0.7252347469329834,0.5603185892105103,-2.7873661518096924,-0.0791875490507424,0.005709183848775294,0.23974582757714893
2.756168842315674,0.04313812404870987,0.03043743222951889,0.20932453870773315,0.6813141703605652,0.4613153040409088,-2.711822509765625,-0.07230196989149074,0.008718854161647853,0.2121455481409643
2.7665038108825684,0.0714043378829956,-0.07397868484258652,0.17532306909561157,0.5748315453529358,0.39316171407699585,-2.700685501098633,-0.06630634030715404,0.011078713422114063,0.18492322233318326
2.7761008739471436,0.07232140749692917,-0.13475137948989868,0.12763750553131104,0.4153129756450653,0.391169935464859,-2.6302478313446045,-0.061624506964365146,0.01326016063879003,0.15806492448172452
2.7861218452453613,0.047384750097990036,-0.14332084357738495,0.058357179164886475,0.34877583384513855,0.39768552780151367,-2.5098941326141357,-0.05833197877582063,0.015676589775095374,0.13225579445155902
2.796130895614624,0.02216581255197525,-0.16274626553058624,0.038202643394470215,0.3879871368408203,0.4253285825252533,-2.414029598236084,-0.05506232676817716,0.018359845651877045,0.10751050097107819
2.806311845779419,-0.0050086360424757,-0.22791510820388794,0.035793840885162354,0.4225548803806305,0.4794868528842926,-2.2791242599487305,-0.05150052051982979,0.021640552734712003,0.08385235368367686
2.816366672515869,-0.02847268618643284,-0.207834854722023,0.05080515146255493,0.610031247138977,0.523414134979248,-2.0660367012023926,-0.04687182477858707,0.025604405709123954,0.061927144170065763
2.826190948486328,-0.02542898617684841,-0.125444695353508,0.05677527189254761,0.6785256862640381,0.48267728090286255,-1.8254116773605347,-0.040983548440227134,0.029837708869121765,0.0422414331032569
2.8362247943878174,-0.004017338156700134,-0.08468665182590485,0.03560727834701538,0.7153545618057251,0.34609678387641907,-1.5847234725952148,-0.03446157051876657,0.0334012536959931,0.024967219451572695
2.8461527824401855,0.02465435490012169,-0.14809799194335938,0.08358758687973022,0.6993300914764404,0.19070009887218475,-1.3940478563308716,-0.027923424319705504,0.035578171387081976,0.009845746690102776
2.8562560081481934,0.021980833262205124,-0.2696878910064697,0.13698500394821167,0.6603054404258728,0.13181494176387787,-1.2496273517608643,-0.021535887812409282,0.03679756971114714,-0.0036040468928641043
2.8667068481445312,-0.026647813618183136,-0.3346047103404999,0.12183403968811035,0.552539050579071,0.15246376395225525,-1.1078946590423584,-0.015910343305697204,0.037953198974758885,-0.015620510490622349
2.876236915588379,-0.06681672483682632,-0.32375597953796387,0.04485350847244263,0.3092579245567322,0.1548137366771698,-0.9821772575378418,-0.01189716959032469,0.03939436898312185,-0.026234858872679154
2.8862409591674805,-0.05778472125530243,-0.31133171916007996,-0.01404261589050293,0.07616202533245087,0.08336352556943893,-0.8775181174278259,-0.010382850753174971,0.040509740860076755,-0.03558986707343122
2.8963117599487305,-0.030594151467084885,-0.33911049365997314,0.0033040642738342285,-0.09442063421010971,-0.0011441702954471111,-0.8026835322380066,-0.01089417705731512,0.040815997259836846,-0.04399352975593487
2.9063596725463867,-0.02811504527926445,-0.37950119376182556,0.01355201005935669,-0.17775042355060577,-0.044797688722610474,-0.7136991620063782,-0.012634505214075649,0.040458380333395626,-0.05152147414109599
2.9168529510498047,-0.0469106025993824,-0.34352388978004456,-0.0040495991706848145,-0.17751899361610413,-0.032164983451366425,-0.6154412627220154,-0.014682281551665566,0.03996750964297414,-0.05810511538316114
2.9263949394226074,-0.060478635132312775,-0.2696141004562378,-0.053521573543548584,-0.17315660417079926,-0.019600365310907364,-0.512691080570221,-0.016654696425657565,0.039650980392823706,-0.06368307100755997
2.936455726623535,-0.06443629413843155,-0.2056637406349182,-0.10385721921920776,-0.11958392709493637,-0.060708388686180115,-0.40530821681022644,-0.01836316730279612,0.03919961467640729,-0.06820562188518184
2.946347713470459,-0.052452314645051956,-0.18120406568050385,-0.08379721641540527,-0.00997781939804554,-0.13500556349754333,-0.3312292695045471,-0.019172196549129748,0.038155809159121916,-0.07184623031940252
2.9567956924438477,-0.0500989593565464,-0.18371441960334778,-0.030411124229431152,0.12335201352834702,-0.1845605969429016,-0.26613494753837585,-0.01869174510054256,0.03647202590456333,-0.07486262462590322
2.966606855392456,-0.06920564919710159,-0.16766910254955292,0.011754155158996582,0.1957966387271881,-0.19057083129882812,-0.20546816289424896,-0.01712676158745187,0.03453431599275989,-0.07727960239544038
2.976290702819824,-0.08169520646333694,-0.13494867086410522,0.030570268630981445,0.17503410577774048,-0.18270890414714813,-0.15161478519439697,-0.015289872436528153,0.0326325146920327,-0.07912730885200431
2.9864308834075928,-0.08324236422777176,-0.10350258648395538,0.03541004657745361,0.12442310899496078,-0.17712652683258057,-0.10514437407255173,-0.013842417196160863,0.03080569408168417,-0.08044658468535146
2.996337890625,-0.07594025135040283,-0.11832480877637863,0.0271872878074646,0.05021866038441658,-0.15769103169441223,-0.08284199982881546,-0.012963264115087775,0.029102288722169623,-0.08140269525688815
3.0063529014587402,-0.06933135539293289,-0.15697403252124786,0.012868702411651611,-0.03433797135949135,-0.1170843094587326,-0.08010102063417435,-0.012931458411555477,0.02771120734157165,-0.08221181621741616
3.0165698528289795,-0.07314267754554749,-0.16116991639137268,0.005715012550354004,-0.09798751771450043,-0.08255855739116669,-0.08399775624275208,-0.013617878136888188,0.02671580932109274,-0.08301342989866776
3.0263047218322754,-0.07463260740041733,-0.1557895392179489,0.018077075481414795,-0.1347559541463852,-0.0658966675400734,-0.07041138410568237,-0.014814168971693457,0.025978067504632017,-0.0837668721273121
3.0364198684692383,-0.07550005614757538,-0.15210534632205963,0.04403567314147949,-0.18949030339717865,-0.03676221892237663,-0.05261959508061409,-0.016455485240741464,0.025442124139442687,-0.0843244897589437
3.0462889671325684,-0.07795213907957077,-0.14868400990962982,0.06254512071609497,-0.20718781650066376,-0.004098281729966402,-0.04041539505124092,-0.018466584697916455,0.025239976245551462,-0.0847412756873169
3.056595802307129,-0.07665897160768509,-0.13877445459365845,0.06955093145370483,-0.22682197391986847,0.009254541248083115,-0.02133304625749588,-0.020657665969523106,0.025275421307884093,-0.08500446799090544
3.06642484664917,-0.06753833591938019,-0.120011106133461,0.06435436010360718,-0.24117302894592285,0.020799966529011726,0.008298508822917938,-0.022982523274888682,0.025418237909503184,-0.08501340438329838
3.0764570236206055,-0.05666565150022507,-0.10453972220420837,0.061158061027526855,-0.24955852329730988,0.045466162264347076,0.034274712204933167,-0.02545619347156003,0.025747241482535866,-0.08473710521736552
3.0863447189331055,-0.05513367801904678,-0.09706766903400421,0.052241384983062744,-0.23183147609233856,0.08699030429124832,0.04936642199754715,-0.027872696738755313,0.02641467552590702,-0.08424807193474813
3.0963118076324463,-0.05916377156972885,-0.09170081466436386,0.040263354778289795,-0.21169719099998474,0.11881880462169647,0.062346138060092926,-0.02915920043490912,0.027318396534034298,-0.083640154394643
3.1063590049743652,-0.05855338275432587,-0.07031480967998505,0.0231320858001709,-0.17195449769496918,0.1216077134013176,0.07091081142425537,-0.030097216043763482,0.028357590289822477,-0.08290190119525617
3.116562843322754,-0.04985214024782181,-0.04204375296831131,0.023454368114471436,-0.07769802957773209,0.11745531111955643,0.06578955054283142,-0.030573936943686587,0.029377508251944115,-0.08219183389103152
3.126340866088867,-0.042092133313417435,-0.02752244472503662,0.021373748779296875,0.017851214855909348,0.11630087345838547,0.06965294480323792,-0.03024314813941288,0.030407198225676245,-0.08150913169725159
3.1369400024414062,-0.03802973031997681,0.006758810952305794,-0.00298231840133667,0.09167163819074631,0.10805626213550568,0.06934747844934464,-0.02927139966191102,0.03144129131436953,-0.08081743660584867
3.1464858055114746,-0.03425676375627518,0.039264924824237823,-0.021341800689697266,0.14802639186382294,0.08227784186601639,0.04681197181344032,-0.027846859233534846,0.032337037505819295,-0.08027291859960167
3.1565189361572266,-0.026994779706001282,0.03035522997379303,-0.02331387996673584,0.17968684434890747,0.0665084645152092,0.020870119333267212,-0.02599843467152376,0.03303914124972399,-0.0799957703215636
3.166430950164795,-0.026177633553743362,0.015842562541365623,-0.021088778972625732,0.17040836811065674,0.06188788264989853,0.007764650508761406,-0.024107310867372847,0.03362473193630444,-0.07991829554844214
3.176590919494629,-0.029329251497983932,0.02858218550682068,-0.015697896480560303,0.1343126893043518,0.05815625935792923,-0.004340215120464563,-0.02244512064924522,0.03418152110279991,-0.07995568840658335
3.186553955078125,-0.029962461441755295,0.030609771609306335,-0.01553201675415039,0.11026076972484589,0.042387861758470535,-0.02531932108104229,-0.021149647905629246,0.03461574990715079,-0.08014311210293089
3.196465015411377,-0.02555197849869728,0.02266572043299675,-0.01526033878326416,0.06925288587808609,0.017769599333405495,-0.053505416959524155,-0.02019762364746111,0.03482817513612459,-0.08056986855311456
3.206594944000244,-0.01674157753586769,0.021888546645641327,-0.01909637451171875,0.0045937662944197655,-0.01008191704750061,-0.07811973989009857,-0.019830311825962926,0.03477601548448993,-0.08124271653553548
3.2166876792907715,-0.011422201991081238,0.029211489483714104,-0.018055975437164307,-0.07222830504179001,-0.03276432305574417,-0.10180003196001053,-0.020258920922547642,0.03444630281859521,-0.08212463527762393
3.2265639305114746,-0.008673671633005142,0.016007881611585617,-0.007168948650360107,-0.13239149749279022,-0.04411875829100609,-0.13071003556251526,-0.021530434961099753,0.03389550217922188,-0.08326524999983669
3.2366368770599365,-0.009757209569215775,0.00036799535155296326,0.005307197570800781,-0.19775132834911346,-0.048666905611753464,-0.1417464315891266,-0.023392104040724105,0.033270949362859834,-0.08459019975206475
3.2466108798980713,-0.010241039097309113,-0.0032890774309635162,-0.00014406442642211914,-0.22104547917842865,-0.05324101448059082,-0.15123331546783447,-0.025737628547358803,0.03256589822601579,-0.08599122606507183
3.2566468715667725,-0.005780063569545746,-0.0026688631623983383,-0.0018158555030822754,-0.19988960027694702,-0.05548206716775894,-0.1619402915239334,-0.028261644544536703,0.03166161219007249,-0.08750254041812358
3.2666497230529785,-0.001130569726228714,-0.01155838742852211,-0.008857429027557373,-0.15625227987766266,-0.045223791152238846,-0.15534287691116333,-0.030682494032843163,0.03058390244876985,-0.08906444984956124
3.2766337394714355,0.0008497610688209534,-0.0030105002224445343,-0.02330118417739868,-0.09134732931852341,-0.04050759971141815,-0.14010906219482422,-0.03226722784959541,0.029733417461403518,-0.09050784896268059
3.286698818206787,0.005708977580070496,0.00202125683426857,-0.02967393398284912,-0.04111210256814957,-0.040506668388843536,-0.13438738882541656,-0.03311055400069958,0.029131632375936287,-0.09187363996028773
3.2966690063476562,0.008022673428058624,-0.0091291144490242,-0.023405134677886963,-0.02121269702911377,-0.039109840989112854,-0.12774652242660522,-0.033656370190101766,0.028587951617171873,-0.09318557023180497
3.3066208362579346,0.008332481607794762,-0.017899829894304276,-0.009759128093719482,-0.0056142136454582214,-0.027827046811580658,-0.11264778673648834,-0.03388229262889849,0.02815587124657429,-0.09438754512289205
3.3168559074401855,0.0072954557836055756,-0.02788078784942627,-0.0021047592163085938,-0.006572685204446316,-0.015135753899812698,-0.09697480499744415,-0.033822936341079975,0.027880316435795204,-0.09543194688588108
3.3267297744750977,0.007332047447562218,-0.03250909224152565,-0.005493640899658203,0.03498964011669159,-0.008265063166618347,-0.0842398926615715,-0.03356828382839343,0.027690719553791918,-0.09633585973943083
3.336744785308838,0.010012349113821983,-0.02846154198050499,-0.005756080150604248,0.07447978854179382,-0.019513458013534546,-0.0724431499838829,-0.03287728412004069,0.02752733201414894,-0.09713039359101534
3.346667766571045,0.013995032757520676,-0.021371491253376007,-0.013753414154052734,0.11278512328863144,-0.035049404948949814,-0.055819813162088394,-0.03170703704097707,0.027297067538153197,-0.09779775334286786
3.356691837310791,0.018710236996412277,-0.0064229816198349,-0.015243113040924072,0.13687101006507874,-0.04777399078011513,-0.047277987003326416,-0.030399250737308543,0.026898660749226054,-0.09833970497037765
3.367584705352783,0.017105042934417725,-0.015662742778658867,-0.009944796562194824,0.12797389924526215,-0.046138279139995575,-0.03877030685544014,-0.029109875260782136,0.026488342238034975,-0.09880653452987302
3.3771018981933594,0.008597077801823616,-0.026760661974549294,-0.003768622875213623,0.10309889912605286,-0.02647882141172886,-0.025390053167939186,-0.027847666543699377,0.02625189893251467,-0.09915308192103421
3.387319803237915,-0.000592358410358429,-0.03052564710378647,0.001540541648864746,0.06430990993976593,-0.006705694366246462,-0.016833210363984108,-0.026759947960427317,0.026254763606387618,-0.09937554530270691
3.397432804107666,-0.004111563786864281,-0.029145000502467155,-0.0012021064758300781,0.03061399795114994,-0.0017607370391488075,-0.01058996096253395,-0.02589780386159111,0.026386012920339257,-0.09951297067322289
3.40726900100708,-0.0022573191672563553,-0.02517605386674404,0.0034821033477783203,0.018557818606495857,-0.009720437228679657,-0.010366415604948997,-0.02519400711410044,0.02649975218588615,-0.09962097159775292
3.417353868484497,0.0009882394224405289,-0.027780789881944656,0.009963452816009521,0.015697849914431572,-0.008185391314327717,-0.007479815743863583,-0.02462473952691647,0.026595556120783168,-0.09971099555193695
3.4272427558898926,-0.0012563932687044144,-0.022911185398697853,0.012410163879394531,0.0003347389865666628,-0.009836727753281593,-0.006050657480955124,-0.0242563676931021,0.026734325554842623,-0.09977940438840975
3.4373738765716553,-0.0021730661392211914,-0.010217808187007904,0.012788653373718262,-0.008300560526549816,-0.018650459125638008,-0.003332368563860655,-0.02425830380584294,0.0268423574974009,-0.09982093758009707
3.4467849731445312,-0.0010222885757684708,-0.01150132529437542,0.02170318365097046,-0.005889251362532377,-0.025637395679950714,-0.0035070718731731176,-0.024107451829572284,0.02685115359519865,-0.09985210824492054
3.4570207595825195,-0.003961507230997086,-0.020615581423044205,0.02783203125,-0.007639747112989426,-0.013019872829318047,-0.005693793296813965,-0.023745892797112762,0.026799383768129008,-0.09990046235374346
3.466902732849121,-0.008187906816601753,-0.008551916107535362,0.019128620624542236,-0.014158383011817932,-0.006469427142292261,-0.001483761821873486,-0.02340088480564619,0.026753076306677667,-0.09993890708680231
3.476848840713501,-0.007720250636339188,0.004296036437153816,0.0110664963722229,-0.011603346094489098,-0.01005484163761139,0.0001255864044651389,-0.023080310502749963,0.026666635154266004,-0.09994137933722345
3.4870047569274902,-0.004504097625613213,-0.0046533457934856415,0.01243370771408081,-0.0018498852150514722,-0.007193185854703188,-0.0022628430742770433,-0.02278278789139558,0.026578297880387118,-0.09994710544393963
3.496987819671631,-0.005047285929322243,-0.0033684782683849335,0.01280832290649414,0.00452918466180563,0.01167291309684515,0.0048685697838664055,-0.022306516492391466,0.026663490128771405,-0.09992795570152332
