timestamp,accel_x,accel_y,accel_z,rotation_x,rotation_y,rotation_z, pitch,roll,yaw
0.04226493835449219,0.02589135244488716,-0.0037121963687241077,0.003330230712890625,-0.0039013680070638657,0.004548558034002781,0.015046644024550915,0.005458380952705163,-0.04872340342402671,0.00013300209005027638
0.056854248046875,0.026050858199596405,-0.0031410842202603817,0.002706766128540039,-0.0034307874739170074,0.00040894001722335815,0.018034975975751877,0.005419139546448181,-0.04868448370145873,0.00030213253276629873
0.06959295272827148,0.025845564901828766,-0.0018391595222055912,0.003714323043823242,-0.0026148948818445206,-0.0015449319034814835,0.018383745104074478,0.005393550351120431,-0.04867754070633641,0.0004863310571630912
0.07761216163635254,0.025970838963985443,-0.0015727630816400051,0.0026149749755859375,-0.005457553081214428,-0.004076799377799034,0.015356795862317085,0.0053547708226699565,-0.04869601836010348,0.0006552190653027056
0.07880115509033203,0.02728300914168358,0.00017820345237851143,0.001620650291442871,-0.009054751135408878,-0.01017721276730299,0.013824359513819218,0.005274681259858676,-0.04875701127673111,0.0008026011946252601
0.0804901123046875,0.026378273963928223,0.004468996077775955,0.0024698376655578613,-0.007349529303610325,-0.01342733483761549,0.015810810029506683,0.005186199841233315,-0.04887474151572185,0.0009529264017398994
0.0890202522277832,0.024585437029600143,0.005649350583553314,0.0032573342323303223,-0.0082802539691329,-0.0140518918633461,0.015728626400232315,0.005100073527043616,-0.049004647529607086,0.0011022039211211546
0.09712505340576172,0.024348653852939606,0.005717249121516943,0.004029631614685059,-0.006281285546720028,-0.012582093477249146,0.013225788250565529,0.005015382295546461,-0.04913421102971024,0.0012463832191775233
0.10703706741333008,0.023137178272008896,0.0049269902519881725,0.004405796527862549,-0.00880514644086361,-0.012581338174641132,0.010256576351821423,0.004942286744125111,-0.04925036930202135,0.0013588069706196005
0.1170802116394043,0.022762518376111984,0.006114903371781111,0.00421750545501709,-0.010397450998425484,-0.013403189368546009,0.013738392852246761,0.004848459341076531,-0.049364113559541296,0.0014766230565635484
0.12740111351013184,0.02334924042224884,0.007015610579401255,0.005768835544586182,-0.011862820945680141,-0.010596838779747486,0.013727953657507896,0.004726826232254662,-0.0494779226581575,0.0016079896630357081
0.1373140811920166,0.022011883556842804,0.005549734458327293,0.007825255393981934,-0.008620689623057842,-0.00731236208230257,0.012529797852039337,0.004618981395335098,-0.04955970831856277,0.0017306103723564311
0.1473531723022461,0.02075526863336563,0.006153970956802368,0.007336080074310303,-0.006019779480993748,-0.0005579646676778793,0.01242247223854065,0.004536571195059953,-0.04958484739068074,0.0018601063011176055
0.1574382781982422,0.021458901464939117,0.00783449225127697,0.01012873649597168,-0.01039135828614235,-0.0010021799243986607,0.005951256956905127,0.004462330214882782,-0.04958655602996455,0.001948422752601994
0.16743016242980957,0.024068623781204224,0.0049493988044559956,0.014690101146697998,-0.015421221032738686,-0.0054460628889501095,0.00028319796547293663,0.004339077650371532,-0.04961756058463175,0.001977799575859823
0.1774892807006836,0.022582631558179855,0.003199031576514244,0.015253424644470215,-0.021174713969230652,-0.002430033404380083,-0.0034606740809977055,0.004160365293831171,-0.04965745603652012,0.0019558295972046053
0.1873159408569336,0.01928703859448433,0.006692232098430395,0.012461245059967041,-0.01703544706106186,0.007926689460873604,-0.009723576717078686,0.003838865180724758,-0.04906187372581604,0.0018825117996854159
0.19723796844482422,0.01748960092663765,0.008026882074773312,0.008649647235870361,-0.012261729687452316,0.017551885917782784,-0.014032837934792042,0.0035560809186774463,-0.04839274065131501,0.0017443488442645176
0.20723915100097656,0.01651657000184059,0.008824450895190239,0.007739543914794922,-0.004897473379969597,0.024160031229257584,-0.014836099930107594,0.0033007917606831146,-0.0476629635617991,0.0015991774361321523
0.21719908714294434,0.017024721950292587,0.00997548084706068,0.010199904441833496,-0.005026903003454208,0.02799152210354805,-0.020664693787693977,0.0031395653474112144,-0.046949585583992905,0.001429896702730195
0.2274022102355957,0.016748279333114624,0.0037267778534442186,0.012933433055877686,-0.010105817578732967,0.029605042189359665,-0.023396085947752,0.0029486019464812093,-0.0462603737588138,0.0011978062281510567
0.23729896545410156,0.01707696169614792,0.00020589795894920826,0.013500809669494629,-0.010521270334720612,0.035990502685308456,-0.02678016573190689,0.0026778423324886405,-0.045550677091495455,0.0009463652349530834
0.24726414680480957,0.0185561403632164,-0.0010313964448869228,0.011751890182495117,-0.010294202715158463,0.04014681279659271,-0.03399285674095154,0.002493403581779986,-0.04475545917459379,0.0006320155483253168
0.2574930191040039,0.017530657351017,0.00033428706228733063,0.008596420288085938,-0.007669125217944384,0.03940538316965103,-0.029037246480584145,0.0023789853825913186,-0.04400388118962744,0.00031014356659895246
0.26753997802734375,0.01720862090587616,0.0009746518917381763,0.008900880813598633,-0.002918378682807088,0.042496342211961746,-0.03137262538075447,0.0022106327998313437,-0.04333022893440205,1.4282778784140415e-05
0.27752113342285156,0.015912167727947235,-0.0037626982666552067,0.00746530294418335,-0.002793476451188326,0.04618428647518158,-0.028622379526495934,0.0020356596784205302,-0.042658746063879566,-0.0002976142763995214
0.28888416290283203,0.01664961874485016,-0.0033028407488018274,0.003008425235748291,-0.0018765002023428679,0.04659552127122879,-0.028827816247940063,0.0018393894753984568,-0.04197650344875539,-0.000581840252828675
0.2975881099700928,0.018303267657756805,-0.0029503609985113144,0.0007947683334350586,-0.00011242227628827095,0.04689912125468254,-0.030623851343989372,0.0016272943617887247,-0.04127967942790525,-0.0008752245393651119
0.30753421783447266,0.01738346740603447,-0.0031272361520677805,-0.0017098188400268555,-6.345100700855255e-06,0.046950921416282654,-0.031965285539627075,0.0015877472553764219,-0.040588173794207566,-0.0011904089039021673
0.31769609451293945,0.016820795834064484,-0.0020500333048403263,-0.0022774338722229004,0.0040661608800292015,0.04459535330533981,-0.030222512781620026,0.0016426127794174886,-0.03990288280460873,-0.0014941380981843904
0.3275589942932129,0.014934767037630081,-0.005057517439126968,0.00209808349609375,0.002211385639384389,0.04042639583349228,-0.028956767171621323,0.0017326621395754695,-0.03922177373326054,-0.0017890081946515487
0.3385481834411621,0.014184854924678802,-0.00504796439781785,0.0007333159446716309,0.0012875350657850504,0.035166122019290924,-0.029698723927140236,0.0017727331614426835,-0.0386087271185002,-0.002084282299637107
0.34798312187194824,0.014550231397151947,-0.005602661520242691,-0.002266824245452881,0.0018482303712517023,0.029674239456653595,-0.027016334235668182,0.0017826117687268228,-0.03805817260447747,-0.0023663708712613933
0.35760498046875,0.015282180160284042,-0.003667891025543213,-0.0024469494819641113,0.004159321077167988,0.026415329426527023,-0.02381947450339794,0.0019168453633787862,-0.037569076389410656,-0.0026230175387752007
0.3675999641418457,0.015237119048833847,-0.0027087535709142685,-0.004261195659637451,0.004030990414321423,0.021596871316432953,-0.02210887521505356,0.0020367499054329877,-0.03711171508055999,-0.0028508532690905827
0.3775949478149414,0.015707027167081833,-0.0021123234182596207,-0.004077136516571045,0.004384125582873821,0.016799720004200935,-0.019903242588043213,0.00214489734629126,-0.036665800601090315,-0.003056125638971985
0.3880319595336914,0.015908610075712204,-0.00518485251814127,-0.0033158063888549805,0.0028776749968528748,0.011505622416734695,-0.021816298365592957,0.0022461975684971995,-0.03628730091564824,-0.00327459343767406
0.39765024185180664,0.016096703708171844,-0.0066363089717924595,-0.0009552836418151855,0.0008416883647441864,0.003994976170361042,-0.014715511351823807,0.002305362363822022,-0.03598692778799821,-0.003458119284330017
0.40766215324401855,0.014043979346752167,-0.004074784927070141,-0.0011917948722839355,0.005517832934856415,0.0009344709105789661,-0.012902325950562954,0.002440737612282784,-0.03576512506140601,-0.003593735001430168
0.41765713691711426,0.014493368566036224,-0.0029129611793905497,-0.004648566246032715,0.009544266387820244,0.0006383275613188744,-0.0089113125577569,0.0026107415208429254,-0.03555826822525685,-0.0037077379842952187
0.42774105072021484,0.014814425259828568,-0.0023125754669308662,-0.0029178857803344727,0.011779007501900196,-0.0019869725219905376,-0.0034074108116328716,0.0028144003633700705,-0.03536042094654263,-0.003759889579301073
0.4383540153503418,0.016499564051628113,-0.0033456350211054087,0.0017260313034057617,0.009233025833964348,-0.010005483403801918,-0.0011240164749324322,0.002971525553733438,-0.03519916339531024,-0.0037776585226696737
0.4477720260620117,0.01787685975432396,-0.003930983599275351,0.0027979612350463867,0.005036000162363052,-0.011670980602502823,0.002852615900337696,0.003088082977228622,-0.0350810336709923,-0.0037641121515158142
0.45776796340942383,0.020254988223314285,-0.001780322752892971,0.004082322120666504,0.0009142265189439058,-0.01772461272776127,0.006252407096326351,0.003133030808064764,-0.03500245180730539,-0.003713489315028003
0.46796107292175293,0.02144628018140793,-0.0021689257118850946,0.005167484283447266,0.0010479670017957687,-0.0181745532900095,0.00361449271440506,0.0032174505372483597,-0.034942498377053134,-0.003665200804060823
0.4778709411621094,0.020056989043951035,-0.0027956783305853605,0.005687594413757324,-0.0008796290494501591,-0.021093910560011864,0.0072323973290622234,0.00332312048546418,-0.0348959652497015,-0.0036109311096480965
0.488767147064209,0.020253442227840424,0.0007588861044496298,0.00916600227355957,-0.002720289397984743,-0.023203710094094276,0.009476322680711746,0.0033681631695662087,-0.03490932294268418,-0.003522436640064158
0.4979119300842285,0.021589647978544235,0.0003806212916970253,0.011270880699157715,-0.005627928767353296,-0.02461944706737995,0.009840110316872597,0.0033561098395323017,-0.03493328759228417,-0.0034252268751663257
0.5078451633453369,0.020207807421684265,-0.0010304017923772335,0.013544321060180664,-0.005870526190847158,-0.02152063697576523,0.010908517986536026,0.0033336366888446177,-0.03493999614351834,-0.0033307729118271317
0.5178070068359375,0.019324876368045807,3.5668956115841866e-05,0.012967050075531006,-0.0036321391817182302,-0.015803096815943718,0.012800161726772785,0.0033315907814034837,-0.03486573938762267,-0.0032294502050612735
0.5281381607055664,0.01814081519842148,0.003121629822999239,0.014802038669586182,-0.003009175881743431,-0.014192016795277596,0.014778037555515766,0.0033657938620223872,-0.03474972694372649,-0.003087866362683153
0.5379481315612793,0.01876615732908249,0.002888410585001111,0.016745686531066895,-0.0008714564610272646,-0.010474244132637978,0.017314432188868523,0.003376715285291769,-0.03458151167352251,-0.0029221134039402407
0.5478031635284424,0.01807098463177681,-0.0005124048329889774,0.01725679636001587,-0.001180433202534914,-0.006661796476691961,0.017717953771352768,0.0034091273671050045,-0.03435922447526773,-0.0027459333544064017
0.5578460693359375,0.01688765361905098,0.0011838774662464857,0.013877332210540771,-0.000763648422434926,-0.0026113945059478283,0.01760024204850197,0.0034422037207524816,-0.03412180878058328,-0.0025724346155747597
0.5678441524505615,0.01688620075583458,0.003146829316392541,0.013321161270141602,0.000835097162052989,-0.0022544865496456623,0.016187861561775208,0.0034215116432582374,-0.033876067664160625,-0.002400450170179422
0.5778779983520508,0.016336239874362946,0.003811788512393832,0.013452529907226562,0.0028276743832975626,-0.0016379649750888348,0.018143421038985252,0.0034303424552342603,-0.03360060628477332,-0.0022368582300136028
0.5881409645080566,0.016086149960756302,0.0037148285191506147,0.011019349098205566,0.001508177723735571,0.0014088691677898169,0.01826576702296734,0.00347071279382866,-0.0333503793116415,-0.0020681824603710135
0.5980191230773926,0.0161069817841053,0.003247268730774522,0.008067071437835693,0.0010703541338443756,0.0029551004990935326,0.01520845852792263,0.003476175061423237,-0.033111677636812824,-0.0019008243300735294
0.6094779968261719,0.01739244908094406,0.005189723335206509,0.006670355796813965,-0.0017649801447987556,-0.0006981357000768185,0.009022573940455914,0.0034197282604802124,-0.03290166566723974,-0.0017780768388551628
0.617854118347168,0.018359195441007614,0.0026578109245747328,0.0060967206954956055,-0.009908393956720829,-0.004877967294305563,0.010628992691636086,0.003313962466503294,-0.032723893380509156,-0.0016809909145017938
0.6280379295349121,0.01820945367217064,-0.0007508853450417519,0.004590928554534912,-0.017558541148900986,-0.007085061632096767,0.012491554021835327,0.003185905001380249,-0.03258932414952382,-0.001577419905299505
0.6381571292877197,0.018856823444366455,0.00250832992605865,0.0030689239501953125,-0.021776188164949417,-0.009513864293694496,0.013456949964165688,0.0029813746562987794,-0.032488939893573016,-0.0014447945600477151
0.64788818359375,0.018200606107711792,0.0012777484953403473,0.0030721426010131836,-0.02168770506978035,-0.011291611939668655,0.013250874355435371,0.002727354643532181,-0.03241249258411018,-0.0013200760333131056
0.6580381393432617,0.015878483653068542,-0.0035516840871423483,0.005531489849090576,-0.01723463460803032,-0.013596579432487488,0.0174485482275486,0.0024755578252462036,-0.03234861658043304,-0.0011802508677058446
0.6680071353912354,0.01469043642282486,-0.0021056588739156723,0.007456481456756592,-0.012395404279232025,-0.01424914225935936,0.017969677224755287,0.0022736328024865666,-0.0322896732306514,-0.0010073345039451874
0.6780300140380859,0.012689471244812012,-0.00039238110184669495,0.0072457194328308105,-0.009904016740620136,-0.011655488982796669,0.02009727619588375,0.002125338055798052,-0.03221126218023719,-0.0008185709182716505
0.688657283782959,0.012418977916240692,-0.0007883473299443722,0.008134901523590088,-0.010087874718010426,-0.009558338671922684,0.018051382154226303,0.00195825359439423,-0.03209328369771511,-0.0006302822453637374
0.6981010437011719,0.010195482522249222,-0.005064290948212147,0.007453739643096924,-0.009653778746724129,-0.0050019375048577785,0.017161620780825615,0.0018326997350244481,-0.0319296323635376,-0.0004653892360873277
0.7080831527709961,0.00862005352973938,-0.004596625454723835,0.007749676704406738,-0.0069144186563789845,-0.0029680803418159485,0.02117851935327053,0.0017815670521048519,-0.031742659528769875,-0.0002800555543044906
0.7180662155151367,0.007880493998527527,-0.0031859097070991993,0.007497429847717285,-0.0035846682731062174,-0.00020904606208205223,0.020986506715416908,0.0016969207657959553,-0.03152178359416958,-7.739142980254535e-05
0.7280769348144531,0.007473398000001907,-0.001331422128714621,0.005307197570800781,0.0014031659811735153,0.0005028168670833111,0.018123341724276543,0.0016745772461447047,-0.031297677332029455,0.00011650030043161887
0.7387542724609375,0.007922114804387093,-0.00010977010242640972,0.005832314491271973,0.004780054558068514,0.003574507078155875,0.016821855679154396,0.0017823384997651098,-0.031090171519110397,0.00029471887069990716
0.7480261325836182,0.007174130529165268,0.0009252664167433977,0.00516742467880249,-0.00033268239349126816,0.005083986558020115,0.018628276884555817,0.0018408123185294876,-0.030876145627775086,0.0004738036040501479
0.7582101821899414,0.008896812796592712,0.0007628870662301779,0.0026707053184509277,-0.0029729402158409357,0.003727904986590147,0.016462594270706177,0.0018310210388393382,-0.03069139078535927,0.0006498184791091862
0.7682580947875977,0.008032498881220818,-0.0010925582610070705,0.0031487345695495605,-0.004843494854867458,0.0009042886085808277,0.009854705072939396,0.0018066302307564771,-0.03052890233784891,0.0007773579144599061
0.778278112411499,0.007594510912895203,0.000906058237887919,0.0022816061973571777,-0.004601946100592613,-0.004265173338353634,0.00945416558533907,0.0018368631604045306,-0.030441828834448657,0.0008708895881131858
0.7881121635437012,0.008545370772480965,0.004536550026386976,0.00048226118087768555,-0.0045090350322425365,-0.0037944153882563114,0.0037157461047172546,0.0018662798628858153,-0.030400850539747094,0.000936325587001906
0.7981462478637695,0.0062885582447052,0.0018691901350393891,-0.00014150142669677734,-0.00983748771250248,-0.0014180769212543964,0.004681941121816635,0.0018386907143852873,-0.030341274049977367,0.0009824342818829596
0.8081800937652588,0.007700527086853981,0.00020492193289101124,-0.0002770423889160156,-0.01160035002976656,-0.004570415709167719,0.002316574566066265,0.0017460776568387149,-0.030288370787005112,0.0010115081879346127
0.818122148513794,0.008039072155952454,-0.0030357688665390015,0.002394258975982666,-0.015346884727478027,-0.005426356103271246,-0.0008877408690750599,0.0016181801379011828,-0.03026068438160446,0.0010179849666648432
0.8282361030578613,0.00800403393805027,-0.0025497381575405598,0.0050501227378845215,-0.013354124501347542,-0.006669563241302967,-0.00036570808151736856,0.0014633409605883038,-0.03024088817931363,0.00101110621737625
0.8386969566345215,0.007409079000353813,-0.00046167185064405203,0.006835997104644775,-0.007020861841738224,-0.010292528197169304,0.002332074102014303,0.001354141565553281,-0.030225755399537466,0.0010138769587616104
0.8481411933898926,0.007384076714515686,-0.0016440332401543856,0.006073415279388428,-0.005977135617285967,-0.006376349367201328,0.0028988479170948267,0.0013161899264121587,-0.030216007245637125,0.0010354334791677381
0.8583149909973145,0.006142590194940567,-0.0006947111105546355,0.004700899124145508,-0.008041352033615112,-0.005476200953125954,2.2900523617863655e-05,0.0012431726731834238,-0.030195208004522835,0.0010573709032048793
0.86834716796875,0.005562296137213707,-0.0020814440213143826,0.0069155097007751465,-0.015899574384093285,-0.003003722056746483,-0.0010296341497451067,0.0010618835867923838,-0.03013367837987949,0.001051745132028457
0.8784151077270508,0.0050326138734817505,-0.0034670832101255655,0.009098947048187256,-0.019393108785152435,-0.00322796031832695,0.0031331530772149563,0.0008664300013300658,-0.030092255262988733,0.0010577069682928969
0.8885459899902344,0.0072039645165205,0.0015852006617933512,0.010244667530059814,-0.014290392398834229,-0.004504235927015543,-0.00035920983646064997,0.0007154674381830026,-0.03005106107075534,0.00106871764405847
0.8983070850372314,0.0062674712389707565,0.006189585663378239,0.006766796112060547,-0.011624835431575775,-0.007529054302722216,-0.0035390241537243128,0.0006506624813489906,-0.03001481848019001,0.0010391004252385907
0.908268928527832,0.009399939328432083,0.007206605281680822,0.007864892482757568,-0.015147481113672256,-0.013065101578831673,-0.0027310210280120373,0.0005690496091271932,-0.030034500493212234,0.0010146214602595508
0.9182939529418945,0.009567055851221085,0.0053253560326993465,0.008428692817687988,-0.026803603395819664,-0.009993677027523518,-0.0013283342123031616,0.00038152537506216266,-0.030064297696098575,0.00097905828169806
0.9283809661865234,0.00975121557712555,0.0016984011745080352,0.0025536417961120605,-0.03592037037014961,-0.007966922596096992,0.0026318926829844713,0.00011150450497225654,-0.03008061382507275,0.0009917428059692608
0.9384851455688477,0.010690223425626755,-0.0010622309055179358,0.0072525739669799805,-0.05460697412490845,-0.012562474235892296,-0.007258821278810501,-0.0003145326870364355,-0.030104108895481464,0.0009377485486765018
0.9483461380004883,0.013564607128500938,-0.0019272922072559595,0.012222230434417725,-0.0793507844209671,-0.03134392946958542,0.0006182767683640122,-0.0009049360209087254,-0.030247244879477077,0.0008905011968522024
0.9585940837860107,0.020697282627224922,0.004939751699566841,0.011295795440673828,-0.08901327103376389,-0.04127778857946396,0.006071099080145359,-0.0016672877118656213,-0.03057468224035754,0.0009146722394836147
0.9686169624328613,0.015779979526996613,-0.0008568011689931154,0.006249427795410156,-0.11258967965841293,-0.03124268539249897,0.0016756582772359252,-0.0026573237902859687,-0.030860828976459913,0.0009088438037474753
0.9786441326141357,0.006614621728658676,-0.00231151026673615,0.0037380456924438477,-0.1293787807226181,-0.017307693138718605,0.004726842045783997,-0.0038984171340303397,-0.031018793523431645,0.0008979131624938374
0.9891791343688965,0.006168583407998085,-0.0003787064924836159,0.0032108426094055176,-0.1392630785703659,-0.030177198350429535,0.02164798229932785,-0.00524626675863981,-0.03109177950120178,0.0009815167929497052
0.9985132217407227,0.018424488604068756,0.012069934979081154,0.012573778629302979,-0.108797587454319,-0.08115436136722565,0.0014194088289514184,-0.0064847812373476,-0.031537836681645524,0.001124835166262061
1.0085582733154297,0.02247951179742813,5.2945222705602646e-05,0.01942378282546997,-0.15667270123958588,-0.08600300550460815,-0.0026345080696046352,-0.007744355597774115,-0.03225184708257727,0.0010032722969893274
1.018367052078247,0.011462755501270294,0.0008527059108018875,0.015023410320281982,-0.17791354656219482,-0.0815533921122551,0.009334269911050797,-0.009263986897999604,-0.0329699334996286,0.0010231162774164857
1.028442144393921,0.0020413771271705627,-0.010556233115494251,0.007740914821624756,-0.22952057421207428,-0.04186776652932167,-0.009641338139772415,-0.011273616627431728,-0.033391408130298374,0.0009528036114084794
1.0386791229248047,-0.007038328796625137,-0.03268014267086983,0.011154711246490479,-0.2799917459487915,-0.03885253518819809,-0.03090428188443184,-0.013683358904734473,-0.033529110235706906,0.0005995251040565371
1.0484521389007568,0.0057661272585392,-0.00031460076570510864,0.021098613739013672,-0.2517949044704437,-0.08544289320707321,0.017429906874895096,-0.01616916913102071,-0.0339296947368004,0.00046115028103350323
1.0585670471191406,0.026258282363414764,0.04299648851156235,0.02691882848739624,-0.24462860822677612,-0.10623818635940552,0.012318235822021961,-0.018436424974398555,-0.034816314417558544,0.0005590231511176587
1.0685241222381592,0.017233356833457947,0.015103694051504135,0.015045523643493652,-0.25206923484802246,-0.10048061609268188,0.01263754814863205,-0.020740669046807988,-0.03575773207670841,0.0005941403035321853
1.0787591934204102,0.00626889243721962,-0.0015832222998142242,-0.012775123119354248,-0.2572786509990692,-0.08048692345619202,0.01438245177268982,-0.023268043836127107,-0.03643834228932518,0.000643821681776731
1.088813066482544,0.0017031840980052948,0.003519676625728607,-0.016340136528015137,-0.2603509724140167,-0.05521925538778305,-0.0008859831723384559,-0.025596869482904044,-0.036818930962659376,0.0006315745954809178
1.0985701084136963,-0.004339732229709625,-0.013798506930470467,-0.004803001880645752,-0.25838449597358704,-0.04112314432859421,-0.013429737649857998,-0.02794702258275211,-0.03714159182171613,0.0004640137278486607
1.1085591316223145,-0.0014995373785495758,-0.019261520355939865,0.013385593891143799,-0.25917941331863403,-0.04594164714217186,-0.021938057616353035,-0.030115052752735214,-0.037497351493784734,0.00018763017083394458
1.118535041809082,0.006167963147163391,-0.006606686860322952,0.028088271617889404,-0.2714424729347229,-0.07454106211662292,-0.010446785017848015,-0.03201802369111055,-0.03813354753138714,-0.00010232051320158759
1.128575086593628,0.022822275757789612,0.01316167414188385,0.007974386215209961,-0.24888598918914795,-0.10176465660333633,0.025883419439196587,-0.03442200961359452,-0.038907535403368526,-0.00012140908050186527
1.138775110244751,0.028785254806280136,0.008460018783807755,-0.007166802883148193,-0.22466561198234558,-0.10211139917373657,0.012028324417769909,-0.03717230479828561,-0.03962637055386713,1.4725519307031768e-05
1.148522138595581,0.016681894659996033,-0.020522940903902054,-0.014588773250579834,-0.22708164155483246,-0.08749503642320633,0.012192481197416782,-0.039377704955216114,-0.04034486800514862,3.772582140010522e-05
1.1588470935821533,0.015543907880783081,-0.021537311375141144,-0.013607025146484375,-0.2292768955230713,-0.10279889404773712,0.04300205782055855,-0.041446617709054466,-0.04116475836797052,0.0002120023845858427
1.1688480377197266,0.026750221848487854,-0.007408954203128815,-0.005897819995880127,-0.20101016759872437,-0.1479794681072235,0.07178955525159836,-0.04346388065077134,-0.04232115657567773,0.0007205702625002191
1.1792781352996826,0.033670030534267426,-0.004535757005214691,-0.011848986148834229,-0.18738357722759247,-0.16796861588954926,0.07269769161939621,-0.04504780044310054,-0.04389114822502777,0.0013730837263545988
1.1898770332336426,0.02512788400053978,-0.017901115119457245,-0.031994760036468506,-0.1734786033630371,-0.1567818820476532,0.08355433493852615,-0.04690999996610457,-0.04548793745755236,0.002064046637132542
1.1988041400909424,0.010498322546482086,-0.0293814018368721,-0.03114110231399536,-0.11242695897817612,-0.14059492945671082,0.07476536929607391,-0.0483974683396298,-0.046947629556865794,0.0028052028155725692
1.208799123764038,-0.00017453357577323914,-0.023771077394485474,-0.008952677249908447,-0.0341930091381073,-0.1458021104335785,0.09817146509885788,-0.04916623232478801,-0.048043619286967175,0.0036135335646247367
1.2186331748962402,0.006856817752122879,0.003523685038089752,0.004115700721740723,0.02651108242571354,-0.15345576405525208,0.1319051831960678,-0.049200003360026924,-0.04912670733327853,0.004812346999884113
1.2287590503692627,0.012363288551568985,0.000538308173418045,0.01088714599609375,0.08114541321992874,-0.16629695892333984,0.13559021055698395,-0.048293308414623044,-0.050392104105956015,0.006186782242588284
1.238887071609497,0.008641485124826431,-0.030439503490924835,0.032792508602142334,0.15616212785243988,-0.2067495733499527,0.19094906747341156,-0.04681400613313844,-0.05188886128629485,0.00784286361754255
1.2487201690673828,0.018405191600322723,-0.015630237758159637,0.0423886775970459,0.2794329822063446,-0.2619822919368744,0.27412205934524536,-0.04466728688969042,-0.05377845937234727,0.010311434535448555
1.2586631774902344,0.02767757698893547,-0.015040706843137741,0.04157167673110962,0.4149298369884491,-0.3168894648551941,0.3413415551185608,-0.04134336229579581,-0.05651890739024629,0.013571997785136769
1.2686290740966797,0.03014083206653595,-0.06848397850990295,0.03637605905532837,0.5567184090614319,-0.41598328948020935,0.4446223974227905,-0.036753953946939276,-0.05998734446895267,0.017757592226950305
1.2792251110076904,0.03995245695114136,-0.10915529727935791,0.04465562105178833,0.7633320689201355,-0.563444972038269,0.5781729817390442,-0.030485688348808486,-0.06468595486949004,0.023266802500177472
1.2889161109924316,0.05217611789703369,-0.13103845715522766,0.0518534779548645,0.9126480221748352,-0.6953164339065552,0.7045636773109436,-0.022474057995969528,-0.07080798562205656,0.030256066413790354
1.2986080646514893,0.04681988060474396,-0.18272356688976288,0.030640125274658203,0.9962827563285828,-0.8444558382034302,0.8483251333236694,-0.013519250483946865,-0.07834039899916685,0.03868511361715419
1.3086521625518799,0.030940547585487366,-0.2799980640411377,0.015608429908752441,0.9852213263511658,-1.0389825105667114,1.011980414390564,-0.00430228001785381,-0.08763322622062525,0.048793731254933366
1.319162130355835,0.02548934519290924,-0.37169966101646423,0.0029619336128234863,0.8368737697601318,-1.2376632690429688,1.1698052883148193,0.0038649365078084036,-0.09907755209090306,0.060498531417080954
1.3288211822509766,0.014474183320999146,-0.4742707908153534,-0.04079854488372803,0.6016578674316406,-1.4741079807281494,1.3747068643569946,0.009692367539928913,-0.11269469556451867,0.073893827028679
1.3390591144561768,-0.008661895990371704,-0.5698772072792053,-0.0941808819770813,0.36553776264190674,-1.698518991470337,1.6336884498596191,0.012673203423431789,-0.12882005596361673,0.08939217571352938
1.3488240242004395,-0.04204314947128296,-0.6037623286247253,-0.13450723886489868,0.1995001882314682,-1.892330527305603,1.9169505834579468,0.013074600264286041,-0.14728318213743996,0.10729568127698873
1.3588809967041016,-0.09343914687633514,-0.6035041213035583,-0.15119826793670654,-0.04426506906747818,-2.039104461669922,2.25109601020813,0.010586062506791468,-0.16714364724695163,0.128074924169836
1.368847131729126,-0.14047303795814514,-0.6177144646644592,-0.11132586002349854,-0.3231903314590454,-2.179309606552124,2.530601739883423,0.004569471408515356,-0.1885246967213281,0.1513531653667124
1.379744052886963,-0.1924886703491211,-0.6850207448005676,-0.07127892971038818,-0.6487410068511963,-2.1517820358276367,2.74847412109375,-0.0054553722018348735,-0.21033776204699917,0.17631949180209228
1.3891119956970215,-0.26163241267204285,-0.7131233811378479,-0.14269447326660156,-0.7602722644805908,-2.0069668292999268,2.9463138580322266,-0.018788574449706302,-0.23083976271972512,0.20253134182221008
1.3988280296325684,-0.311753511428833,-0.712164580821991,-0.20218807458877563,-0.46315085887908936,-1.7942261695861816,2.9886529445648193,-0.03168896608056286,-0.24847519971628623,0.23044087606680258
1.4088830947875977,-0.27645593881607056,-0.6619889140129089,-0.21936339139938354,0.015985071659088135,-1.8565025329589844,2.9490082263946533,-0.04174654171746428,-0.2662449923320706,0.2584255420797175
1.418839931488037,-0.2873774766921997,-0.5592136383056641,-0.21641290187835693,0.7553762793540955,-1.6086088418960571,3.178769588470459,-0.046244949162593876,-0.2824892433105837,0.28909697848887045
1.4289159774780273,-0.3132481276988983,-0.44310545921325684,-0.197800874710083,1.6436134576797485,-1.3625733852386475,3.295328378677368,-0.04413300437273639,-0.2958398903503256,0.3235140120910244
1.4390792846679688,-0.29599863290786743,-0.46725571155548096,0.0012298822402954102,1.917272686958313,-1.0374826192855835,3.111501932144165,-0.03609596997626804,-0.30596455455841143,0.3595282526178604
1.4491000175476074,-0.24260225892066956,-0.337385356426239,0.24023950099945068,1.848873496055603,-0.5626171231269836,3.1420741081237793,-0.027406530559583236,-0.31275833113287405,0.39540145039267693
1.45912504196167,-0.3248205780982971,-0.22827790677547455,0.42661094665527344,1.6628758907318115,-0.1283349096775055,3.1130940914154053,-0.020424143045690492,-0.31544418966935495,0.43037966252811627
1.4693341255187988,-0.3790031969547272,-0.26680219173431396,0.5078230500221252,1.5672616958618164,0.3641265332698822,3.0816097259521484,-0.014452888595193428,-0.31372657395574444,0.46503057469867976
1.4798460006713867,-0.2647119462490082,-0.18683527410030365,0.5022130608558655,1.703511118888855,0.8837513327598572,3.0740714073181152,-0.008277088966979594,-0.3071845452478733,0.49925730022271997
1.4893381595611572,-0.26259997487068176,-0.15188825130462646,0.4575788974761963,1.92009699344635,1.376673936843872,3.1859986782073975,-0.0002617298031039751,-0.29573895455924604,0.5345370623500333
1.4990971088409424,-0.29135414958000183,-0.18529264628887177,0.4279700517654419,2.068777084350586,1.9407193660736084,3.209059953689575,0.009882617169965004,-0.2792929310857438,0.5709448847680505
1.509261131286621,-0.24899497628211975,-0.13395941257476807,0.45035630464553833,1.9726041555404663,2.470963478088379,3.2556118965148926,0.021193465408876087,-0.25776794315055573,0.6076413775416102
1.519026279449463,-0.18826177716255188,-0.12420187145471573,0.5386282205581665,1.4572588205337524,2.874711275100708,3.417741060256958,0.029595703449698325,-0.23184875952329262,0.6440327595887896
1.5290870666503906,-0.11627605557441711,-0.2633582651615143,0.6396644711494446,0.9479523301124573,3.1160695552825928,3.529078722000122,0.034164164421795706,-0.20305966519963523,0.6809623433798893
1.5392851829528809,0.027266815304756165,-0.4468165636062622,0.6075590252876282,0.38205456733703613,3.2327523231506348,3.5071020126342773,0.03393324805780574,-0.17242970068223917,0.7165978878609671
1.5490832328796387,0.2262950986623764,-0.37776291370391846,0.45349395275115967,0.2186441421508789,3.3416659832000732,3.6831424236297607,0.03105545959199232,-0.14069063456989805,0.7526386651655335
1.5591330528259277,0.5283432006835938,-0.09124034643173218,0.17487889528274536,0.2121814489364624,3.507772922515869,3.6981844902038574,0.02859072510073431,-0.10752802500940858,0.7896680161528118
1.5691990852355957,0.6421590447425842,0.08441759645938873,0.019928395748138428,0.1579965502023697,3.666090250015259,3.7422220706939697,0.02718512283840351,-0.07263922766627827,0.8269133289589782
1.5791301727294922,0.6318458318710327,0.07087565213441849,0.05338674783706665,-0.05613730847835541,3.743716239929199,3.7647769451141357,0.025727627254149957,-0.03646816561421636,0.8645116203240392
1.5891830921173096,0.7513586282730103,0.06616567075252533,0.10065323114395142,-0.312042236328125,3.785499334335327,3.720781087875366,0.023168362782516553,0.0002740268656291774,0.9020200964104736
1.5992870330810547,0.8990017771720886,0.145575150847435,0.0474703311920166,-0.5846380591392517,3.754199981689453,3.667844533920288,0.01935553854249615,0.037354133764990034,0.9390778711023486
1.6099309921264648,1.0045455694198608,0.2519277036190033,-0.053903818130493164,-0.6558670997619629,3.595830202102661,3.578122615814209,0.014974414387520483,0.07357762541068523,0.9757432331819121
1.619314193725586,1.1038966178894043,0.32380855083465576,-0.1611984372138977,-0.5386989116668701,3.344475030899048,3.4697446823120117,0.012208985027956058,0.10794490779921175,1.0113862883098235
1.6294679641723633,1.1626839637756348,0.3764355182647705,-0.2879740595817566,-0.45869600772857666,2.936971426010132,3.367710828781128,0.011552227403449983,0.13902690261466547,1.04603829096208
1.639491081237793,1.1354902982711792,0.37834274768829346,-0.34449946880340576,-0.5443600416183472,2.505786418914795,3.049555778503418,0.011643663966111096,0.16589409819234846,1.0787110520579626
1.649247169494629,0.9778424501419067,0.4725869596004486,-0.33918124437332153,-0.8048049211502075,1.9936037063598633,2.5636699199676514,0.010032063402660074,0.18813057988609616,1.10764108352347
1.6593952178955078,0.7683817148208618,0.5639233589172363,-0.30528026819229126,-1.0686861276626587,1.4135117530822754,1.9312946796417236,0.0051616619181891095,0.2050550304868419,1.131625981771118
1.6693811416625977,0.6127126216888428,0.6674191951751709,-0.3169482946395874,-0.9379725456237793,0.861003041267395,1.3319814205169678,-0.0012821395300295778,0.2162549126000076,1.1496094013898324
1.6794960498809814,0.4655168354511261,0.7059287428855896,-0.37607723474502563,-0.5639795064926147,0.3431953191757202,0.7203090786933899,-0.0067179321432761585,0.22233520865262787,1.1611021512132393
1.6895511150360107,0.33929193019866943,0.5922687649726868,-0.41006308794021606,0.11903199553489685,-0.009628646075725555,0.2892005443572998,-0.007829097624429496,0.22390606497350785,1.1665267080709518
1.6992502212524414,0.2662010192871094,0.44073766469955444,-0.33850425481796265,0.8310374021530151,-0.18246354162693024,0.051624737679958344,-0.0027897085503454633,0.22280596293127505,1.1670164157560503
1.7093350887298584,0.17496567964553833,0.23885473608970642,-0.18420833349227905,1.284738540649414,-0.15757866203784943,-0.03736681491136551,0.007714544852684013,0.22103168306342724,1.1646021666870106
1.7193031311035156,0.12882982194423676,0.08992302417755127,-0.015739142894744873,1.3641002178192139,-0.0007980926893651485,0.011100584641098976,0.020878380205484794,0.2202068103608313,1.1614756447624726
1.7294530868530273,0.1104423999786377,-0.012169335037469864,0.14299118518829346,1.1373988389968872,0.19319437444210052,0.14382688701152802,0.03336894539766843,0.22123775424186704,1.1594017157615077
1.740326166152954,0.11123785376548767,-0.05512940511107445,0.22782748937606812,0.6667288541793823,0.33326971530914307,0.2751047611236572,0.04281444216699932,0.22394743631128727,1.1594423467908466
1.7492320537567139,0.10229010879993439,-0.0482734851539135,0.25604647397994995,0.12689702212810516,0.34399524331092834,0.37155091762542725,0.04737092557687905,0.22726054828541228,1.161778112690216
1.7611711025238037,0.07843734323978424,-0.053442321717739105,0.2543569803237915,-0.3574470281600952,0.2635134756565094,0.39893966913223267,0.0470998534932744,0.23019391800477582,1.1658430156584738
1.7695879936218262,0.06487323343753815,-0.03392285481095314,0.18215256929397583,-0.6475558280944824,0.12770280241966248,0.3756151497364044,0.04294872564960761,0.23192204140511688,1.1708669845355024
1.779280185699463,0.06030179560184479,-0.025803688913583755,0.10780000686645508,-0.716627836227417,0.006621651817113161,0.29681673645973206,0.03693345216714915,0.23239237521181533,1.1757550024885979
1.7896010875701904,0.056069523096084595,0.0014648623764514923,0.04930943250656128,-0.5416597723960876,-0.05753101035952568,0.20377901196479797,0.031300768444615844,0.23196045271400983,1.1796636591125023
1.7993271350860596,0.051733165979385376,0.029235418885946274,0.016013383865356445,-0.2349611073732376,-0.08109413087368011,0.1291673481464386,0.027819798719586314,0.23113923764824956,1.1821898304085512
1.8097271919250488,0.04629121720790863,0.03543960303068161,0.013908863067626953,0.08225054293870926,-0.04585260525345802,0.062190085649490356,0.027340455126982445,0.23045628726370668,1.1832679776397879
1.8229191303253174,0.0404067188501358,0.036884237080812454,0.022466421127319336,0.2939332127571106,-0.004047370981425047,0.010588938370347023,0.029319937909063638,0.23022869732537468,1.183156581222498
1.8308091163635254,0.03255446255207062,0.027541659772396088,0.03496730327606201,0.36242347955703735,0.012309454381465912,-0.007705113850533962,0.032628483888875785,0.23030924928540047,1.1823665424500638
1.8400921821594238,0.041329801082611084,0.009540390223264694,0.06065112352371216,0.2634468376636505,-0.004768865182995796,-0.010327794589102268,0.03571667031404168,0.23037948609056041,1.1815492800555787
1.8494319915771484,0.04130809009075165,-0.01616945117712021,0.09836488962173462,0.10445047169923782,-0.02447652444243431,-0.0076421028934419155,0.03750436034537099,0.2302603148817806,1.1810207515529847
1.859354019165039,0.03594982624053955,-0.01696097105741501,0.09798556566238403,-0.036757517606019974,-0.034543540328741074,0.013683425262570381,0.03779642303543567,0.22993605611368348,1.1809886484213794
1.8695411682128906,0.0338318794965744,-0.019344858825206757,0.08216899633407593,-0.0723736360669136,0.0014369203709065914,0.03928487375378609,0.03725847267016337,0.22972436300621535,1.1813856899926714
1.8793182373046875,0.02131834626197815,-0.029731538146734238,0.0712052583694458,-0.04557797312736511,0.050875041633844376,0.05554267391562462,0.03675914656293149,0.22997231891919373,1.181980964162459
1.8895440101623535,0.014217391610145569,-0.03713225945830345,0.04223144054412842,0.0398506261408329,0.09614288061857224,0.07068450003862381,0.03683528417872251,0.2306844977355158,1.1826182207535543
1.8993680477142334,0.015999138355255127,-0.02074487879872322,0.012439548969268799,0.08892575651407242,0.12009188532829285,0.06472301483154297,0.037689802943720783,0.23177800549728633,1.1831168277511575
1.909451961517334,0.01738029718399048,-0.00455765426158905,0.014062225818634033,0.05468962341547012,0.11208154261112213,0.06188344210386276,0.03857311079207896,0.23293905844393833,1.1835549274256474
1.9194231033325195,0.013706326484680176,-0.02048349380493164,0.03415656089782715,0.008829191327095032,0.09070834517478943,0.06574902683496475,0.03902028485520895,0.23392855290018644,1.1841006526797682
1.9296331405639648,0.014529436826705933,-0.030509833246469498,0.0251389741897583,-0.04324396699666977,0.06602519005537033,0.08184532821178436,0.0390800548955749,0.23490339449926473,1.1848394218961769
1.9393129348754883,0.01492832601070404,-0.025139134377241135,0.00340878963470459,-0.09589759260416031,0.05730706453323364,0.09838409721851349,0.038667356873607436,0.235698163055152,1.185879380975499
1.9494562149047852,0.011575594544410706,-0.015532288700342178,0.012387335300445557,-0.13601051270961761,0.06172187626361847,0.10435313731431961,0.03783658598282938,0.23645577711427093,1.1871332673240524
1.9594991207122803,0.004408389329910278,-0.013779737055301666,0.016705572605133057,-0.12250988930463791,0.08039223402738571,0.11359617114067078,0.036948739986020794,0.23724429731791508,1.1885133126984853
1.971473217010498,0.003283098340034485,0.0017944127321243286,0.0013129711151123047,-0.06491360813379288,0.0992308184504509,0.11009928584098816,0.036455052406463774,0.23814715948272733,1.1898276088563888
1.9795141220092773,0.0033527910709381104,0.002497851848602295,-0.0019028186798095703,0.024419201537966728,0.11054418981075287,0.0960223451256752,0.03659401358500768,0.23920805743801266,1.1908734800609806
1.989659070968628,7.589161396026611e-05,-0.006061851978302002,0.001030564308166504,0.10777860879898071,0.10259918123483658,0.07372886687517166,0.03748010850675505,0.24034401443126105,1.1915480977353077
1.999567985534668,-0.00042979419231414795,-0.012971736490726471,-0.0065375566482543945,0.16141387820243835,0.09013904631137848,0.06661423295736313,0.03911634329290236,0.2413679526529418,1.1918944423921642
2.0098819732666016,0.004705563187599182,-0.016024623066186905,-0.006234467029571533,0.18114659190177917,0.06949973106384277,0.06120055541396141,0.04122262774051815,0.24224525040283065,1.1920986442397252
2.021160125732422,0.007605656981468201,-0.009398005902767181,-0.0019042491912841797,0.12634938955307007,0.04210299253463745,0.06769707053899765,0.043181804841983834,0.24287834885335782,1.1923433289457266
2.029642105102539,0.010749951004981995,-0.015284091234207153,0.0035479068756103516,0.06416557729244232,0.03037993423640728,0.06881427019834518,0.04445330646167363,0.24333176284546384,1.192759782382444
2.039497137069702,0.011288225650787354,-0.008140120655298233,0.00869065523147583,-0.006829230580478907,0.02808535471558571,0.09006735682487488,0.04505185729573208,0.24360164130069406,1.1934652932422078
2.0496301651000977,0.016778618097305298,-0.012506425380706787,0.026542842388153076,-0.061575282365083694,0.04781382903456688,0.09985405206680298,0.04472880230347359,0.24391567406762613,1.1944779174993725
2.059596061706543,0.00891713798046112,-0.014354564249515533,0.041617393493652344,-0.09734659641981125,0.0718347430229187,0.1139054223895073,0.043993832695495505,0.24443030331994403,1.195708306713203
2.0715441703796387,0.0025780200958251953,-0.015436336398124695,0.031090378761291504,-0.11969223618507385,0.09142331033945084,0.12999330461025238,0.043247050379862206,0.2451217666486161,1.197160498500936
2.079617977142334,-0.00011061131954193115,-0.021350309252738953,0.02345597743988037,-0.17335732281208038,0.08925417065620422,0.14085820317268372,0.042382940460592336,0.24585567974343506,1.1988380844290674
2.0897412300109863,0.007758781313896179,-0.028850682079792023,0.023007512092590332,-0.24074795842170715,0.06345115602016449,0.14172731339931488,0.040969594353297584,0.24649075619387315,1.200717445226613
2.099606990814209,0.01438264548778534,-0.027704477310180664,0.03481012582778931,-0.25332632660865784,0.04973747208714485,0.12985467910766602,0.03910833290776514,0.24700581886026393,1.202640918257336
2.1098251342773438,0.011797532439231873,-0.004678349941968918,0.03483635187149048,-0.24826766550540924,0.04191466048359871,0.11037060618400574,0.03730709302772112,0.2474832271288392,1.2044229952117143
2.12185001373291,0.009371399879455566,0.003194756805896759,0.009870827198028564,-0.22761592268943787,0.02435910329222679,0.08822935074567795,0.03550493388993576,0.24787611349858749,1.205979491491394
2.1298770904541016,0.009455829858779907,-0.00199894979596138,-0.00997847318649292,-0.179691880941391,0.001137803541496396,0.05875668302178383,0.03407928464226572,0.24824888298555756,1.2071920146014083
2.142895221710205,0.008394196629524231,0.007494185119867325,-0.01262807846069336,-0.09786413609981537,-0.025490878149867058,0.02144792303442955,0.03330281144293594,0.24833007436161442,1.207927914345717
2.149813175201416,0.010023295879364014,0.022691145539283752,-0.014313578605651855,-0.031225450336933136,-0.056790657341480255,-0.014520143158733845,0.03317987852531136,0.24800199656844168,1.2081097985280438
2.159719944000244,0.010695472359657288,0.025724288076162338,-0.020137548446655273,-0.0017759492620825768,-0.08783379197120667,-0.0495484359562397,0.03354293787735242,0.24731134679912203,1.207830482923386
2.171565055847168,0.017886489629745483,0.033200912177562714,-0.027997612953186035,-0.0007863850332796574,-0.11397244781255722,-0.05800674110651016,0.0340007789339983,0.24644501542378142,1.2073063037604996
2.179734230041504,0.019516676664352417,0.03917260840535164,-0.001287996768951416,0.005043806508183479,-0.09968086332082748,-0.07714608311653137,0.03425057442317275,0.24563117223002692,1.2066131675339475
2.1897971630096436,0.006694197654724121,0.02951047569513321,0.02890986204147339,0.003259139833971858,-0.07874606549739838,-0.07803925126791,0.03420144944882478,0.24500643266702174,1.2058332272294763
2.1996991634368896,0.01445859670639038,0.018080752342939377,0.007557570934295654,-0.024747993797063828,-0.07397953420877457,-0.07917694747447968,0.03389520232321176,0.2444397033164708,1.205099240662537
2.209907054901123,0.018342643976211548,0.024037674069404602,-0.0008255243301391602,-0.07237142324447632,-0.08623252063989639,-0.10095047950744629,0.03322944077371113,0.24379622208655885,1.2043439397482638
2.2216460704803467,0.01334729790687561,0.03409167006611824,0.0003795027732849121,-0.1251339614391327,-0.1394384801387787,-0.1400398313999176,0.031899672033187706,0.24283182599013087,1.203402779529228
2.2300491333007812,0.021329402923583984,0.0445123054087162,-0.022430062294006348,-0.18664313852787018,-0.22957433760166168,-0.19584108889102936,0.02976131033564721,0.241178391552009,1.2021491434124638
2.2399260997772217,0.040848299860954285,0.06573155522346497,-0.052742600440979004,-0.253613144159317,-0.33448076248168945,-0.26956936717033386,0.02685524500620655,0.23853091906398236,1.2004145526452115
2.249941110610962,0.05481347441673279,0.08311398327350616,-0.06208395957946777,-0.31958115100860596,-0.43437257409095764,-0.3582509756088257,0.023133607143598054,0.23489366821627974,1.1980329921149369
2.260270118713379,0.06617049872875214,0.0956958532333374,-0.04440927505493164,-0.4017274081707001,-0.5165182948112488,-0.4507116675376892,0.018502551352018348,0.2303803847679096,1.1949222850095473
2.2716400623321533,0.0762459933757782,0.09422994405031204,-0.011302590370178223,-0.4928072690963745,-0.5601950287818909,-0.5615440011024475,0.013007631654793812,0.22502937605547685,1.1909984450422717
2.2800841331481934,0.08463717997074127,0.08982741087675095,0.012710213661193848,-0.6154122948646545,-0.5768280625343323,-0.6844571232795715,0.006224406599460209,0.2193838803566512,1.186136465782889
2.290224075317383,0.09411944448947906,0.07901262491941452,0.03299248218536377,-0.7019509673118591,-0.572036862373352,-0.7985439896583557,-0.0018743572012472963,0.2136237726510655,1.1803173972247243
2.3000621795654297,0.10696320235729218,0.06773851066827774,0.04044079780578613,-0.7288371920585632,-0.5535668134689331,-0.9088662266731262,-0.010661488423309405,0.20795969562481872,1.173454042954734
2.3103690147399902,0.1239614188671112,0.051224932074546814,0.04857790470123291,-0.8360863924026489,-0.5803956389427185,-1.005994200706482,-0.020233490069779196,0.20220757158025576,1.165629151283597
2.32169508934021,0.14085525274276733,0.0039362236857414246,0.09098148345947266,-0.8747832179069519,-0.6031773686408997,-1.0543934106826782,-0.030782522920273874,0.1960152648727502,1.1571994468789766
2.330388069152832,0.15216006338596344,-0.010057289153337479,0.15679967403411865,-0.7012916207313538,-0.5466843247413635,-1.1284700632095337,-0.040784673150669616,0.18992641478529382,1.1480252122989898
2.3403782844543457,0.11896924674510956,0.060523755848407745,0.22329360246658325,-0.47626858949661255,-0.5165908932685852,-1.1907483339309692,-0.04862639890929436,0.18415077913180855,1.1376835939223386
2.3504462242126465,0.11824986338615417,0.09723901748657227,0.20787036418914795,-0.43517839908599854,-0.5090234279632568,-1.2483566999435425,-0.055209211508945956,0.17845259699744387,1.126467236752628
2.360532283782959,0.17550033330917358,0.04887261986732483,0.1493997573852539,-0.5359628200531006,-0.5167316794395447,-1.3700703382492065,-0.06220582981431195,0.1726269937242434,1.1144210457272505
2.371917247772217,0.19558337330818176,0.08256877213716507,0.09748458862304688,-0.6930446624755859,-0.5436031818389893,-1.4994268417358398,-0.07073435309549288,0.16643803868771462,1.1012810379365385
2.3801071643829346,0.20390769839286804,0.13546475768089294,0.04038691520690918,-0.784048318862915,-0.532941997051239,-1.6453220844268799,-0.08056489180857154,0.159930031441158,1.0869273571190976
2.3905129432678223,0.21969074010849,0.1687125265598297,-0.012151777744293213,-0.8630048632621765,-0.5588875412940979,-1.8448615074157715,-0.09154726857972156,0.15315865454106828,1.070927537674626
2.4000930786132812,0.237772598862648,0.17972499132156372,-0.04082733392715454,-0.7537702322006226,-0.6232761144638062,-2.011519193649292,-0.10251331221120184,0.14547416885197292,1.0529554004174513
2.410309076309204,0.2852512001991272,0.200616717338562,-0.0917961597442627,-0.5458093881607056,-0.6886827349662781,-2.166842460632324,-0.11197996142250675,0.13680559860001537,1.0330479839912183
2.4214961528778076,0.30767932534217834,0.18617402017116547,-0.11920696496963501,-0.19159913063049316,-0.7703049182891846,-2.290942430496216,-0.1186083954820439,0.12697713588742257,1.011252817121775
2.4304051399230957,0.32072436809539795,0.15944653749465942,-0.11759769916534424,0.13974472880363464,-0.8242869973182678,-2.41884183883667,-0.12170709905785923,0.11612336713896378,0.9876879899919289
2.440322160720825,0.3164435923099518,0.14778843522071838,-0.09971839189529419,0.5060100555419922,-0.8198946714401245,-2.47591233253479,-0.12121558702937849,0.10485011097334777,0.962781803418271
2.4504241943359375,0.2889937162399292,0.11486254632472992,-0.05954253673553467,0.7512205243110657,-0.7921300530433655,-2.5885279178619385,-0.11735561723176638,0.09368356922956106,0.9367787354522159
2.4613890647888184,0.2765289545059204,0.15934419631958008,-0.028338611125946045,0.8131541609764099,-0.7657501101493835,-2.7172107696533203,-0.1118238743856231,0.08275472526867696,0.9094428763343559
2.4723050594329834,0.28492435812950134,0.22461092472076416,-0.06497234106063843,0.7599506378173828,-0.7291676998138428,-2.835094690322876,-0.10607812370756965,0.07217191907133284,0.8809362169028918
2.480195999145508,0.30880361795425415,0.26263201236724854,-0.12130862474441528,0.5985148549079895,-0.6646161079406738,-2.934933662414551,-0.10118813070978074,0.06214413378781364,0.8515061840202863
2.490516185760498,0.3294949531555176,0.2542025148868561,-0.15535777807235718,0.39925459027290344,-0.6246845126152039,-3.0339932441711426,-0.09791318059239332,0.052724530822513306,0.8212305560623432
2.500241279602051,0.33174818754196167,0.19695830345153809,-0.16947942972183228,0.2604684829711914,-0.5988358855247498,-3.116584062576294,-0.09620464708127742,0.04358905360285707,0.7901507384104817
2.5107760429382324,0.31696033477783203,0.1551453322172165,-0.1616024374961853,0.2727729380130768,-0.5349615812301636,-3.1681253910064697,-0.09493627570453776,0.034872914522812666,0.7584506270875628
2.5211610794067383,0.2877923846244812,0.15291361510753632,-0.13481241464614868,0.5057297348976135,-0.46219417452812195,-3.2098705768585205,-0.0922122224038114,0.026915531270259235,0.7262971677945654
2.530226230621338,0.25099968910217285,0.18704292178153992,-0.08461660146713257,0.7748597264289856,-0.36551031470298767,-3.2733869552612305,-0.08659440605993403,0.019858344631980593,0.6935863888905318
2.540215015411377,0.20930679142475128,0.24139200150966644,-0.01726698875427246,1.0074087381362915,-0.2918315827846527,-3.319878339767456,-0.07820681975839863,0.013880482385286668,0.660297765457088
2.550157070159912,0.18099038302898407,0.23469434678554535,0.04718351364135742,1.086230754852295,-0.278363972902298,-3.3705694675445557,-0.06819977457877188,0.008620080616581342,0.6266029580848034
2.560081958770752,0.17146344482898712,0.21889469027519226,0.09482836723327637,1.0692498683929443,-0.25318458676338196,-3.4225313663482666,-0.05764180534139945,0.003851051949835167,0.592461307758065
2.5709400177001953,0.1659000664949417,0.189642995595932,0.08541560173034668,0.9618232846260071,-0.276022344827652,-3.437929391860962,-0.04758816453267955,-0.0005260441538214653,0.5580129118309183
2.580151081085205,0.154617041349411,0.12548643350601196,0.04208105802536011,0.8792906403541565,-0.3303968906402588,-3.399271011352539,-0.03841772076188388,-0.005008469463874904,0.5237510897472738
2.590074062347412,0.1307724267244339,0.04301590472459793,-0.01611185073852539,0.8208488821983337,-0.35685187578201294,-3.3337576389312744,-0.02968138038315394,-0.009637445197795603,0.4900747440461059
2.6001381874084473,0.09109880775213242,-0.0034386739134788513,-0.06804203987121582,0.7999328970909119,-0.31867730617523193,-3.2485928535461426,-0.02133890747294436,-0.013847300989623985,0.4571652414804892
2.6101222038269043,0.049529559910297394,-0.020492499694228172,-0.05968284606933594,0.7791122198104858,-0.28550320863723755,-3.111870050430298,-0.012909289007436561,-0.017397029474375745,0.42543777424366924
2.620671272277832,0.017422344535589218,0.011379381641745567,0.019587457180023193,0.7479700446128845,-0.25191062688827515,-2.9827535152435303,-0.004886551292779886,-0.020323308092135544,0.3950749458655889
2.630153179168701,-0.01035521924495697,0.026879508048295975,0.11219340562820435,0.698610246181488,-0.24404975771903992,-2.8557562828063965,0.0029079147474136142,-0.022789092552295175,0.3660156465656698
2.6402339935302734,-0.024423176422715187,-0.044305361807346344,0.16552472114562988,0.6272015571594238,-0.27437758445739746,-2.7328598499298096,0.010168654434571246,-0.025187265334399717,0.33821042760112946
2.6500940322875977,-0.015222165733575821,-0.10108707845211029,0.18669593334197998,0.44951993227005005,-0.28807777166366577,-2.621018648147583,0.016253688111378083,-0.027647098695925597,0.3115715944992354
2.6602511405944824,-0.0012148469686508179,-0.13218840956687927,0.17655587196350098,0.3593223989009857,-0.31628304719924927,-2.5545566082000732,0.02093503917050754,-0.03019910450798697,0.285806878444949
2.670773983001709,0.0036615990102291107,-0.1907053291797638,0.15950262546539307,0.28744688630104065,-0.34844616055488586,-2.494464635848999,0.02490390642048749,-0.03292900997942868,0.2606461947819614
2.680270195007324,0.007602740079164505,-0.20007389783859253,0.1327267289161682,0.25277039408683777,-0.3616940379142761,-2.421867609024048,0.028430277661230175,-0.03586909895125051,0.2361147031992206
2.6907191276550293,0.013410370796918869,-0.18222956359386444,0.09684473276138306,0.264523446559906,-0.3433964252471924,-2.3167412281036377,0.03181082200996785,-0.038693049813253576,0.212449651254936
2.700662136077881,0.021048124879598618,-0.2071148157119751,0.05416524410247803,0.3181006610393524,-0.32839882373809814,-2.1844065189361572,0.035568453773981046,-0.0412734770914107,0.19003315678516847
2.710803985595703,0.02882128208875656,-0.27110227942466736,0.04486125707626343,0.45190486311912537,-0.3174726068973541,-2.058138847351074,0.04034054235058085,-0.0437482930269773,0.16896743067919073
2.7224581241607666,0.01643340289592743,-0.2850085496902466,0.05371582508087158,0.4201626479625702,-0.24466019868850708,-1.9138237237930298,0.045649997987803156,-0.045717678756237286,0.14925941763251419
2.730870246887207,-0.006143137812614441,-0.24572008848190308,0.11412739753723145,0.43327802419662476,-0.20775683224201202,-1.7399476766586304,0.050642496879356555,-0.04708111217161821,0.13116247552988128
2.740927219390869,-0.02548503503203392,-0.2742755711078644,0.20500361919403076,0.43519896268844604,-0.13832315802574158,-1.5825364589691162,0.05593854046518628,-0.04800338979390345,0.11473866547376275
2.7507131099700928,-0.03775446489453316,-0.2601122260093689,0.2371484637260437,0.28945374488830566,-0.02970936894416809,-1.4236550331115723,0.060282548379585764,-0.047952945547912955,0.09986607282649156
2.760798931121826,-0.041532162576913834,-0.2240540087223053,0.2831816077232361,0.18835748732089996,0.038744520395994186,-1.2817567586898804,0.06323482654396054,-0.0470651216457995,0.08642933508406683
2.771243095397949,-0.036714375019073486,-0.24696898460388184,0.28367871046066284,0.024201588705182076,0.14409016072750092,-1.1776803731918335,0.0649816427415566,-0.04544381044534327,0.07417468862301953
2.7804880142211914,-0.03340477496385574,-0.2022770643234253,0.2613547444343567,-0.20054097473621368,0.2576689124107361,-1.07588791847229,0.06452185816550315,-0.04265530018840779,0.0628358686784387
2.790523052215576,-0.030227556824684143,-0.19801324605941772,0.25026822090148926,-0.25415611267089844,0.33165132999420166,-0.9765726923942566,0.06263256697199235,-0.03907300337746711,0.05247202748786015
2.800455093383789,-0.01773308590054512,-0.22745275497436523,0.17283660173416138,-0.40143051743507385,0.4248020350933075,-0.9071859121322632,0.05967678204423584,-0.03467337477126982,0.04292783712767156
2.8107080459594727,0.005241839215159416,-0.1822662502527237,0.0959317684173584,-0.4070075452327728,0.44868624210357666,-0.8443060517311096,0.05581510235954492,-0.02975255141915622,0.03400557296778131
2.8219590187072754,0.016931643709540367,-0.2437867820262909,0.07441073656082153,-0.36739543080329895,0.4484635889530182,-0.8023253083229065,0.052181112289911555,-0.024856983882124508,0.025664023156011722
2.8311309814453125,-0.010170474648475647,-0.29324573278427124,0.05372500419616699,-0.31073102355003357,0.519995927810669,-0.7479152083396912,0.04893689971148391,-0.01963961121422128,0.01779867410457618
2.840778112411499,-0.035633597522974014,-0.24083435535430908,0.04660731554031372,-0.21986716985702515,0.5819282531738281,-0.6721339225769043,0.04633739764945294,-0.013759204900890403,0.010622767451850276
2.8506641387939453,-0.03876841068267822,-0.19463099539279938,0.054759323596954346,-0.12572650611400604,0.6375483870506287,-0.5815109014511108,0.04471802704718237,-0.007366497232901483,0.004309740987049355
2.860790252685547,-0.03279701992869377,-0.15211887657642365,0.029992222785949707,-0.17896363139152527,0.6984663605690002,-0.4816953241825104,0.04329871989118764,-0.00043718969703346794,-0.0010277579016974403
2.8719639778137207,-0.022310420870780945,-0.11187630891799927,0.007346808910369873,-0.2812322974205017,0.7091986536979675,-0.38431060314178467,0.04096719830819565,0.006843647050930378,-0.005338064363516464
2.8813321590423584,-0.01678992249071598,-0.14662432670593262,0.021658360958099365,-0.3962337374687195,0.6801092028617859,-0.31817498803138733,0.03757336909762959,0.013916124718650311,-0.008800886576354786
2.890651226043701,-0.017584217712283134,-0.17000636458396912,0.010568559169769287,-0.5368641018867493,0.6609770655632019,-0.2979433536529541,0.032819377707509076,0.02074002591289112,-0.011787228138206306
2.9007160663604736,-0.02844545617699623,-0.17351800203323364,0.005505919456481934,-0.632206380367279,0.6427828669548035,-0.3142698407173157,0.026878932313335355,0.027344690266972765,-0.014704861154338134
2.910980224609375,-0.03881989046931267,-0.18513326346874237,-0.0009864568710327148,-0.6805076599121094,0.6260501146316528,-0.3304745852947235,0.020144608401831646,0.0337670803275681,-0.017723096884326783
2.921875,-0.04222448542714119,-0.1614304929971695,-0.021642029285430908,-0.6746918559074402,0.623805582523346,-0.3425632119178772,0.01326779579963274,0.04005655315282628,-0.020841669634486974
2.931087017059326,-0.0457356832921505,-0.11460381746292114,-0.057950496673583984,-0.6668779253959656,0.6334673762321472,-0.3420114815235138,0.006367922978994674,0.04639397929197154,-0.02397859302708289
2.9408092498779297,-0.049078263342380524,-0.08971229940652847,-0.06327736377716064,-0.5759515166282654,0.6220003366470337,-0.3266841769218445,-6.688901707437638e-05,0.05268829576058476,-0.027019187862281475
2.9509081840515137,-0.052754949778318405,-0.10249284654855728,-0.05770111083984375,-0.44926905632019043,0.6169503331184387,-0.29365846514701843,-0.005355401259360057,0.058877904434034116,-0.029848239596277228
2.9609451293945312,-0.05275878310203552,-0.09747647494077682,-0.07224369049072266,-0.35781076550483704,0.6179943084716797,-0.2697773575782776,-0.009540194353430415,0.06504498972951549,-0.03241206324245522
2.9718122482299805,-0.04918228089809418,-0.0992928072810173,-0.0892249345779419,-0.2990909814834595,0.6059689521789551,-0.24316023290157318,-0.012989440376730723,0.07117507903093202,-0.034754911125182884
2.981058120727539,-0.04637570679187775,-0.12706005573272705,-0.09014451503753662,-0.268530935049057,0.5705180168151855,-0.21197675168514252,-0.01596146001367745,0.07704014895432555,-0.03682061375148799
2.990981101989746,-0.046221211552619934,-0.144185870885849,-0.07849782705307007,-0.25580835342407227,0.5264945030212402,-0.18195772171020508,-0.018759705174197866,0.08250772223529905,-0.038591463863146776
3.0009491443634033,-0.0484195351600647,-0.14402741193771362,-0.06191891431808472,-0.24281984567642212,0.488322377204895,-0.14268220961093903,-0.021363600860492743,0.08755260908458087,-0.04000725933891364
3.0110321044921875,-0.05113786458969116,-0.13878916203975677,-0.05305701494216919,-0.2489747405052185,0.44949257373809814,-0.10056400299072266,-0.023923257394660096,0.09221878021342451,-0.04100964626380495
3.0214481353759766,-0.05206204205751419,-0.136834979057312,-0.05021423101425171,-0.2599200904369354,0.40775176882743835,-0.0498635396361351,-0.026532272809516512,0.09649597252665833,-0.041511143447593525
3.0309252738952637,-0.05320066213607788,-0.1393292397260666,-0.04970616102218628,-0.26248636841773987,0.3654809594154358,-0.002720741555094719,-0.029180163223584788,0.10036284993266724,-0.04151851328189005
3.0417122840881348,-0.051238879561424255,-0.1330108642578125,-0.04900920391082764,-0.2434586137533188,0.3326582908630371,0.03941073268651962,-0.03168251656568107,0.10386080086923916,-0.04108218240555551
3.050936222076416,-0.05094960331916809,-0.10797169059515,-0.059435486793518066,-0.22890828549861908,0.3111836910247803,0.0819273516535759,-0.03397307598913006,0.10710875420273978,-0.04023013946516022
3.061007022857666,-0.04732026904821396,-0.07725842297077179,-0.0685320496559143,-0.20465567708015442,0.2819429636001587,0.12265481054782867,-0.03603695096035417,0.11012921645604104,-0.038978819427073944
3.0723609924316406,-0.04336290806531906,-0.06564848870038986,-0.06632697582244873,-0.17341022193431854,0.23847180604934692,0.15889856219291687,-0.037749107666900594,0.11278897343207916,-0.03735682047821784
3.0810751914978027,-0.03542686253786087,-0.0510103702545166,-0.06697511672973633,-0.1535252034664154,0.19803516566753387,0.1825130730867386,-0.03919482305158124,0.11505321014825873,-0.03546785834103044
3.091292142868042,-0.02706064283847809,-0.03491661697626114,-0.05696296691894531,-0.12230449169874191,0.15074336528778076,0.2008819282054901,-0.04034440539365526,0.11688361644780586,-0.033392549550556164
3.10113525390625,-0.023669764399528503,-0.03388582170009613,-0.038406550884246826,-0.10791143774986267,0.10553912818431854,0.21287493407726288,-0.041236961555693695,0.11825308141353698,-0.031189532371039077
3.1113650798797607,-0.0220622718334198,-0.02837950736284256,-0.029545724391937256,-0.09282972663640976,0.062333427369594574,0.22360827028751373,-0.041987400093459366,0.11918964192132317,-0.028900881141359632
3.1219351291656494,-0.019593454897403717,-0.03360236808657646,-0.020891249179840088,-0.08867945522069931,0.024383116513490677,0.2302355319261551,-0.04260265796250905,0.11971889210623526,-0.026534738396995494
3.1316511631011963,-0.01843869686126709,-0.041608307510614395,-0.012807965278625488,-0.10281798243522644,-0.010330122895538807,0.25111037492752075,-0.04326973590631952,0.11989650746414224,-0.024028619782517305
3.1420979499816895,-0.016316398978233337,-0.04487278312444687,-0.0013044476509094238,-0.11328686773777008,-0.03943181782960892,0.2797590494155884,-0.044032499169442754,0.11976072670410044,-0.021271610675426877
3.151711940765381,-0.015071392059326172,-0.04820618778467178,0.015098631381988525,-0.12899695336818695,-0.046592168509960175,0.3078126907348633,-0.0448795550269624,0.11944845942895731,-0.018201767175379965
3.161137104034424,-0.0206548273563385,-0.05040738731622696,0.02941662073135376,-0.13116583228111267,-0.03102971985936165,0.34210488200187683,-0.0457846869441978,0.1191905576522141,-0.014816397183224323
3.171882152557373,-0.02510824054479599,-0.04156913980841637,0.03402888774871826,-0.11846008896827698,0.005643872078508139,0.3745356500148773,-0.04660613420751052,0.11922370670809103,-0.011098030050444097
3.181051254272461,-0.023784808814525604,-0.022417258471250534,0.027477562427520752,-0.08963989466428757,0.047881871461868286,0.39011940360069275,-0.047199777175830696,0.11967734114652605,-0.0071495365572809885
3.191263198852539,-0.016758576035499573,-0.009470414370298386,0.015115559101104736,-0.03582156449556351,0.08754477649927139,0.38949310779571533,-0.047345135480839504,0.12053257878626429,-0.0031812275983599952
3.2011141777038574,-0.007658243179321289,0.0003385394811630249,0.0015372633934020996,0.00597594678401947,0.12478136271238327,0.35749414563179016,-0.04704206901335461,0.1217711589356456,0.0005748355546946099
3.2112441062927246,-0.005034923553466797,-0.0007445402443408966,0.0007468461990356445,0.07592955231666565,0.14651456475257874,0.3014076352119446,-0.046262732935611735,0.12329156415872673,0.003809874174040288
3.2219109535217285,-0.006613023579120636,-0.01736203208565712,0.014792263507843018,0.16305352747440338,0.15479139983654022,0.24039806425571442,-0.044720664269167855,0.12490557662825477,0.006368818131834972
3.2322211265563965,-0.0012249499559402466,-0.0035757645964622498,0.010737895965576172,0.20813556015491486,0.16099685430526733,0.1679430902004242,-0.04262063275766706,0.1265702763218375,0.00816300830495522
3.241611957550049,0.006076425313949585,0.027581870555877686,0.007207512855529785,0.20672941207885742,0.1566992998123169,0.10453668236732483,-0.04033065592582531,0.1281978194952445,0.00922499024485734
3.25126314163208,0.00938570499420166,0.03813900053501129,0.006155669689178467,0.1583678275346756,0.14306077361106873,0.05033464729785919,-0.0384390535017024,0.12971450130097908,0.009754658567201908
3.261207103729248,0.004185214638710022,0.0302119180560112,0.005385696887969971,0.10879013687372208,0.13408644497394562,0.011936924420297146,-0.037057285975756936,0.1311062995198288,0.009879252013454097
3.273138999938965,0.0011776089668273926,0.023779690265655518,-0.009699463844299316,0.04576317220926285,0.13140100240707397,-0.02876129001379013,-0.03631738391905693,0.13242897848718094,0.00968722958707486
3.2811501026153564,0.0019868314266204834,0.02579604461789131,-0.023361146450042725,0.0003608048427850008,0.11893713474273682,-0.05796258524060249,-0.03616250154130379,0.1336601082456465,0.009220384725461085
3.2913780212402344,0.00422939658164978,0.018379531800746918,-0.029785752296447754,-0.030053727328777313,0.10404607653617859,-0.08075189590454102,-0.03640754625004583,0.13474030487820854,0.008546963855556696
3.301222085952759,0.0042978376150131226,0.015063617378473282,-0.03577375411987305,-0.044334929436445236,0.08816404640674591,-0.09297527372837067,-0.036900915097099946,0.1356752747641924,0.007730466182694553
3.311876058578491,0.003348425030708313,0.01708894968032837,-0.030376911163330078,-0.04536527022719383,0.07273413985967636,-0.09883608669042587,-0.03748523985926697,0.13645224613374,0.00683306907891086
3.321601152420044,0.0025603771209716797,0.014422405511140823,-0.02271479368209839,-0.04274525120854378,0.05809234082698822,-0.10459969937801361,-0.038046474071764994,0.1370662570504319,0.0058706580445824635
3.331347942352295,0.0020974576473236084,0.008911442011594772,-0.01894831657409668,-0.03561845049262047,0.04418420419096947,-0.10558687895536423,-0.039698208530789626,0.13751194423578325,0.004887188621165393
3.3414621353149414,0.007628694176673889,0.0029443465173244476,-0.01316601037979126,-0.01225373987108469,0.02934613823890686,-0.0979529321193695,-0.04089027252538403,0.1377268145957382,0.0039072973920731245
3.3514201641082764,0.011600196361541748,-0.00181666761636734,-0.013154387474060059,0.0004974084440618753,0.018693938851356506,-0.09144299477338791,-0.0416235884760681,0.1377575861866919,0.002971173536048872
3.3613719940185547,0.01122121512889862,-0.005224507302045822,-0.008175194263458252,0.012993225827813148,0.0008576833643019199,-0.08310197293758392,-0.042178524107180225,0.13766579496520265,0.0020868796840279764
3.3720481395721436,0.010450899600982666,-0.009155835956335068,-0.001613914966583252,0.028180401772260666,-0.009180125780403614,-0.06687900424003601,-0.04234107765987306,0.1375045972743179,0.0013117770038985597
3.3819022178649902,0.010368511080741882,-0.00839298591017723,0.00027638673782348633,0.027503693476319313,-0.017040710896253586,-0.05729535594582558,-0.04234115938853418,0.137294886085187,0.0006583299382125465
3.3917932510375977,0.008643373847007751,-0.012347284704446793,0.006475865840911865,0.0272106621414423,-0.02186214178800583,-0.046872492879629135,-0.042358707722253246,0.13703380272650062,0.00010634055812431125
3.4014649391174316,0.006685391068458557,-0.01641010120511055,0.012954652309417725,0.034541547298431396,-0.024564187973737717,-0.03304482623934746,-0.042301607130463624,0.13676089846554404,-0.00033584827529150663
3.4112801551818848,0.006523951888084412,-0.01015956699848175,0.010938823223114014,0.03252488374710083,-0.02608249895274639,-0.02107338234782219,-0.042123910662357336,0.13649131345959395,-0.0006448166249331296
3.4224750995635986,0.006042033433914185,-0.0069509148597717285,0.00781714916229248,0.04563216492533684,-0.03192707151174545,-0.014299100264906883,-0.04176833863910063,0.13632868267791187,-0.0008630970939828542
3.431457042694092,0.007999718189239502,-0.008449014276266098,0.007582724094390869,0.05113688483834267,-0.03861240670084953,-0.012033602222800255,-0.04122129049890667,0.13619764188131955,-0.0010449212079898837
3.441477060317993,0.00950072705745697,0.002027992159128189,0.008915126323699951,0.05706321448087692,-0.04326654598116875,-0.009112115018069744,-0.04057039606191011,0.1360187283131198,-0.0012056633047965344
3.4514870643615723,0.008148014545440674,0.0076273418962955475,0.014497578144073486,0.05990833789110184,-0.04651666805148125,-0.010388728231191635,-0.03980746985108032,0.13580879000863524,-0.0013685409542758
3.4614830017089844,0.00561600923538208,0.0027612559497356415,0.021030008792877197,0.05740416795015335,-0.05147654190659523,-0.009170065633952618,-0.03907300624681687,0.13555728365156955,-0.0015352762601866094
3.4721059799194336,0.0046650320291519165,0.007846828550100327,0.026633620262145996,0.03658031299710274,-0.051743656396865845,-0.01213107444345951,-0.038411987706266665,0.13526595257559632,-0.0016975819001600846
3.481610059738159,0.003474891185760498,0.014692563563585281,0.027916431427001953,0.02715298719704151,-0.04816170409321785,-0.01438197772949934,-0.0378219246108112,0.13497005484348096,-0.0018613204285601328
3.4915101528167725,3.680586814880371e-05,0.011878713965415955,0.028255164623260498,0.03040384314954281,-0.038575030863285065,-0.023347295820713043,-0.037446418767024967,0.13471107134548682,-0.002083504176205787
3.5016770362854004,-0.0013510435819625854,0.012743111699819565,0.025332272052764893,0.03053593449294567,-0.029243580996990204,-0.03320125862956047,-0.037115853547280094,0.13452378544087537,-0.0024032698627482764
3.511631965637207,0.0004985630512237549,0.01721254363656044,0.02069270610809326,0.04516313225030899,-0.02324521169066429,-0.04716639593243599,-0.03672025304644738,0.13441063730093206,-0.0028357823303931597
3.521679162979126,0.002819254994392395,0.01724276691675186,0.015080392360687256,0.05170518532395363,-0.01445731334388256,-0.057188138365745544,-0.036399891658568995,0.13436146716844127,-0.0034166735306933676
3.5315070152282715,0.002325594425201416,0.018213998526334763,0.012340903282165527,0.048965342342853546,-0.0044360593892633915,-0.06087065115571022,-0.03613038861521391,0.13438096047161308,-0.004064612020828098
3.541630268096924,0.003707513213157654,0.018788840621709824,0.01513814926147461,0.05278724431991577,-0.0008474499918520451,-0.06433036178350449,-0.03579947667411741,0.13443229614664035,-0.004756567958052485
3.551997184753418,0.005027517676353455,0.014422576874494553,0.019716978073120117,0.06705737859010696,0.005409957375377417,-0.06900926679372787,-0.03545055439039665,0.13451523135928728,-0.0055007839845389855
3.5616092681884766,0.005634963512420654,0.01450229063630104,0.015166163444519043,0.08632321655750275,0.01614515855908394,-0.06854747980833054,-0.03501961983867606,0.13465477268714982,-0.006293748714294129
3.572148084640503,0.007001280784606934,0.017980344593524933,0.0016456842422485352,0.11282899230718613,0.021692702546715736,-0.06661226600408554,-0.03431824420145723,0.1348434000477291,-0.007092239468719832
3.581639051437378,0.010092824697494507,0.01719323918223381,-0.007978320121765137,0.1455904096364975,0.021663406863808632,-0.07328188419342041,-0.033380571598200626,0.13504545429135914,-0.007960222783380587
3.5916190147399902,0.010157018899917603,0.009967874735593796,-0.008243918418884277,0.15796764194965363,0.020558282732963562,-0.07492724061012268,-0.03230456956389514,0.13523774184989268,-0.008902450598813304
3.6017770767211914,0.008480504155158997,0.0013387743383646011,-0.008809506893157959,0.1550179272890091,0.0291493758559227,-0.0771682858467102,-0.03124380523890035,0.13549311728852426,-0.009866220120838867
3.611706256866455,0.0031296461820602417,-0.006744256243109703,-0.006806373596191406,0.15288981795310974,0.03226003795862198,-0.07737873494625092,-0.0302779140983399,0.1357921787369034,-0.010841918220596977
3.6225099563598633,0.0006652176380157471,-0.014363231137394905,0.0015521645545959473,0.13542987406253815,0.0258942823857069,-0.08425075560808182,-0.029473683734497737,0.13610487965024232,-0.011843551835719047
3.6324172019958496,0.0028653889894485474,-0.014807134866714478,0.006511092185974121,0.10873673111200333,0.014260485768318176,-0.08512304723262787,-0.02880340603055949,0.1363612041773626,-0.012851083600890273
3.6430811882019043,0.0038692355155944824,-0.017264800146222115,0.005767822265625,0.0778171643614769,0.004426497034728527,-0.0804731622338295,-0.028438044950577394,0.13651712941294564,-0.013796260746108801
3.6517231464385986,0.006173446774482727,-0.019915828481316566,0.0023162364959716797,0.06421145796775818,-0.0047858660109341145,-0.0791674256324768,-0.02832718998290935,0.13656278091989896,-0.014677626070093404
3.661783218383789,0.006852507591247559,-0.02193579450249672,-0.002497375011444092,0.0644516721367836,-0.019392505288124084,-0.07583234459161758,-0.02822614144411761,0.13652380096013908,-0.015539516953384368
3.6724281311035156,0.007782965898513794,-0.015780095010995865,-0.004438579082489014,0.0668901652097702,-0.027022283524274826,-0.070686474442482,-0.027929700501210887,0.1363843365133894,-0.016354103425792844
3.681795120239258,0.007057949900627136,-0.011436093598604202,-0.007755458354949951,0.05524256452918053,-0.029140297323465347,-0.06283388286828995,-0.02750704890241114,0.1361749558471414,-0.01709769650031816
3.6917331218719482,0.0025063008069992065,-0.015223812311887741,-0.0061730146408081055,0.05800124630331993,-0.0347149595618248,-0.04946880415081978,-0.026945803909261178,0.13586929650110663,-0.017737923793382293
3.701876163482666,-0.00023862719535827637,-0.02027856558561325,0.0005619525909423828,0.04796725511550903,-0.03953687846660614,-0.0364142544567585,-0.026247747272268862,0.13551075965642598,-0.01823960948331861
3.711860179901123,-0.0019828379154205322,-0.012300672009587288,0.002896904945373535,0.03914278745651245,-0.04201649874448776,-0.02640838734805584,-0.02562437992012059,0.13517441040270128,-0.018597458005741658
3.722046136856079,-0.0016515105962753296,-0.011786527931690216,0.004255712032318115,0.028932496905326843,-0.048527128994464874,-0.014407118782401085,-0.02504901316026088,0.13482252456571253,-0.018837293940566074
3.732055187225342,-0.004612535238265991,-0.012874878942966461,0.009356260299682617,0.020116882398724556,-0.055351171642541885,-0.010494881309568882,-0.024504506944968977,0.13443647540352122,-0.018981790800499953
3.7442240715026855,-0.006594866514205933,-0.008649179711937904,0.016399681568145752,0.015427056699991226,-0.05796506255865097,-0.007344894111156464,-0.024001804623204774,0.13400225267887964,-0.019088419955528665
3.75177001953125,-0.01021525263786316,-0.0016446392983198166,0.0194852352142334,0.004112066701054573,-0.05873050168156624,-0.0027920608408749104,-0.023695788247648772,0.13357414262859577,-0.019149192264157483
3.761855125427246,-0.01252889633178711,-0.00042913295328617096,0.023318171501159668,-0.0027881835121661425,-0.05854514613747597,0.0023774011060595512,-0.023533090189262345,0.13312128248102126,-0.019147481571647577
3.7721052169799805,-0.01641145348548889,-0.0033453982323408127,0.023919403553009033,-0.017287181690335274,-0.05521641671657562,0.006274564191699028,-0.023412824666581348,0.13263504082540545,-0.019096380052325546
3.7818970680236816,-0.018351048231124878,-0.0005149822682142258,0.024890661239624023,-0.009663349948823452,-0.05575384199619293,0.00896542239934206,-0.023237388895287488,0.1321281129759502,-0.01898612288872411
3.791788101196289,-0.019429832696914673,0.0003417115658521652,0.025401830673217773,-0.0005837851203978062,-0.05078904330730438,0.011469272896647453,-0.02309781655448842,0.13163035074971147,-0.018863353651223668
3.8018860816955566,-0.0211363285779953,0.004130762070417404,0.023434937000274658,0.013807403855025768,-0.04303152114152908,0.012639733031392097,-0.022848741737934882,0.13119601473455195,-0.018746391232567942
3.81184720993042,-0.023034676909446716,0.0005313493311405182,0.020950257778167725,0.020969444885849953,-0.04391604661941528,0.005910137668251991,-0.022496038551303145,0.1307702422247104,-0.018675985804053084
3.822139263153076,-0.0234442800283432,-0.0028698351234197617,0.0258370041847229,0.018404820933938026,-0.04599251225590706,0.003094643820077181,-0.022204527959663826,0.1303205596971414,-0.018663161715668487
3.8317151069641113,-0.023153111338615417,-0.0009869001805782318,0.0264396071434021,0.006451753433793783,-0.04864608496427536,-0.0027368799783289433,-0.02209158394953445,0.1298110162957068,-0.01867832342910078
3.841794013977051,-0.021217137575149536,9.655952453613281e-06,0.02414393424987793,-0.0016229506582021713,-0.0492655374109745,-0.007619785610586405,-0.022086846918526495,0.12927420520231017,-0.01872974399732978
3.8517210483551025,-0.024271026253700256,-0.00017665885388851166,0.018808603286743164,-0.0035747813526540995,-0.04168298467993736,-0.007899950258433819,-0.022120582818702342,0.1287531870650321,-0.01879988894330643
3.8619232177734375,-0.025690779089927673,0.002009846270084381,0.012351691722869873,0.023620886728167534,-0.033275917172431946,-0.009846987202763557,-0.022055028984753536,0.12830737664709163,-0.018897480720383244
3.8724300861358643,-0.020963281393051147,0.007520563900470734,0.00038433074951171875,0.051176879554986954,-0.02716343104839325,-0.007132160943001509,-0.021701702994077407,0.12792443027623168,-0.019033875837044686
3.882017135620117,-0.01491934061050415,0.015953147783875465,-0.008851230144500732,0.06928770989179611,-0.026484858244657516,-0.004130246117711067,-0.021157784841471475,0.12756753425484424,-0.019172184637364843
