timestamp,accel_x,accel_y,accel_z,rotation_x,rotation_y,rotation_z, pitch,roll,yaw
0.04287099838256836,-0.0342836007475853,0.0006348490715026855,0.01168215274810791,-0.0033603969495743513,-2.2890977561473846e-05,0.0018825801089406013,-0.07453804428265508,-0.022421193374568393,-0.0008360379453864736
0.062226295471191406,-0.03384324908256531,0.0041961222887039185,0.009465277194976807,-0.006843945011496544,-0.0020888824947178364,0.0033383704721927643,-0.07459325698147501,-0.022434428449500145,-0.0008000253770641024
0.06432414054870605,-0.03473720699548721,0.004401944577693939,0.006988048553466797,-0.005519821308553219,0.0017274273559451103,0.005573561415076256,-0.07466228340470214,-0.022440872710700555,-0.0007682256778365116
0.0652461051940918,-0.03521791100502014,0.005832485854625702,0.0049263834953308105,0.0017910054884850979,0.007599653210490942,0.003363191382959485,-0.07469668976956063,-0.022402618125403007,-0.0007234902426640586
0.07138299942016602,-0.03445891663432121,0.00973503291606903,0.004779219627380371,0.009774629026651382,0.004973510280251503,0.0009788630995899439,-0.0746391847766474,-0.022352647375910955,-0.0007028414447920045
0.0814511775970459,-0.03382483124732971,0.009879127144813538,0.007641911506652832,0.011578688398003578,0.005696203093975782,-0.0024033512454479933,-0.07452529658785309,-0.02231504398952138,-0.0007093733964997396
0.0924372673034668,-0.03404737636446953,0.00920211523771286,0.008734524250030518,0.012231696397066116,0.0012987914960831404,-0.004387406166642904,-0.0744085255267706,-0.022290597899223146,-0.0007454461780167077
0.10146117210388184,-0.033703867346048355,0.007699817419052124,0.00931936502456665,0.0027927036862820387,-0.0015586470253765583,-0.005930761806666851,-0.07433897479409661,-0.02229831711718851,-0.0008024535237191162
0.11148500442504883,-0.03293740749359131,0.006854884326457977,0.007714509963989258,-0.006941949017345905,-0.0050079734064638615,-0.005575229413807392,-0.07435999479348948,-0.022347801330334312,-0.0008528762220953858
0.12152624130249023,-0.031218886375427246,0.005729898810386658,0.00627058744430542,-0.01387101225554943,-0.008485928177833557,-0.007174670696258545,-0.0744629278867462,-0.022434064805287614,-0.0009264454291879835
0.13158011436462402,-0.034097570925951004,0.0034712105989456177,0.008760631084442139,-0.011688550934195518,-0.008109623566269875,-0.008857255801558495,-0.07460102583366189,-0.02253136752428139,-0.001007629895435014
0.14399409294128418,-0.03648582473397255,0.005996257066726685,0.008551716804504395,-0.010180102661252022,-0.005635990761220455,-0.006665101740509272,-0.07471607395427965,-0.022615488952458174,-0.0010836488368604197
0.15177297592163086,-0.03729519248008728,0.008320830762386322,0.010972380638122559,0.00013059121556580067,-0.0026785507798194885,-0.005643779411911964,-0.07477201939163489,-0.022676148965824483,-0.0011428254650842587
0.16180014610290527,-0.03546690195798874,0.005500853061676025,0.013078808784484863,0.004703172016888857,-2.6752706617116928e-05,-0.0027524386532604694,-0.07475381404091615,-0.02270395492402458,-0.0011939473262097071
0.17183208465576172,-0.03454679995775223,0.008038260042667389,0.01175457239151001,0.007580185309052467,-0.0014406251721084118,-0.0010682556312531233,-0.07470345381802773,-0.022723765467947035,-0.0012142270472510585
0.18188810348510742,-0.033176787197589874,0.006747782230377197,0.010857641696929932,-0.0003543372731655836,-0.0008812723681330681,-0.0018511717207729816,-0.07465100925294663,-0.02275099865613023,-0.0012299849885915005
0.19231009483337402,-0.03291816636919975,0.006510347127914429,0.010153710842132568,-0.002779944334179163,-0.00044131791219115257,-0.0029217624105513096,-0.07487380978175587,-0.023439355334365208,-0.0012961621714368975
0.20168709754943848,-0.03258812427520752,0.005593553185462952,0.009269177913665771,-0.004147144500166178,-0.0015000132843852043,-0.0030519377905875444,-0.07507399987712035,-0.02407689902549091,-0.0013540637116157348
0.2119002342224121,-0.03066776506602764,0.0082925483584404,0.009409785270690918,-0.0045309062115848064,-0.004964519292116165,-0.002598934108391404,-0.07521353593910896,-0.024763696691714184,-0.001438777168700778
0.2216939926147461,-0.028865085914731026,0.008338123559951782,0.009144365787506104,-0.009410416707396507,-0.010679397732019424,-0.008073966950178146,-0.07544327828194128,-0.0255316328632641,-0.0015477594456869024
0.23172616958618164,-0.028193851932883263,0.0050314366817474365,0.011142194271087646,-0.015577765181660652,-0.010523336008191109,-0.010640455409884453,-0.07579074500483687,-0.026328161987296882,-0.001705209291273019
0.24226808547973633,-0.029629452154040337,0.005350321531295776,0.010398268699645996,-0.017658276483416557,-0.004600243177264929,-0.008177990093827248,-0.07609835376656056,-0.027031693580866004,-0.0018557637941461465
0.25168704986572266,-0.03190901130437851,0.005952842533588409,0.008052587509155273,-0.011513831093907356,-0.001144791953265667,-0.010154854506254196,-0.07642757689334585,-0.02763872179658578,-0.002000746350568666
0.2619161605834961,-0.0295366570353508,0.0060947611927986145,0.007440447807312012,-0.004851650446653366,0.00022473884746432304,-0.008724045008420944,-0.0766525263451118,-0.028182302570206364,-0.002136703727580056
0.2722020149230957,-0.027751175686717033,0.004666469991207123,0.009978294372558594,-0.00025263777934014797,0.002845555543899536,-0.003562838537618518,-0.07679951222368714,-0.028688057346631265,-0.0022438526160446755
0.2818751335144043,-0.026258016005158424,0.0003537386655807495,0.008186578750610352,-0.0026370822452008724,0.008470728993415833,-0.0007712598890066147,-0.07691643029099242,-0.02913010889694128,-0.002307386479119866
0.2938261032104492,-0.026150625199079514,-0.00655779242515564,0.006283700466156006,-0.0006261295638978481,0.009904041886329651,0.0039811511524021626,-0.077114679311153,-0.029498594466796032,-0.0023208668257171626
0.30197715759277344,-0.023538921028375626,-0.008044563233852386,0.00922161340713501,0.0022998692002147436,0.00814000889658928,0.0074310628697276115,-0.07727440381566429,-0.029838264579626683,-0.0023032157531236554
0.3119051456451416,-0.022485028952360153,-0.005275823175907135,0.010929405689239502,0.004280728287994862,0.00445818854495883,0.010876128450036049,-0.07734401128340807,-0.030206942989799423,-0.002242873323317465
0.3219161033630371,-0.02203916385769844,-0.007414475083351135,0.009463191032409668,0.0035914687905460596,0.0073137180879712105,0.013687627390027046,-0.07740766044362885,-0.030593253160518464,-0.002154094330968138
0.33200716972351074,-0.021841906011104584,-0.0077645257115364075,0.001966714859008789,0.0038117121439427137,0.003004989819601178,0.016430150717496872,-0.07749858367553375,-0.031005787012103863,-0.0020255700893340887
0.34322023391723633,-0.020202137529850006,-0.0026466697454452515,0.0014904141426086426,0.006921717897057533,-0.0017342828214168549,0.01641364023089409,-0.07756892152867463,-0.03142648974583944,-0.0018945295601119718
0.35192012786865234,-0.020847029983997345,-0.001315474510192871,0.00260239839553833,0.008091378957033157,-0.0068739173002541065,0.018552424386143684,-0.07761114677318515,-0.03186661778600451,-0.001744291095113978
0.36190223693847656,-0.02287920191884041,0.00028228759765625,0.0018753409385681152,0.0016201639082282782,-0.0025801025331020355,0.017824582755565643,-0.0775696493060337,-0.03227719344894702,-0.001587174706678955
0.37190914154052734,-0.02311907336115837,0.0029845386743545532,-0.0015442371368408203,0.00012107053771615028,-0.010442286729812622,0.015843989327549934,-0.0774151636624483,-0.03269453136239817,-0.0014484550319070913
0.3818850517272949,-0.02248438447713852,0.00796479731798172,-4.947185516357422e-06,0.00479651615023613,-0.02137988805770874,0.012123819440603256,-0.07724088928009279,-0.03316257884398299,-0.0013254530889237513
0.3940401077270508,-0.02232203632593155,0.010309942066669464,0.004181921482086182,-0.004334131721407175,-0.02347446419298649,0.008861979469656944,-0.0771384994741505,-0.033677441241353336,-0.001238978467564069
0.40203309059143066,-0.023061413317918777,0.010264024138450623,0.0047152042388916016,-0.014337830245494843,-0.02837938442826271,0.008777771145105362,-0.07710801972223147,-0.034221647157333696,-0.0011753549135780598
0.41203927993774414,-0.02533550187945366,0.008436940610408783,0.007973730564117432,-0.020007167011499405,-0.032194364815950394,-0.0015467723133042455,-0.07713465163190059,-0.03480310347628873,-0.00116594121719181
0.42204809188842773,-0.026771601289510727,0.011524364352226257,0.013051390647888184,-0.01635678857564926,-0.03748202696442604,-0.002469770610332489,-0.07731313951531094,-0.035383735811065936,-0.0012049730949081213
0.4320991039276123,-0.024831514805555344,0.01059354841709137,0.013322949409484863,-0.017809277400374413,-0.03724074363708496,-0.012639317661523819,-0.07745090743011135,-0.03602954130953136,-0.0013080629589017382
0.44205713272094727,-0.026459813117980957,0.012543492019176483,0.012076497077941895,-0.03199946507811546,-0.02954758144915104,-0.013638056814670563,-0.07768367334003855,-0.03666252441416389,-0.0014529123489134957
0.4521291255950928,-0.027350321412086487,0.01533682644367218,0.01599651575088501,-0.03066202625632286,-0.03478176146745682,-0.01662958599627018,-0.07800410344212023,-0.03727055346470794,-0.0016596331254782233
0.4621872901916504,-0.02674100175499916,0.003478236496448517,0.01872152090072632,-0.05288532376289368,-0.041742242872714996,-0.012499394826591015,-0.07855761715166125,-0.03791443966489221,-0.0018153596314378218
0.4723782539367676,-0.01614389568567276,0.010056614875793457,0.004275918006896973,-0.03322746604681015,-0.03293996304273605,-0.015320215374231339,-0.07916803073535925,-0.038536524538768345,-0.00199691619831936
0.4818720817565918,-0.020050223916769028,0.006884783506393433,0.00871056318283081,-0.01509018987417221,-0.029918383806943893,-0.01384839229285717,-0.07953339405381189,-0.03911967675487108,-0.0021750046417462715
0.4926033020019531,-0.023611582815647125,0.01014186441898346,0.010606825351715088,-0.009415259584784508,-0.027454160153865814,-0.016407158225774765,-0.07977133457510827,-0.03969647474008379,-0.0023533650777619133
0.5023303031921387,-0.020247064530849457,0.005799092352390289,0.019168376922607422,-0.011699519120156765,-0.02787511609494686,-0.018959319218993187,-0.08002555355404857,-0.04030237310199163,-0.002561981993054713
0.5123140811920166,-0.01974962279200554,-0.002777285873889923,0.019456803798675537,-0.02283925749361515,-0.015631500631570816,-0.013224733993411064,-0.08036328175788794,-0.04080293404949683,-0.0027587956198855236
0.5223290920257568,-0.022529318928718567,-0.0016072019934654236,0.014389872550964355,-0.014405141584575176,-0.0056955572217702866,-0.011376499198377132,-0.08073554718540606,-0.041215235795047454,-0.0029170719663192506
0.5324392318725586,-0.02035047858953476,-0.0059837400913238525,0.01203995943069458,-0.011098294518887997,-0.009718528017401695,-0.0149110471829772,-0.08110020801808103,-0.04161165564231036,-0.0030852957170036887
0.5432381629943848,-0.015551604330539703,-0.0031023696064949036,0.012350499629974365,-0.004507570061832666,-0.01094837673008442,-0.01316172257065773,-0.08119460906246237,-0.042033328623350415,-0.003249478285622426
0.552436113357544,-0.013208415359258652,-0.005311653017997742,0.014918506145477295,-0.0089033842086792,-0.006670806556940079,-0.007767224218696356,-0.08139038742023044,-0.04227248114188442,-0.003376759712561631
0.5623791217803955,-0.014828931540250778,-0.007426507771015167,0.013078689575195312,-0.012133331969380379,-0.0021280753426253796,-0.0005995924584567547,-0.081567961653132,-0.04249984638927843,-0.003434857671462704
0.5722169876098633,-0.016509320586919785,-0.006602056324481964,0.00886690616607666,-0.01220177486538887,0.0011635918635874987,0.001970890676602721,-0.0818277444851238,-0.042728677500609276,-0.0034457840958883666
0.5823912620544434,-0.014463096857070923,-0.007703669369220734,0.009878039360046387,-0.012379107996821404,-0.006453403737396002,0.0011391856241971254,-0.08202977285858487,-0.04296080827711916,-0.0034514384311845614
0.5926451683044434,-0.014341939240694046,-0.0063275620341300964,0.013264834880828857,-0.007804064080119133,-0.006408130284398794,0.00055728480219841,-0.08208819201435341,-0.04322061584122554,-0.003469616383422332
0.6024589538574219,-0.015742938965559006,-9.670853614807129e-05,0.007891714572906494,-0.009686386212706566,-0.00801499281078577,0.00252541434019804,-0.082144140225409,-0.043514801357148275,-0.0034739444329811185
0.6123332977294922,-0.016579151153564453,0.005254469811916351,0.00018298625946044922,-0.02091027796268463,-0.014292863197624683,0.0039504715241491795,-0.08219474652287048,-0.043839849615075574,-0.0034647665438302436
0.6222763061523438,-0.014722522348165512,-0.002454712986946106,-0.004776179790496826,-0.02847420610487461,-0.014790207147598267,0.0036792017053812742,-0.08239729297762681,-0.0441574538720987,-0.0034524029565878326
0.6325559616088867,-0.01652108132839203,-0.0005711615085601807,-0.004131734371185303,-0.019633309915661812,-0.01716015487909317,0.0033910477068275213,-0.08255897481924625,-0.04446654797510643,-0.00345282296905277
0.6443352699279785,-0.020130250602960587,0.004391714930534363,0.0005956292152404785,-0.012398166581988335,-0.01797179877758026,0.002474761102348566,-0.08260111566399182,-0.04479575611887684,-0.0034440657271260266
0.6524372100830078,-0.02046845853328705,0.005408614873886108,0.005201518535614014,-0.011915601789951324,-0.025285370647907257,0.0030939457938075066,-0.08260657492197926,-0.04517640836230176,-0.0034329444634253886
0.6627731323242188,-0.021212805062532425,0.0018409788608551025,0.01102381944656372,-0.018298782408237457,-0.029437195509672165,-0.003185202134773135,-0.08263426473653725,-0.04560901295262473,-0.003457505583604231
0.6723842620849609,-0.025192491710186005,-0.0030357763171195984,0.014977693557739258,-0.024311134591698647,-0.022887948900461197,-0.006169540341943502,-0.08275067611217114,-0.04602616000866791,-0.0035265524795642903
0.6825480461120605,-0.028218258172273636,0.0005256906151771545,0.010423898696899414,-0.025402816012501717,-0.024758419021964073,-0.007342876400798559,-0.0829894704305741,-0.04640572012715814,-0.0036143279364312325
0.6927180290222168,-0.026245422661304474,0.008501805365085602,0.008269667625427246,-0.029351484030485153,-0.029948389157652855,-0.010419359430670738,-0.08333057755039741,-0.046840711462001916,-0.003726353466031258
0.7024021148681641,-0.02443712204694748,0.007336191833019257,0.007058441638946533,-0.02170484885573387,-0.027930865064263344,-0.012570181861519814,-0.0835202832178916,-0.047278473547640004,-0.0038682936979682458
0.712456226348877,-0.030532758682966232,0.010130904614925385,0.004753768444061279,-0.01483495905995369,-0.016461430117487907,-0.013665806502103806,-0.08367104903857077,-0.04767022846177519,-0.004036727620264566
0.7224061489105225,-0.039414018392562866,0.015488669276237488,0.0027011632919311523,-0.0024428546894341707,0.00041115982457995415,-0.015559367835521698,-0.08379159435251922,-0.047946003145681114,-0.004195377501510333
0.7326831817626953,-0.04220135882496834,0.014987975358963013,-0.0015332698822021484,0.009821267798542976,0.017741680145263672,-0.023551248013973236,-0.08381938345882035,-0.048058472455362704,-0.0044024019039721005
0.7432510852813721,-0.04185217618942261,0.015944160521030426,-0.006067335605621338,0.022758355364203453,0.023471960797905922,-0.028810298070311546,-0.083656080394958,-0.048071365253891246,-0.004672814095316378
0.7525601387023926,-0.03720144182443619,0.01700635999441147,-0.006574749946594238,0.03626377880573273,0.016450535506010056,-0.04003924876451492,-0.08329452010348765,-0.048143348263459444,-0.00502884878585442
0.7627711296081543,-0.03033652901649475,0.018738754093647003,-0.002683281898498535,0.024212922900915146,0.0008149840869009495,-0.046898700296878815,-0.08296479384982214,-0.04838573380267256,-0.005476439690392816
0.7725741863250732,-0.024582508951425552,0.01768449693918228,-0.003755927085876465,-0.007129285484552383,-0.013292579911649227,-0.050097957253456116,-0.08299681860200524,-0.048739906468131616,-0.005982538239768957
0.7835559844970703,-0.01994917541742325,0.011863358318805695,-0.010331392288208008,-0.019991304725408554,-0.026466038078069687,-0.053857170045375824,-0.08324937854912073,-0.049226145137413004,-0.0065264517659659954
0.7933540344238281,-0.01976201683282852,0.009674817323684692,-0.01904505491256714,-0.027679849416017532,-0.034045130014419556,-0.05579861253499985,-0.08360810835356992,-0.04987559825499135,-0.007115588168565233
0.8026270866394043,-0.01551816239953041,0.004590928554534912,-0.01813197135925293,-0.02257041074335575,-0.04206514731049538,-0.04140060395002365,-0.08407021248168957,-0.05067673668483904,-0.0076531689472369826
0.8128170967102051,-0.008036460727453232,0.013135656714439392,-0.008429169654846191,-0.010991518385708332,-0.06390387564897537,-0.013851801864802837,-0.08443791704652508,-0.05160323189626456,-0.007986159453311286
0.8226742744445801,-0.00434507429599762,0.02970588207244873,0.001421213150024414,-0.007086991332471371,-0.09203297644853592,0.01344730332493782,-0.08471438684879092,-0.05275328685077977,-0.007999990139511736
0.8331270217895508,-0.0012111775577068329,0.0005241930484771729,0.00294572114944458,-0.0339050218462944,-0.12288650125265121,0.01091809943318367,-0.08511944939363063,-0.05414123341158234,-0.007899839936302583
0.843198299407959,-0.004991650581359863,-0.04479671269655228,-0.0037535429000854492,-0.042449142783880234,-0.143812358379364,0.011250303126871586,-0.08574966566066487,-0.055681708140149326,-0.007836787307754334
0.8525831699371338,-0.010067004710435867,-0.04185314476490021,-0.01191633939743042,-0.003271913155913353,-0.17733970284461975,0.02111305296421051,-0.08621051803923986,-0.05740787537912067,-0.007699808322181491
0.8626542091369629,-0.019137881696224213,-0.04219420254230499,-0.021201372146606445,0.09309065341949463,-0.2443179041147232,0.04043237119913101,-0.08589427472334411,-0.05957759885907139,-0.007384055094733644
0.872650146484375,-0.02395903691649437,-0.059359051287174225,-0.036863088607788086,0.20363686978816986,-0.31383731961250305,0.07290908694267273,-0.08451468916487528,-0.06236343646624933,-0.006741734389988706
0.8827452659606934,-0.028073124587535858,-0.0710073783993721,-0.05212622880935669,0.33572182059288025,-0.39166897535324097,0.1245771199464798,-0.08191757981715753,-0.06580759550566555,-0.005585732453314702
0.8943142890930176,-0.04607977718114853,-0.08706771582365036,-0.07330268621444702,0.442993700504303,-0.47557586431503296,0.17812131345272064,-0.07815996901504256,-0.06997449130053958,-0.0037987108952608675
0.9027740955352783,-0.0662398412823677,-0.12784716486930847,-0.10371190309524536,0.5096345543861389,-0.5514271259307861,0.23453372716903687,-0.07362301785084537,-0.07491741269483795,-0.0013935097467893919
0.9126930236816406,-0.08412166684865952,-0.17738361656665802,-0.14170819520950317,0.5422130227088928,-0.6202868819236755,0.29514461755752563,-0.06858129736288529,-0.080537462469686,0.0016737041470337459
0.9227981567382812,-0.10041502863168716,-0.20004284381866455,-0.17029446363449097,0.5746986269950867,-0.7156497836112976,0.3566076457500458,-0.06329016202804187,-0.08697178617172877,0.0054085387993620115
0.9334030151367188,-0.11485416442155838,-0.21227076649665833,-0.18450701236724854,0.6395825147628784,-0.8190683722496033,0.40235835313796997,-0.05759386544297283,-0.0943807932348125,0.009760197050271825
0.9432821273803711,-0.12933751940727234,-0.21541830897331238,-0.19459521770477295,0.730513870716095,-0.9353169202804565,0.43140119314193726,-0.05117991781852635,-0.10289683334608943,0.014592354628001158
0.9527339935302734,-0.14349713921546936,-0.20079974830150604,-0.20059162378311157,0.8839609622955322,-1.045555830001831,0.4649844467639923,-0.043663480529857544,-0.112584966244503,0.01991419730584988
0.9627842903137207,-0.15206709504127502,-0.17364992201328278,-0.19476497173309326,1.0537081956863403,-1.1809518337249756,0.49815407395362854,-0.034573083144588894,-0.12351261836914519,0.02582297265436563
0.9728260040283203,-0.15913914144039154,-0.13559594750404358,-0.18903565406799316,1.2782776355743408,-1.3888604640960693,0.5119932293891907,-0.023659804682719037,-0.1361494330695044,0.03242391485384888
0.9829931259155273,-0.16147823631763458,-0.1397896707057953,-0.17696118354797363,1.4351727962493896,-1.5530445575714111,0.5984629988670349,-0.010914279695390985,-0.1506693736831805,0.039804793552724066
0.9930930137634277,-0.15875154733657837,-0.16779924929141998,-0.1512315273284912,1.5019840002059937,-1.8067811727523804,0.6666484475135803,0.002702337258717725,-0.1674702764333958,0.04845171494071268
1.0028340816497803,-0.1619424819946289,-0.2110080122947693,-0.10096222162246704,1.302996039390564,-2.0870022773742676,0.7667571902275085,0.015432900073049741,-0.18703819582866826,0.05792660158359687
1.0129210948944092,-0.18788203597068787,-0.3132863938808441,-0.013847887516021729,0.9100258350372314,-2.3127999305725098,0.9378834366798401,0.024728689602049256,-0.20935260612270024,0.06851861675054619
1.0228941440582275,-0.232236847281456,-0.49240386486053467,0.12377262115478516,0.3026520013809204,-2.453700304031372,1.1067322492599487,0.028519686843349337,-0.2335677300870164,0.07982728022782105
1.033055305480957,-0.3344883918762207,-0.601815402507782,0.2750604748725891,-0.5199944376945496,-2.5766844749450684,1.293515682220459,0.02468231934842219,-0.2591483427151195,0.09123874727997451
1.0438671112060547,-0.42682066559791565,-0.6857609748840332,0.3612210750579834,-1.475845217704773,-2.5988729000091553,1.5838525295257568,0.011169034333113167,-0.2853513973294437,0.10228970621414304
1.0530052185058594,-0.4651263654232025,-0.787757158279419,0.3021162152290344,-2.1445858478546143,-2.256244659423828,1.9759694337844849,-0.011603993788707459,-0.3100721758204196,0.11391508191691255
1.0629992485046387,-0.4628361165523529,-0.8353076577186584,0.11619287729263306,-2.372246026992798,-1.9000325202941895,2.1195144653320312,-0.03970969451437615,-0.3303363021203751,0.12626856482027538
1.0728871822357178,-0.48333054780960083,-0.8148394227027893,-0.12258046865463257,-1.8168017864227295,-1.6443815231323242,2.2846686840057373,-0.06759183962106557,-0.34752014804108844,0.1397158593707143
1.0828721523284912,-0.4453890323638916,-0.73878413438797,-0.299468457698822,-0.441314160823822,-1.1609896421432495,2.679192066192627,-0.08674761807034509,-0.3594461078940024,0.15929023642521958
1.0929501056671143,-0.32487958669662476,-0.5438849925994873,-0.2399727702140808,1.6390279531478882,-0.8086225390434265,3.0492141246795654,-0.09183521320132527,-0.3668254012235134,0.1885333232831244
1.1029472351074219,-0.3575853705406189,-0.5180342197418213,0.1057581901550293,2.584990978240967,-0.26007935404777527,3.012408494949341,-0.08248945713250683,-0.3686543882453606,0.2241722089462432
1.112962245941162,-0.35744181275367737,-0.38038191199302673,0.3345993757247925,2.6975555419921875,0.23227092623710632,3.1698930263519287,-0.06850018221132191,-0.36589290859934714,0.2632300634118796
1.122960090637207,-0.38637545704841614,-0.364462673664093,0.41549819707870483,2.296818733215332,0.6010227799415588,3.1849334239959717,-0.05628023378675326,-0.3592066273506751,0.3017802525449121
1.1330711841583252,-0.45360705256462097,-0.5292723774909973,0.47762954235076904,2.131768226623535,1.1186981201171875,3.44212007522583,-0.04703584883726269,-0.3487824564299371,0.34064592838176655
1.1440701484680176,-0.39501312375068665,-0.3907816708087921,0.501133918762207,1.7855597734451294,1.6266465187072754,3.5738072395324707,-0.040252520964471766,-0.33329708271121716,0.38033769038001786
1.1529769897460938,-0.3195013701915741,-0.24874931573867798,0.5473918318748474,1.4011422395706177,2.081449270248413,3.7353451251983643,-0.03670630180617463,-0.31314896919226176,0.42011464383671426
1.1630430221557617,-0.22469139099121094,-0.18806661665439606,0.5394082069396973,1.3004308938980103,2.3729889392852783,4.089262008666992,-0.035379435386356385,-0.28949313078973365,0.4614255564858753
1.1732511520385742,-0.05535513162612915,-0.15276040136814117,0.49688708782196045,0.7867855429649353,2.7304859161376953,4.0752129554748535,-0.035962251632922916,-0.26238819987145895,0.5040117492699956
1.182927131652832,0.07769256830215454,-0.2715564966201782,0.49788808822631836,0.1789889633655548,2.842250108718872,4.179328441619873,-0.04154231661651492,-0.23289978713164045,0.5449867110852858
1.1930932998657227,0.2731480598449707,-0.3909991383552551,0.4840317368507385,0.037352196872234344,2.9881343841552734,4.4058332443237305,-0.04998613836653836,-0.20190681099002084,0.5872265832384257
1.202929973602295,0.640023946762085,-0.16592909395694733,0.27969545125961304,0.10765718668699265,3.25606632232666,4.618333339691162,-0.057623705646608625,-0.16827074741124887,0.6317870884020648
1.2132601737976074,0.8273428678512573,0.01901227980852127,0.11889183521270752,0.18433891236782074,3.5170364379882812,4.7679572105407715,-0.06306087587543407,-0.13154090469073046,0.6787006251506716
1.2230610847473145,0.9684978127479553,0.09741856157779694,0.11957937479019165,0.00011406303383409977,3.711620569229126,4.81223726272583,-0.06735110115632638,-0.09218903155943978,0.7265594093157532
1.234330177307129,1.121103286743164,0.07788828760385513,0.1858522891998291,-0.2526891529560089,3.787764310836792,4.785830974578857,-0.07207656814406906,-0.05125134490104077,0.7746371156999436
1.244300127029419,1.2774864435195923,0.03432895988225937,0.21910017728805542,-0.4640296697616577,3.7890465259552,4.660166263580322,-0.07715209957759196,-0.00973903714217264,0.8219593286854899
1.2530202865600586,1.4185206890106201,0.07095475494861603,0.17981624603271484,-0.49995145201683044,3.6267127990722656,4.521381378173828,-0.08155578345488954,0.03117299116658596,0.8680777541808671
1.2631092071533203,1.5136357545852661,0.126701220870018,0.056112587451934814,-0.4876973330974579,3.232562303543091,4.338221073150635,-0.08413726705648407,0.0693064134335341,0.9128692046651713
1.2729971408843994,1.4803024530410767,0.17511752247810364,-0.11942017078399658,-0.7176154851913452,2.665740728378296,3.9516489505767822,-0.08637298944311218,0.10254953720029554,0.9549970353347186
1.2829790115356445,1.313612461090088,0.25118595361709595,-0.2135545015335083,-1.3241329193115234,1.8886886835098267,3.208099603652954,-0.09205323650126021,0.12873850179069954,0.9922077196190751
1.2931721210479736,1.0270302295684814,0.48572245240211487,-0.18454331159591675,-2.3202712535858154,0.9642285108566284,2.1324431896209717,-0.10632049142845328,0.14598586467537802,1.0214236613874041
1.303102970123291,0.7123650312423706,0.741467297077179,-0.1581965684890747,-3.053501605987549,0.006533412262797356,1.0141197443008423,-0.1309311247298966,0.15306236966224526,1.0411256798856028
1.3132872581481934,0.4612258970737457,0.8884040117263794,-0.22967123985290527,-3.225566864013672,-0.7213945388793945,0.15795134007930756,-0.16146050589467353,0.150827291801021,1.0516984099018618
1.322951078414917,0.32540637254714966,0.8334171175956726,-0.2901662588119507,-2.7834484577178955,-1.1073302030563354,-0.4128895699977875,-0.19191353777134698,0.14196201342934198,1.0547721316604552
1.33305025100708,0.20758116245269775,0.5350583791732788,-0.2551279664039612,-1.5660675764083862,-1.1171764135360718,-0.7343157529830933,-0.21457027646061502,0.1299856094917783,1.05183940726555
1.343337059020996,0.10415105521678925,0.29870954155921936,-0.21440207958221436,-0.1774807870388031,-0.8634809255599976,-0.7988314628601074,-0.22414352894074083,0.11844205113119524,1.0449999165974913
1.3530380725860596,0.06615808606147766,0.0943661779165268,-0.08215457201004028,1.0614280700683594,-0.49765744805336,-0.7107561826705933,-0.22046483922269683,0.10976359775827135,1.0367034819797583
1.3630890846252441,0.059983015060424805,-0.06499890983104706,0.05234932899475098,1.9476776123046875,-0.12898096442222595,-0.5269340872764587,-0.2059008722447436,0.10494359890759163,1.028664860145224
1.3730340003967285,0.05066914111375809,-0.11080889403820038,0.16363853216171265,2.3294143676757812,0.17153093218803406,-0.3147525489330292,-0.18474942051030455,0.10391678917945743,1.0220552113354908
1.3831052780151367,0.034166522324085236,-0.1564379334449768,0.2553751468658447,2.235161781311035,0.39539435505867004,-0.11042121797800064,-0.16196704035630133,0.10599695808879708,1.017512795535965
1.3939542770385742,0.030760884284973145,-0.14673128724098206,0.27542048692703247,1.724256157875061,0.5381975769996643,0.047273602336645126,-0.14208200205867738,0.11035864426426709,1.0150237837410192
1.403141975402832,0.04739189147949219,-0.09916120767593384,0.2201332449913025,1.001006841659546,0.5765756368637085,0.15619796514511108,-0.1283371739941844,0.11594380601593059,1.0145384610120205
1.4132699966430664,0.07832001894712448,-0.037752971053123474,0.16522938013076782,0.2588583827018738,0.4899590313434601,0.20528534054756165,-0.12188643995093335,0.12147068724040824,1.0156373988416023
1.4235031604766846,0.10413489490747452,0.006130918860435486,0.14469605684280396,-0.3701397180557251,0.3350904583930969,0.20403338968753815,-0.12228653598048331,0.1258949248632253,1.017780698518382
1.4332141876220703,0.11525328457355499,-0.008703544735908508,0.14107519388198853,-0.8293815851211548,0.15101087093353271,0.17783933877944946,-0.1281489530537623,0.12864599718529926,1.0205002960744092
1.4433612823486328,0.10650278627872467,-0.019396692514419556,0.15702885389328003,-1.0308431386947632,0.05316620692610741,0.12774965167045593,-0.13738224772931515,0.12996244472155613,1.0232556435783156
1.453200101852417,0.07689523696899414,-0.005675375461578369,0.10479480028152466,-0.9107416868209839,0.05836363136768341,0.08892395347356796,-0.14705883145024193,0.13080268976152787,1.0256363493053413
1.463273048400879,0.04384163022041321,0.010176599025726318,0.015860378742218018,-0.5763571858406067,0.12531021237373352,0.07789798825979233,-0.15439182290752046,0.13196493740892204,1.0274742262430079
1.47330904006958,0.016249150037765503,0.0111350417137146,-0.01925867795944214,-0.180253267288208,0.21392422914505005,0.06055334955453873,-0.15808654946059272,0.13385522037945596,1.028680494215841
1.4832162857055664,-0.004092186689376831,0.008963391184806824,-0.0015622377395629883,0.1996779441833496,0.281948059797287,0.028790360316634178,-0.15787520192407883,0.13642496223732734,1.029126238408166
1.4933531284332275,-0.013104647397994995,0.03257212042808533,0.009883105754852295,0.46194976568222046,0.3071546256542206,-0.019919121637940407,-0.15451981145642624,0.13932465154610985,1.028702289314658
1.503751277923584,-0.011479824781417847,0.06253008544445038,0.0007558465003967285,0.6174736618995667,0.2952558696269989,-0.06558125466108322,-0.14914292977259172,0.14217833426024098,1.0274922876894248
1.5135822296142578,-0.010854646563529968,0.07377798855304718,-0.014451742172241211,0.6449124813079834,0.24888329207897186,-0.1075340285897255,-0.1429715055461721,0.14465004488254135,1.0256896940316942
1.5233790874481201,-0.020985350012779236,0.054734379053115845,-0.02013254165649414,0.6222440004348755,0.20582853257656097,-0.11848153918981552,-0.13683921685703634,0.14664033624527006,1.0236077816267826
1.5334031581878662,-0.026615753769874573,0.04676905274391174,-0.03714936971664429,0.5705363750457764,0.16472052037715912,-0.10826858133077621,-0.1310964616976201,0.1482063766896613,1.0215850371403734
1.5436420440673828,-0.0381593257188797,0.046165138483047485,-0.03958249092102051,0.49112600088119507,0.15019071102142334,-0.0791403129696846,-0.12596654787621656,0.149561908923938,1.0198306741442327
1.5534851551055908,-0.037774667143821716,0.03894931823015213,-0.04587680101394653,0.37113621830940247,0.1540198028087616,-0.047822341322898865,-0.1217671247056328,0.1509102812654606,1.0185511054644445
1.5634040832519531,-0.03697840869426727,0.03553910553455353,-0.05155593156814575,0.2073465883731842,0.14966519176959991,-0.02500634454190731,-0.11894659279395137,0.15234792636224423,1.0177583738713485
1.5733580589294434,-0.030899658799171448,0.03275696933269501,-0.05427193641662598,0.03114253468811512,0.13398928940296173,-0.010871617123484612,-0.1177992029724297,0.1537359106887111,1.0174211121295333
1.5834951400756836,-0.01794445514678955,0.03453291952610016,-0.05382204055786133,-0.09941896796226501,0.1150645911693573,0.0024377426598221064,-0.11819273668262466,0.15498671226801472,1.0174395925764397
1.5938282012939453,-0.015923425555229187,0.03485919535160065,-0.05258047580718994,-0.184112548828125,0.0925089493393898,-0.004694735165685415,-0.11961601108949531,0.1560485589869875,1.017632961452699
1.6034812927246094,-0.014176428318023682,0.03310633450746536,-0.04272651672363281,-0.23649278283119202,0.07292197644710541,-0.010198903270065784,-0.12173524703674121,0.1569061731333134,1.0179078518335039
1.6136140823364258,-0.00860324501991272,0.013455808162689209,-0.043009161949157715,-0.2439829260110855,0.06341635435819626,-0.018001165241003036,-0.12416164953166985,0.15761929567128127,1.018141434760297
1.6234259605407715,-0.008709147572517395,0.007536187767982483,-0.05442732572555542,-0.21206334233283997,0.05781564116477966,-0.024270834401249886,-0.12648314264012822,0.15825672836805477,1.0182907348803887
1.6334631443023682,-0.005221068859100342,0.011104032397270203,-0.06732875108718872,-0.14448563754558563,0.051569197326898575,-0.033039290457963943,-0.12830113483374456,0.15879878548259935,1.0183004324523417
1.6437950134277344,-0.007593125104904175,0.01429237425327301,-0.06348496675491333,-0.07387229800224304,0.040661200881004333,-0.05239003151655197,-0.1294558618017077,0.15923504264875954,1.0180418857148048
1.6534051895141602,-0.00835205614566803,0.013056233525276184,-0.06423389911651611,-0.004710003733634949,0.03096036985516548,-0.06367144733667374,-0.12994845153338222,0.15952181200698634,1.0175283323287592
1.663546085357666,-0.004199758172035217,0.011193931102752686,-0.06627506017684937,0.0749276876449585,0.024272684007883072,-0.08084218204021454,-0.1297183483530595,0.1596864599184591,1.0167635281164655
1.6736040115356445,-0.009768828749656677,0.011709138751029968,-0.05825686454772949,0.12976163625717163,0.02178742177784443,-0.09642859548330307,-0.12882953697176952,0.15977656752462888,1.0157064180106312
1.6839091777801514,-0.010933920741081238,0.00035081803798675537,-0.05361145734786987,0.1608555167913437,0.012700272724032402,-0.09767191857099533,-0.1275737654653316,0.15977159359918106,1.0144941462745003
1.6943211555480957,-0.011320039629936218,-0.013980299234390259,-0.045768022537231445,0.19089969992637634,0.0007349560037255287,-0.08737427741289139,-0.12599255358814676,0.15966597965269258,1.0132815730564486
1.7034990787506104,-0.007084831595420837,-0.026093900203704834,-0.04025214910507202,0.18953590095043182,-0.008908216841518879,-0.07664158195257187,-0.12420670901366151,0.15946537338187652,1.0121563243107294
1.7136139869689941,-0.004043415188789368,-0.03975272178649902,-0.03438335657119751,0.14555272459983826,-0.026921041309833527,-0.06540756672620773,-0.12265596968878459,0.15914912310585824,1.0111774867639933
1.7235612869262695,0.0034173280000686646,-0.04148469865322113,-0.028902530670166016,0.0857287049293518,-0.047097817063331604,-0.06209277734160423,-0.12161837610782503,0.15866244022164083,1.0103624203151351
1.7336649894714355,0.006750047206878662,-0.02735467255115509,-0.022817671298980713,0.010617703199386597,-0.0687682256102562,-0.06321423500776291,-0.12126441630245269,0.15797974784506638,1.0096662645450585
1.7438321113586426,0.007315158843994141,-0.018803216516971588,-0.018913626670837402,-0.03386792168021202,-0.08604338765144348,-0.06169271841645241,-0.12151916731238732,0.1571125111285234,1.0090649926334512
1.7535881996154785,0.010025545954704285,-0.019353747367858887,-0.011546194553375244,-0.060862522572278976,-0.10034643113613129,-0.05416769161820412,-0.12211993445918591,0.1560716397419239,1.0085595516786636
1.7636842727661133,0.012925073504447937,-0.02481113374233246,0.0013672113418579102,-0.06391603499650955,-0.09628528356552124,-0.04424715042114258,-0.12282182368842566,0.15499547216421508,1.0081540191459153
1.7736501693725586,0.010317519307136536,-0.02809668332338333,0.016760051250457764,-0.018266525119543076,-0.07007152587175369,-0.025152552872896194,-0.12324191096313723,0.15408378025298133,1.0078675272106457
1.783782958984375,0.010277152061462402,-0.035270631313323975,0.029708445072174072,0.032024309039115906,-0.04011620581150055,-0.0027447151951491833,-0.12305973210217852,0.15346797634832238,1.0077047141634239
1.7937159538269043,0.012525573372840881,-0.041084758937358856,0.037606239318847656,0.09646082669496536,-0.012139697559177876,0.029738128185272217,-0.1221224408087746,0.15314908248798806,1.0077417194618887
1.8038160800933838,0.02036808431148529,-0.029456250369548798,0.03950166702270508,0.15413029491901398,0.017297420650720596,0.04751760512590408,-0.12052245119808619,0.15318169971976553,1.0079237559428156
1.813765048980713,0.018385574221611023,-0.01727963238954544,0.04202169179916382,0.15530981123447418,0.028604935854673386,0.04394124448299408,-0.11872422458871842,0.15345816372187868,1.0081506919953276
1.823721170425415,0.018371090292930603,-0.017044559121131897,0.047025978565216064,0.09728934615850449,0.01984979584813118,0.030409935861825943,-0.11728898616286675,0.15375754514293344,1.0083287853614447
1.833759069442749,0.02233929932117462,-0.005219936370849609,0.050614774227142334,0.02666364796459675,-0.0038222456350922585,-1.4996621757745743e-06,-0.11656782987815076,0.153883402192036,1.0083947536707532
1.8438191413879395,0.024996012449264526,0.013210505247116089,0.04570800065994263,-0.04351189732551575,-0.03821328654885292,-0.033919356763362885,-0.11658538986896254,0.15372653552025575,1.0082349792320746
1.853748083114624,0.02415589988231659,0.022494077682495117,0.03554344177246094,-0.08972998708486557,-0.07244369387626648,-0.07099935412406921,-0.11719366481950988,0.15317881055310564,1.0078344162131212
1.8638761043548584,0.020838037133216858,0.01637651026248932,0.028080463409423828,-0.12906953692436218,-0.09573863446712494,-0.10373338311910629,-0.11817581078892454,0.1523329321045656,1.0071458406198652
1.873934268951416,0.021951496601104736,0.014789111912250519,0.021053731441497803,-0.14907974004745483,-0.1084219366312027,-0.13414853811264038,-0.11943640174923746,0.15129927975374402,1.0061822518416956
1.8840961456298828,0.025216445326805115,0.01627577841281891,0.01721501350402832,-0.16230285167694092,-0.11563918739557266,-0.1663331687450409,-0.12102824457223028,0.15019407220911582,1.0049344442894985
1.8938212394714355,0.027818158268928528,0.02697388082742691,0.01465076208114624,-0.18792885541915894,-0.1288362294435501,-0.20493169128894806,-0.1229481816560026,0.14894685267616264,1.0033836998527967
1.9039192199707031,0.03231574594974518,0.03161243349313736,0.011599540710449219,-0.24139711260795593,-0.1661183387041092,-0.2671830356121063,-0.1253009848613214,0.14739310245962123,1.0013704077649135
1.9138991832733154,0.0413309782743454,0.044824689626693726,-0.0005789399147033691,-0.3127615749835968,-0.2248934954404831,-0.3414599299430847,-0.1284562393581054,0.14530946134074726,0.9987689512795282
1.9238641262054443,0.051851436495780945,0.06132793426513672,-0.015437006950378418,-0.3840990662574768,-0.29924601316452026,-0.434661865234375,-0.13257211576647665,0.14251917483526805,0.995433011597343
1.9338932037353516,0.05722270905971527,0.07489296793937683,-0.019748270511627197,-0.43733566999435425,-0.38627704977989197,-0.5351067185401917,-0.13740741427679007,0.1387083017018995,0.9912059968124763
1.9439821243286133,0.06943310797214508,0.08268015086650848,-0.02477896213531494,-0.5174867510795593,-0.4769972562789917,-0.6514400243759155,-0.142934339611601,0.13366335320990222,0.9859273810038505
1.9542961120605469,0.0908956527709961,0.09439514577388763,-0.04003101587295532,-0.6358533501625061,-0.5734888911247253,-0.7919209599494934,-0.1495856610683009,0.1274518750457397,0.9794567801760868
1.9639761447906494,0.1163225844502449,0.12486441433429718,-0.042819976806640625,-0.7879477143287659,-0.6661802530288696,-0.9615612626075745,-0.1577254952411921,0.12004069273032462,0.9715484590688968
1.9740452766418457,0.13578176498413086,0.14533887803554535,-0.026816248893737793,-0.9693071246147156,-0.7598206996917725,-1.1584360599517822,-0.16768658457843824,0.11135302471506826,0.9619140260868789
1.9843411445617676,0.1584601104259491,0.15956029295921326,-0.014110207557678223,-1.1299583911895752,-0.8401471972465515,-1.3781251907348633,-0.1795065500706619,0.10131879045210206,0.9502428722179096
1.9947471618652344,0.18816614151000977,0.18014214932918549,-0.0328640341758728,-1.2371325492858887,-0.9179700613021851,-1.6070774793624878,-0.19276897771511733,0.08992461748751027,0.9362644261358123
2.0044760704040527,0.21804699301719666,0.2113424837589264,-0.06548964977264404,-1.31541109085083,-0.9794521927833557,-1.8581432104110718,-0.20701854058004937,0.07711622720511412,0.9197200897856745
2.0143160820007324,0.24458587169647217,0.20573259890079498,-0.08733677864074707,-1.2331924438476562,-1.0253064632415771,-2.080106496810913,-0.2212857479601519,0.062959206061516,0.9004888360098925
2.0242342948913574,0.28564274311065674,0.1648644357919693,-0.07696998119354248,-0.9277726411819458,-1.0467034578323364,-2.2725322246551514,-0.23338195625820268,0.047730702387496604,0.8788162586927476
2.0341720581054688,0.3216749131679535,0.16823914647102356,-0.02757960557937622,-0.5837460160255432,-1.1389470100402832,-2.5105605125427246,-0.24187307435608985,0.03110309365168293,0.8545106540856531
2.0441091060638428,0.3790757954120636,0.18423891067504883,-0.0249173641204834,-0.29954832792282104,-1.2211891412734985,-2.708275318145752,-0.24686512765580088,0.01272897006954216,0.8276718083844515
2.0541741847991943,0.48860207200050354,0.20327617228031158,-0.08822661638259888,-0.08551779389381409,-1.255902886390686,-2.8981006145477295,-0.24883848265271286,-0.006770167874019302,0.798738740289518
2.0642080307006836,0.550759494304657,0.2505865693092346,-0.09850144386291504,0.041715167462825775,-1.2696157693862915,-3.1041512489318848,-0.24856243449204307,-0.027073800690389057,0.7677460325246724
2.0740652084350586,0.5719426274299622,0.28199177980422974,-0.027142822742462158,0.2318451702594757,-1.1932110786437988,-3.251044273376465,-0.24621477259612554,-0.04740370018320495,0.7349795804639367
2.08406925201416,0.5456492900848389,0.26594018936157227,0.07193124294281006,0.4116576611995697,-1.1289716958999634,-3.4484641551971436,-0.2411355091648921,-0.06723598502760862,0.7007450291880134
2.094022274017334,0.5166440010070801,0.26821255683898926,0.12952768802642822,0.48905977606773376,-1.0881649255752563,-3.5663442611694336,-0.23404038903234128,-0.08672572535183012,0.6649724254847691
2.1041011810302734,0.5282687544822693,0.2330879122018814,0.1125594973564148,0.6111820340156555,-0.9914277195930481,-3.5855984687805176,-0.22529525578413193,-0.10533937790538216,0.6289056765244206
2.114420175552368,0.5064126253128052,0.18056625127792358,0.058393657207489014,0.8037762641906738,-0.896767795085907,-3.5741729736328125,-0.21422667479228374,-0.12251913194326226,0.5932367630828922
2.1240830421447754,0.4615668058395386,0.15198233723640442,0.023688197135925293,0.9799269437789917,-0.8676350712776184,-3.5205819606781006,-0.20080501154676572,-0.13847325812379674,0.5584003284182509
2.134139060974121,0.43241390585899353,0.10807664692401886,0.01900690793991089,1.0823873281478882,-0.8709182143211365,-3.413073778152466,-0.18555853060959662,-0.15360013271153686,0.5249243329423731
2.144124984741211,0.38896995782852173,0.05140961706638336,0.019947409629821777,1.0621312856674194,-0.8194830417633057,-3.3004980087280273,-0.16952463727932904,-0.16770624857884542,0.49300091424550857
2.1540260314941406,0.34338611364364624,0.028516381978988647,0.015398979187011719,0.9554908275604248,-0.8004688620567322,-3.1615614891052246,-0.15400711663379435,-0.18067703370523638,0.4624532230003163
2.1640090942382812,0.32596370577812195,0.013989686965942383,0.026546239852905273,0.8296297192573547,-0.8093815445899963,-2.988203763961792,-0.1395390097770014,-0.1929444916594841,0.4335515048714655
2.1740400791168213,0.2606489062309265,-0.031395092606544495,0.02614128589630127,0.6366370916366577,-0.7888184785842896,-2.826150894165039,-0.12656624115694276,-0.20456986343247321,0.40622878358001296
2.1841161251068115,0.18273596465587616,-0.10548907518386841,-0.006855189800262451,0.39210647344589233,-0.8071993589401245,-2.6520917415618896,-0.11586485646289069,-0.21565405174324792,0.38027276049657494
2.194045066833496,0.15741537511348724,-0.17476749420166016,-0.006357550621032715,0.18274018168449402,-0.8043258190155029,-2.492121934890747,-0.10743881235994276,-0.22646733354991538,0.3556487075867361
2.204014301300049,0.11496555805206299,-0.22342093288898468,0.008158504962921143,-0.020482109859585762,-0.7692928314208984,-2.332577705383301,-0.1011723119367148,-0.2367795408618557,0.33218969698121836
2.2141642570495605,0.07942752540111542,-0.22850169241428375,0.021081507205963135,-0.20025107264518738,-0.714179515838623,-2.1870553493499756,-0.09690905797763212,-0.24638734661003703,0.30983950046485964
2.2278661727905273,0.07036826014518738,-0.18492822349071503,0.04840445518493652,-0.3303680121898651,-0.6326017379760742,-2.0325212478637695,-0.09432414555632834,-0.2552215076366758,0.28861906478580274
2.2342071533203125,0.061115533113479614,-0.11632025241851807,0.12599867582321167,-0.1226654201745987,-0.5463499426841736,-1.884067416191101,-0.09171440728151216,-0.2628876310985993,0.2689518679538904
2.2446231842041016,0.02301311492919922,-0.06189633905887604,0.21444183588027954,0.12462097406387329,-0.49673521518707275,-1.8081239461898804,-0.08678565208433653,-0.2696736726645785,0.25115309638248845
2.254685163497925,-0.052480489015579224,-0.0005786493420600891,0.2733931541442871,0.232813760638237,-0.4457915723323822,-1.7778126001358032,-0.08020883080132636,-0.275823272246733,0.23428417997745346
2.264688014984131,-0.09257426857948303,-0.0766754224896431,0.2678315043449402,0.204709991812706,-0.36306875944137573,-1.7498492002487183,-0.07312437761258946,-0.28114975731971914,0.21791964690869015
2.2743330001831055,-0.07574456930160522,-0.14020408689975739,0.1897466778755188,-0.0027955404948443174,-0.24868835508823395,-1.7274885177612305,-0.06725687427691016,-0.28537817673679705,0.20143481972557514
2.2845470905303955,-0.05081737041473389,-0.0880042091012001,0.14750438928604126,-0.21941016614437103,-0.11006448417901993,-1.687677264213562,-0.06352619227638315,-0.28828149831230676,0.18465517468716738
2.294680118560791,-0.05519959330558777,-0.07879534363746643,0.1329626441001892,-0.35980772972106934,0.042971402406692505,-1.630305528640747,-0.06156141148085832,-0.28966138860723945,0.16787405195208718
2.3049471378326416,-0.07463139295578003,-0.12026384472846985,0.09606140851974487,-0.4619484841823578,0.15577097237110138,-1.5535880327224731,-0.061036735109605465,-0.28962818080962793,0.15136572549690427
2.3146321773529053,-0.08519420027732849,-0.16934426128864288,0.08871561288833618,-0.5226773619651794,0.23292407393455505,-1.4978376626968384,-0.06142708485668353,-0.28865847086020624,0.1353030062144927
2.327348232269287,-0.10668677091598511,-0.20792077481746674,0.09619688987731934,-0.5474227070808411,0.32192739844322205,-1.4642043113708496,-0.06237724425039933,-0.28688164166856683,0.11953165943844755
2.334761142730713,-0.1319584846496582,-0.1938488781452179,0.09612584114074707,-0.46927061676979065,0.41435080766677856,-1.43929922580719,-0.06326071177003746,-0.28412213521182605,0.10409606076290479
2.344762086868286,-0.14407238364219666,-0.15146121382713318,0.10062116384506226,-0.32521477341651917,0.47656381130218506,-1.4008489847183228,-0.06313964805177204,-0.2806033187672907,0.08927433538943218
2.3550281524658203,-0.15842583775520325,-0.1133771762251854,0.13703888654708862,-0.17660905420780182,0.48880767822265625,-1.3804383277893066,-0.06170442009237275,-0.27665513491806015,0.07520155657008998
2.3673481941223145,-0.18700939416885376,-0.11183372139930725,0.18071669340133667,-0.10208085179328918,0.5229966640472412,-1.3432462215423584,-0.0593326493977948,-0.2724020826215007,0.06164650222174602
2.3776111602783203,-0.2115219235420227,-0.15627938508987427,0.2077394723892212,-0.0708257257938385,0.5717018842697144,-1.3042563199996948,-0.056608823457041046,-0.2677043807569848,0.04865464038307393
2.3847012519836426,-0.21832787990570068,-0.1986960917711258,0.21649694442749023,-0.12617260217666626,0.6548575162887573,-1.3023861646652222,-0.05403867891727726,-0.2622813023713107,0.03580989947550224
2.3945960998535156,-0.21538931131362915,-0.20562608540058136,0.18884527683258057,-0.30449894070625305,0.7395840883255005,-1.2572016716003418,-0.052803462499270336,-0.25598125622118617,0.02282870637604061
2.404569149017334,-0.20031870901584625,-0.2490781545639038,0.1760420799255371,-0.5118494033813477,0.8145158290863037,-1.1945918798446655,-0.053700031835203714,-0.24888706986881587,0.009907904717701987
2.4146170616149902,-0.19656553864479065,-0.3083968758583069,0.1686936616897583,-0.5919540524482727,0.8846212029457092,-1.1237667798995972,-0.056351619430893576,-0.24109415025429332,-0.002763645173540155
2.4260730743408203,-0.2046927809715271,-0.3085293769836426,0.12833601236343384,-0.5701125860214233,0.9691963195800781,-1.0301008224487305,-0.05955651483072137,-0.2324971000674282,-0.014656161190184033
2.434634208679199,-0.2025703340768814,-0.2862466871738434,0.07321375608444214,-0.45161572098731995,1.0327441692352295,-0.9215764999389648,-0.06237980189903144,-0.22312294755094053,-0.02536359499543708
2.4446301460266113,-0.19861461222171783,-0.2586020231246948,0.04272925853729248,-0.3748151659965515,1.0980069637298584,-0.8120052218437195,-0.06447873728510922,-0.21303957606388527,-0.034729284787924426
2.454878091812134,-0.18627794086933136,-0.1882861852645874,0.04255145788192749,-0.2971733808517456,1.1117219924926758,-0.704818844795227,-0.0662339078505861,-0.20246045288383577,-0.042885347949391764
2.464643955230713,-0.17325681447982788,-0.1721619963645935,0.07305216789245605,-0.1942002773284912,1.0676385164260864,-0.6103373169898987,-0.06733935946141388,-0.1920318397047048,-0.049839959419568244
2.4761099815368652,-0.1724730134010315,-0.1957215666770935,0.09267520904541016,-0.18581852316856384,1.0166877508163452,-0.5070583820343018,-0.06811933989492376,-0.18196125909971236,-0.05568691853501485
2.484694004058838,-0.16859397292137146,-0.18762540817260742,0.10922086238861084,-0.21796980500221252,0.9429892897605896,-0.4281451404094696,-0.06922682226323186,-0.17248437714453044,-0.060618124937111134
2.49472713470459,-0.15768009424209595,-0.2121163010597229,0.0970810055732727,-0.31426650285720825,0.866071879863739,-0.37358203530311584,-0.07121591021920606,-0.16376141758760654,-0.06503843371893939
2.504642963409424,-0.1453952193260193,-0.255073606967926,0.029700517654418945,-0.45815563201904297,0.7877858281135559,-0.32092010974884033,-0.07441732145639088,-0.1557578210250332,-0.06909001956275163
2.514937162399292,-0.13145187497138977,-0.26566824316978455,-0.06259030103683472,-0.590636670589447,0.7121326327323914,-0.268303245306015,-0.07919717425340296,-0.14854951508305203,-0.07281048090884523
2.526456117630005,-0.11712720990180969,-0.24104249477386475,-0.12270122766494751,-0.7017379403114319,0.6575880646705627,-0.23737473785877228,-0.08527741051364868,-0.1419967424248865,-0.07626783668899938
2.5348970890045166,-0.11698085069656372,-0.20425525307655334,-0.1553754210472107,-0.7373846173286438,0.6144192814826965,-0.20011471211910248,-0.09211142042824257,-0.13591909602141813,-0.07945552879167148
2.5449233055114746,-0.11867493391036987,-0.16466432809829712,-0.16364943981170654,-0.725885272026062,0.5597342252731323,-0.16187423467636108,-0.0991836851135607,-0.13030270868634553,-0.08223983718864476
2.5548462867736816,-0.11169986426830292,-0.1263694167137146,-0.1482895016670227,-0.6778565049171448,0.4927107095718384,-0.12952081859111786,-0.10598374389484957,-0.12525989257499603,-0.08459889394900337
2.564908027648926,-0.09119988232851028,-0.08300270885229111,-0.12826049327850342,-0.5914883613586426,0.40977025032043457,-0.11083368957042694,-0.11216856609487595,-0.12095854361647904,-0.08657031888152485
2.5775911808013916,-0.0685410127043724,-0.037914834916591644,-0.12009531259536743,-0.5037449598312378,0.32372912764549255,-0.11060944944620132,-0.11748497964421734,-0.11750444845035314,-0.08833130066298966
2.5848441123962402,-0.04996497929096222,-0.020318426191806793,-0.13062745332717896,-0.44628629088401794,0.2565804421901703,-0.11663101613521576,-0.1220464807093825,-0.11482043142707228,-0.09002473838125635
2.5948071479797363,-0.042609699070453644,-0.02164071798324585,-0.14352446794509888,-0.3981885313987732,0.20613591372966766,-0.13147014379501343,-0.12610076361615793,-0.11272745160899608,-0.09173601139227504
2.604887008666992,-0.04121366888284683,-0.025908663868904114,-0.14382684230804443,-0.3645116090774536,0.1676887422800064,-0.15978465974330902,-0.129773107874494,-0.11111614277988868,-0.09365354765237133
2.6149840354919434,-0.03855251520872116,-0.0301324725151062,-0.12985706329345703,-0.31094294786453247,0.11469103395938873,-0.17539691925048828,-0.1329100380715083,-0.10996045291090491,-0.09569103178255468
2.6268460750579834,-0.030262544751167297,-0.037474125623703,-0.11186206340789795,-0.3312411904335022,0.06966222077608109,-0.19173960387706757,-0.13588397282832707,-0.1093586325000192,-0.09789803299461222
2.634982109069824,-0.025579623878002167,-0.041416510939598083,-0.08770579099655151,-0.36409980058670044,0.06037631630897522,-0.1876029223203659,-0.13913994528602205,-0.1090500697885411,-0.10019171840804282
2.645601272583008,-0.03255588561296463,-0.05375584959983826,-0.06791800260543823,-0.3680689334869385,0.07642443478107452,-0.18123339116573334,-0.14260244562005045,-0.10869761060902552,-0.10245017658443732
2.6548871994018555,-0.038503773510456085,-0.0550173819065094,-0.054200828075408936,-0.3472294211387634,0.09427720308303833,-0.1655023694038391,-0.1460050462923971,-0.10814961933268256,-0.10459673154559992
2.6648921966552734,-0.028101123869419098,-0.04458077251911163,-0.05065333843231201,-0.29193729162216187,0.0894678384065628,-0.1582884043455124,-0.14902902365819326,-0.1075116349525577,-0.10655347774795214
2.676441192626953,-0.012622088193893433,-0.04869629442691803,-0.04620903730392456,-0.20274591445922852,0.07886260002851486,-0.16783423721790314,-0.1513394918392699,-0.10696617915846662,-0.10847579913296833
2.6850171089172363,-0.004988282918930054,-0.04788634181022644,-0.044854938983917236,-0.10835225880146027,0.06907273083925247,-0.16265012323856354,-0.1526967091728649,-0.10651166465557024,-0.11032421468998463
2.694960117340088,9.491294622421265e-05,-0.030219390988349915,-0.04546236991882324,-0.019715335220098495,0.06335918605327606,-0.14477606117725372,-0.15316261446502216,-0.10610216850867263,-0.11194136141909819
2.705172061920166,0.0028192251920700073,-0.025828391313552856,-0.044769227504730225,0.019534016028046608,0.057184867560863495,-0.12422432750463486,-0.15298090550738866,-0.10571942225824915,-0.11330501936647586
2.7149910926818848,0.00420011579990387,-0.030644237995147705,-0.0398557186126709,0.02273566834628582,0.056528665125370026,-0.10085535794496536,-0.15265071673132852,-0.10531811961434583,-0.11441254998255322
2.7264280319213867,0.005906537175178528,-0.04235418140888214,-0.028145670890808105,0.005683797411620617,0.05839221552014351,-0.0931234061717987,-0.1523947741629631,-0.10489221326237363,-0.11535839116751229
2.734978199005127,0.0036324337124824524,-0.04153592884540558,-0.018340229988098145,-0.008941217325627804,0.057473160326480865,-0.07496383786201477,-0.15233881835472673,-0.10444060633822935,-0.11621332890077189
2.745206117630005,0.004561804234981537,-0.03208751976490021,-0.0128898024559021,-0.01929888315498829,0.05017103627324104,-0.05905294418334961,-0.15241275767641008,-0.10400574363082735,-0.11689453856684763
2.755338191986084,0.010472878813743591,-0.03163681924343109,-0.010371088981628418,-0.03061039373278618,0.030093200504779816,-0.04906688630580902,-0.15262060321764626,-0.10368914013425524,-0.11746517251854956
2.7651631832122803,0.015275940299034119,-0.02590233087539673,-0.007952332496643066,-0.017214342951774597,0.004700003191828728,-0.03691067546606064,-0.15265431673830612,-0.10356200291554696,-0.11792308148921941
2.777040958404541,0.015347220003604889,-0.02585718035697937,-0.00237351655960083,-0.015582624822854996,-0.020872734487056732,-0.024677976965904236,-0.1526240659393181,-0.10366505478217883,-0.11823799004783445
2.785088062286377,0.014277659356594086,-0.02325347065925598,0.0005573034286499023,-0.025975894182920456,-0.038264818489551544,-0.009105515666306019,-0.15262969424287326,-0.10394306897422276,-0.11842749929769321
2.7950491905212402,0.008505485951900482,-0.020985573530197144,-0.0003654956817626953,-0.03917691856622696,-0.04840720072388649,0.010659933090209961,-0.1526508429475804,-0.10428047425617984,-0.11843288646972135
2.805108070373535,0.005582794547080994,-0.020903602242469788,0.00038546323776245117,-0.04315334931015968,-0.057290177792310715,0.03272358328104019,-0.15258336059959213,-0.10464353781239748,-0.11823199697317238
2.8152589797973633,0.004475019872188568,-0.02087046205997467,0.00483328104019165,-0.04973854497075081,-0.059100858867168427,0.04882745072245598,-0.15248808278144754,-0.10500525080769917,-0.11784412028644323
2.826949119567871,0.0015620291233062744,-0.016160741448402405,0.011424779891967773,-0.06303267925977707,-0.05763204023241997,0.062066879123449326,-0.15247794746075957,-0.10531702130991145,-0.11731339779321587
2.8357131481170654,0.0010592788457870483,-0.009215429425239563,0.01765662431716919,-0.061333850026130676,-0.05726558715105057,0.0751081109046936,-0.1523518632501342,-0.10543996316288783,-0.11663597731213415
2.84513521194458,0.0008264482021331787,-0.008034437894821167,0.02114427089691162,-0.06392432749271393,-0.054718051105737686,0.08391294628381729,-0.15237659895163846,-0.10546739896359282,-0.11583512438788553
2.8551580905914307,-0.0025856122374534607,-0.0036635994911193848,0.02251887321472168,-0.04605850577354431,-0.044716548174619675,0.09072025120258331,-0.1523851322298515,-0.105442502177243,-0.11495922432157016
2.865185260772705,-0.007019639015197754,-0.004779383540153503,0.02471977472305298,-0.03271312639117241,-0.037162892520427704,0.09301339834928513,-0.152309850207455,-0.10537004297943753,-0.11402380308593285
2.8759841918945312,-0.013431861996650696,-0.0010943710803985596,0.025399506092071533,-0.017814071848988533,-0.029289254918694496,0.09261631965637207,-0.15217862707066607,-0.10533327284744531,-0.1130733535642386
2.8852381706237793,-0.020664654672145844,-0.0031854212284088135,0.028667807579040527,0.0005224421620368958,-0.01745501160621643,0.0870467945933342,-0.15190136584732256,-0.10526657628091513,-0.11216162421924931
2.895177125930786,-0.025124646723270416,-0.0026267319917678833,0.026307344436645508,0.009950032457709312,-0.000776432454586029,0.08242195099592209,-0.15156771861589627,-0.10511698343199415,-0.111288326166189
2.9052741527557373,-0.02783413976430893,0.004526093602180481,0.019179224967956543,0.015562843531370163,0.011160743422806263,0.07828574627637863,-0.15132433005408913,-0.10490245140847024,-0.11046717872446367
2.9151880741119385,-0.027387447655200958,0.009266078472137451,0.013014674186706543,0.02885201945900917,0.01786232180893421,0.07293545454740524,-0.1510983906593352,-0.10463926705894906,-0.10967046747527434
2.926683187484741,-0.02609536051750183,0.008429348468780518,0.00548553466796875,0.04960097372531891,0.024927422404289246,0.064315065741539,-0.15074085096532286,-0.1043336912978279,-0.10893875745824949
2.9351651668548584,-0.026462018489837646,0.011797010898590088,-0.004639267921447754,0.06675918400287628,0.024574819952249527,0.05442435294389725,-0.15026701672910456,-0.10406194457797696,-0.10827947701290437
2.9451711177825928,-0.023042842745780945,0.01611645519733429,-0.009927570819854736,0.08171576261520386,0.01989484578371048,0.041171398013830185,-0.14961764442035538,-0.10389776978828212,-0.10773757668490581
2.95513916015625,-0.022778354585170746,0.01688314974308014,-0.013911783695220947,0.08353070914745331,0.013571171090006828,0.024307461455464363,-0.14898120777389937,-0.10393950277893974,-0.1073669660613126
2.965268135070801,-0.023712925612926483,0.012902691960334778,-0.016337931156158447,0.08575737476348877,0.010019578039646149,0.007648057769984007,-0.14830021579368688,-0.10417321606855225,-0.10717148682524918
2.97603702545166,-0.026827096939086914,0.005510106682777405,-0.020002663135528564,0.09799273312091827,0.011112273670732975,-0.009522407315671444,-0.14756710330446732,-0.10450162066891952,-0.1071535693411888
2.985466957092285,-0.02812427282333374,0.007787913084030151,-0.027814865112304688,0.09613849222660065,0.006096342578530312,-0.025078942999243736,-0.1468686860161566,-0.10489384082870341,-0.10729981516601828
2.9957680702209473,-0.024264447391033173,0.008999645709991455,-0.031886935234069824,0.09716515243053436,-0.006905476097017527,-0.03797183930873871,-0.1462145013533135,-0.10534827503077898,-0.10758411868824408
3.0053019523620605,-0.018659397959709167,0.0024330615997314453,-0.025503039360046387,0.1088208481669426,-0.025705840438604355,-0.0466386154294014,-0.14544874055817333,-0.10591534624924484,-0.1079621171470916
3.015958070755005,-0.01693672686815262,0.0014119595289230347,-0.021349668502807617,0.11073832958936691,-0.03834519907832146,-0.05277480557560921,-0.14459936183096722,-0.10661389369325801,-0.10839325652295313
3.0267391204833984,-0.016174770891666412,0.0067094117403030396,-0.02150195837020874,0.09400161355733871,-0.049942247569561005,-0.05574151501059532,-0.14390282102210433,-0.1074084177070224,-0.10886858144976436
3.035445213317871,-0.01096583902835846,-0.0003943592309951782,-0.017060279846191406,0.08126584440469742,-0.060479845851659775,-0.05728774517774582,-0.1433409029935228,-0.108289334735535,-0.10937861529713262
3.045659065246582,-0.009933769702911377,-0.011156067252159119,-0.011357784271240234,0.07655370980501175,-0.05948231369256973,-0.05239466577768326,-0.14271313870692895,-0.10915778870641213,-0.10987417110827956
3.0554661750793457,-0.00921545922756195,-0.007137879729270935,-0.010243713855743408,0.06362379342317581,-0.06028711795806885,-0.04709763824939728,-0.14207595646679583,-0.10998632714404694,-0.11031318159523273
3.0655810832977295,-0.007150404155254364,-0.007460638880729675,-0.002600550651550293,0.05837748572230339,-0.07061845064163208,-0.039667367935180664,-0.14152341484914374,-0.110851223120955,-0.11069421213130981
3.076653003692627,-0.004491537809371948,-0.01402941346168518,0.010168910026550293,0.05091504007577896,-0.07516580075025558,-0.0295923613011837,-0.14105320288742376,-0.11174712415374445,-0.11099433338588859
3.085724115371704,-0.005064629018306732,-0.010109156370162964,0.01767653226852417,0.048553332686424255,-0.07152868062257767,-0.01988934725522995,-0.14059212434371207,-0.11259960569408337,-0.11120267840225073
3.095550060272217,-0.00548195093870163,-0.013410776853561401,0.02121758460998535,0.04317481443285942,-0.06780904531478882,-0.008028427138924599,-0.1401664174930539,-0.11339384426280687,-0.11131137237891468
3.105560302734375,-0.004095643758773804,-0.021516814827919006,0.022169172763824463,0.04925030097365379,-0.06379872560501099,0.011124921031296253,-0.1398464692806994,-0.11414640037491773,-0.11126421031318778
3.115528106689453,-0.0015397444367408752,-0.02761220932006836,0.025982677936553955,0.057388920336961746,-0.056725628674030304,0.030249610543251038,-0.13936060492928906,-0.11475125234301281,-0.11100918783312538
3.126163959503174,-0.001856684684753418,-0.02645784616470337,0.03387796878814697,0.05820095166563988,-0.050303682684898376,0.047112803906202316,-0.13868802827429255,-0.11524025477143439,-0.11054987821733657
3.1353602409362793,-0.0034605413675308228,-0.02724739909172058,0.04384922981262207,0.06019992381334305,-0.03915223106741905,0.06417035311460495,-0.1380986691234681,-0.11561675962621341,-0.10991351087475705
3.145559072494507,-0.004442393779754639,-0.030589714646339417,0.0473480224609375,0.05505019798874855,-0.020560257136821747,0.07802384346723557,-0.1375601369181575,-0.11581981545371087,-0.10912546697690322
3.1554980278015137,-0.0027757734060287476,-0.025236621499061584,0.04548156261444092,0.049605097621679306,-0.0017708567902445793,0.09059236943721771,-0.13703917038202376,-0.11581490924119622,-0.10820422289951287
3.165649175643921,-5.498528480529785e-05,-0.018892675638198853,0.04380834102630615,0.05821797996759415,0.01685924269258976,0.09968104213476181,-0.1365962225597875,-0.11562653360491708,-0.10718572244499455
3.176301956176758,-0.000745721161365509,-0.013178929686546326,0.03616517782211304,0.07170555740594864,0.03822897747159004,0.1062028631567955,-0.13601934904962362,-0.11522559554391158,-0.1060713795467066
3.1856191158294678,-0.0017341971397399902,0.0022366195917129517,0.028011441230773926,0.092348113656044,0.058922626078128815,0.10776464641094208,-0.13522973007696226,-0.11459644738544747,-0.10489546554945985
3.1954922676086426,-0.0018605813384056091,0.015601187944412231,0.02254849672317505,0.11431626230478287,0.07465338706970215,0.10896652936935425,-0.13421559230029528,-0.1137703515437019,-0.10369007726227619
3.2055821418762207,-0.0010535269975662231,0.023110374808311462,0.015667200088500977,0.12766854465007782,0.08369611203670502,0.099964939057827,-0.13304361024089814,-0.11283650722694998,-0.10250300224796433
3.2158632278442383,-0.0005701854825019836,0.030870705842971802,0.010217547416687012,0.1294504702091217,0.08769351243972778,0.08863318711519241,-0.13178779933496843,-0.11186765782812315,-0.10141033995643228
3.226001262664795,-0.004185721278190613,0.039562687277793884,0.007936716079711914,0.12115272134542465,0.08581838011741638,0.07334509491920471,-0.13054669945019562,-0.11090544753741068,-0.10045905519972545
3.2356929779052734,-0.008424699306488037,0.044600456953048706,0.00933992862701416,0.11205509305000305,0.07594870775938034,0.054176196455955505,-0.12939016993263877,-0.11004012132859466,-0.09969279425808235
3.245795249938965,-0.011492021381855011,0.04344850778579712,0.008797943592071533,0.09018991142511368,0.06394486129283905,0.03473847731947899,-0.12839765314213542,-0.10931359642714747,-0.09913782972907828
3.2557971477508545,-0.015179984271526337,0.04368181526660919,0.0057443976402282715,0.056170690804719925,0.05245651677250862,0.01674722693860531,-0.12770087552819173,-0.10873587119039071,-0.09880766989580843
3.265820026397705,-0.02119956910610199,0.042019352316856384,0.006127059459686279,0.03717854246497154,0.045011430978775024,-0.000869477167725563,-0.12734629948715834,-0.10828989528422552,-0.09869307671648993
3.277268171310425,-0.027005471289157867,0.035574764013290405,0.0063721537590026855,0.016653558239340782,0.036521270871162415,-0.013064623810350895,-0.12725941262757529,-0.10795605389928092,-0.09874458408150362
3.2859482765197754,-0.027849644422531128,0.03442905843257904,0.004991352558135986,0.01371710654348135,0.025712698698043823,-0.01930968463420868,-0.12738379124135693,-0.1077361631075798,-0.09889956096743295
3.296624183654785,-0.028140276670455933,0.03189361095428467,0.00477677583694458,0.021125754341483116,0.016275787726044655,-0.022400546818971634,-0.12760166297764022,-0.10763013368606668,-0.09909851672201722
3.305805206298828,-0.028717711567878723,0.027264684438705444,0.0003688335418701172,0.024099156260490417,0.0059069921262562275,-0.02059370093047619,-0.12802259551981393,-0.10768482985168096,-0.09930602129698629
3.315850257873535,-0.027909785509109497,0.02339927852153778,-0.0012537240982055664,0.039789970964193344,-0.0033956957049667835,-0.017923349514603615,-0.12848914055507563,-0.10789172356328175,-0.09948228891406374
3.3272809982299805,-0.026240237057209015,0.015949934720993042,-0.0012974143028259277,0.04426829144358635,-0.012018611654639244,-0.016535522416234016,-0.12881530163919852,-0.10819678373544453,-0.09963618286556782
3.3355190753936768,-0.02481425553560257,0.013159483671188354,-0.004014730453491211,0.045382823795080185,-0.022478975355625153,-0.013628415763378143,-0.12907496622137077,-0.10860986547722663,-0.09976415941330857
3.3459320068359375,-0.023585915565490723,0.005903095006942749,-0.006364583969116211,0.0469118095934391,-0.03507155552506447,-0.011438445188105106,-0.12929891320825515,-0.10919349741543838,-0.09987142255173505
3.3558640480041504,-0.021407760679721832,-0.0015270262956619263,-0.005312204360961914,0.0497366264462471,-0.04375745356082916,-0.011762285605072975,-0.12939033514298706,-0.1099339505933739,-0.09998312975914259
3.3659262657165527,-0.02001521736383438,-0.005822524428367615,-0.003301858901977539,0.04624751955270767,-0.05053555592894554,-0.011723189614713192,-0.12944433638185107,-0.11074382312805008,-0.10008794530793788
3.376664161682129,-0.019220955669879913,-0.006790384650230408,0.0024647116661071777,0.035363711416721344,-0.061556246131658554,-0.011834776028990746,-0.12952788905281848,-0.11162840568853252,-0.10020383079123164
3.385894298553467,-0.01631777733564377,-0.010037317872047424,0.010982692241668701,0.02763458713889122,-0.06913959980010986,-0.011311891488730907,-0.12961698099536093,-0.11259384522348752,-0.1003203235366228
3.3958592414855957,-0.014620266854763031,-0.010764122009277344,0.014757990837097168,0.008490987122058868,-0.07025333493947983,-0.013830176554620266,-0.1297806085950584,-0.11357580109272271,-0.10046244132280718
3.4058170318603516,-0.012562058866024017,-0.004603952169418335,0.010426461696624756,-0.008060276508331299,-0.0650402382016182,-0.015098960138857365,-0.13001584831914068,-0.11450690215443249,-0.10065017760396655
3.4161341190338135,-0.009855225682258606,-0.00639699399471283,0.007304787635803223,-0.010539946146309376,-0.05963961407542229,-0.017350662499666214,-0.130285279281322,-0.11535360674650583,-0.10084335745599961
3.426830291748047,-0.007413595914840698,-0.007629081606864929,0.009389996528625488,0.00470490287989378,-0.049095939844846725,-0.01998032070696354,-0.13037371226040922,-0.11609884779301444,-0.10105981081912144
3.435981273651123,-0.004784382879734039,-0.0015775561332702637,0.008300304412841797,0.018534699454903603,-0.04659949243068695,-0.01950814202427864,-0.13019529512164915,-0.1167516297359812,-0.10125758344252303
3.446319103240967,-0.002521127462387085,0.0035470128059387207,0.011861622333526611,0.029826201498508453,-0.046615470200777054,-0.02535916119813919,-0.12982839283945563,-0.11737082632638486,-0.10146301848092738
3.455873966217041,-0.00012989342212677002,-0.0009004920721054077,0.016483783721923828,0.026633605360984802,-0.04100951552391052,-0.027618587017059326,-0.12940479559241372,-0.11797961943468156,-0.10171081838299885
3.466081142425537,-0.00321844220161438,-0.00337296724319458,0.018454372882843018,0.016009556129574776,-0.02943248860538006,-0.029439495876431465,-0.12903605008753186,-0.11849440279896384,-0.10199166515057538
3.476320266723633,-0.005055941641330719,-0.005571842193603516,0.017300784587860107,0.005783549509942532,-0.015030113980174065,-0.03380708023905754,-0.12877609579419935,-0.11885573540317357,-0.10231462561158161
3.4862060546875,-0.005230769515037537,-0.007291227579116821,0.014801561832427979,0.006254780106246471,-0.0048017557710409164,-0.03325559198856354,-0.12866350357778586,-0.11907933052290526,-0.10266730135571138
3.495878219604492,-0.002965778112411499,-0.008308902382850647,0.011593163013458252,0.01914368011057377,-0.0010661398991942406,-0.0352628156542778,-0.12844340707284044,-0.1192221932259944,-0.10300898082433406
3.5061771869659424,-0.0005382448434829712,-0.009393468499183655,0.00751340389251709,0.03679612651467323,0.004490767139941454,-0.03126397356390953,-0.1280599574291439,-0.11929514262771054,-0.10331569571546194
3.5159010887145996,-0.0015408247709274292,-0.007583215832710266,0.00266951322555542,0.049321774393320084,0.0057435184717178345,-0.02440660074353218,-0.12761942347540445,-0.11930842800076955,-0.10355456830894218
3.527031183242798,-0.0012994110584259033,-0.010280027985572815,0.00048232078552246094,0.05188339948654175,0.007859133183956146,-0.016326943412423134,-0.1272000369796134,-0.11928371537662665,-0.1036974565482941
3.536161184310913,-0.0019939839839935303,-0.019289448857307434,0.003079533576965332,0.044434804469347,0.010278881527483463,-0.006493753753602505,-0.12676073180078182,-0.11920696803934971,-0.10374564103701568
3.5463671684265137,-0.0032309740781784058,-0.024700790643692017,0.005776345729827881,0.03629670292139053,0.011416184715926647,0.003237809520214796,-0.12637062004279306,-0.11913802578461155,-0.1037145148575633
3.5561721324920654,-0.0013551339507102966,-0.021442368626594543,0.004507899284362793,0.029192455112934113,0.007602271623909473,0.008407805114984512,-0.12605462756081295,-0.11910123147191927,-0.10362329514348292
3.566394090652466,0.0003176257014274597,-0.01705475151538849,0.00280916690826416,0.032022375613451004,0.002415366005152464,0.0129508376121521,-0.12572322694642374,-0.1191059198628841,-0.10348391797294437
3.5767340660095215,0.0029328539967536926,-0.013053640723228455,-0.001210927963256836,0.02977786585688591,-0.005988504737615585,0.017958644777536392,-0.12538152962886098,-0.1191377892962581,-0.10329512410885648
3.586380958557129,0.0038572028279304504,-0.005929797887802124,-0.004226803779602051,0.029192069545388222,-0.011074165813624859,0.019699126482009888,-0.12502983180085808,-0.11920340626090253,-0.10305926082120283
3.5960731506347656,0.002643674612045288,-0.0032808929681777954,-0.003119170665740967,0.02683836780488491,-0.01654163748025894,0.018660761415958405,-0.12471306127879216,-0.11932982177949397,-0.10283428793651248
3.6062371730804443,-0.0011424198746681213,-0.00011555850505828857,-0.002565741539001465,0.01948719471693039,-0.01951483264565468,0.01715565100312233,-0.12439868852217216,-0.11949353975686991,-0.10263066641119246
3.6160593032836914,-0.005005158483982086,0.002444922924041748,-0.0025569796562194824,0.016403786838054657,-0.02054840698838234,0.012209626846015453,-0.12401727770423311,-0.11968686567877532,-0.10245784807745022
3.6262590885162354,-0.008013337850570679,0.0014194101095199585,0.0005512833595275879,0.017689328640699387,-0.024997837841510773,0.003705354407429695,-0.12357455128398334,-0.11992578905156621,-0.10235856166078118
3.6360321044921875,-0.009798407554626465,0.0025263577699661255,0.0031111836433410645,0.02684714086353779,-0.030441073700785637,-0.00647857366129756,-0.12308952271575466,-0.12019751151877824,-0.10234330793908639
3.6462790966033936,-0.01152326911687851,0.008205518126487732,0.001622915267944336,0.028797687962651253,-0.031137267127633095,-0.015008412301540375,-0.12261000624285742,-0.12049946864156175,-0.10241101435283433
3.656196117401123,-0.012937918305397034,0.012625567615032196,-0.0022934675216674805,0.027507120743393898,-0.029884250834584236,-0.020558973774313927,-0.12216919320514011,-0.12077613623122192,-0.10254930058858142
3.666292190551758,-0.014270767569541931,0.008883707225322723,-0.0031741857528686523,0.03987738862633705,-0.0270390622317791,-0.025380412116646767,-0.12175761854116346,-0.12102785218396038,-0.10272806505706875
3.6768202781677246,-0.015146151185035706,0.006467156112194061,-0.0008360147476196289,0.05455407127737999,-0.02302354946732521,-0.032060422003269196,-0.12124066857851527,-0.1212622153269947,-0.10295695559763358
3.6862471103668213,-0.01217968761920929,0.009392134845256805,0.0003482699394226074,0.06587119400501251,-0.026311885565519333,-0.03792374208569527,-0.1206305723184621,-0.12153826243776142,-0.10323383946409695
3.6963651180267334,-0.006484337151050568,0.012085646390914917,0.002779543399810791,0.06993517279624939,-0.03256365656852722,-0.04038849472999573,-0.11997700462520973,-0.12188860293958247,-0.10354700331103288
3.706148147583008,-0.0008815750479698181,0.006239093840122223,0.0068152546882629395,0.06799586117267609,-0.04007669910788536,-0.041892118752002716,-0.11931860750132575,-0.12234623594273283,-0.10388090965582701
3.716217041015625,0.0023093298077583313,-0.00014556944370269775,0.009736359119415283,0.060949403792619705,-0.04404401034116745,-0.040977854281663895,-0.11871044512603397,-0.12288105854261809,-0.10422579165734783
3.7271742820739746,0.0036453455686569214,-0.0013284832239151,0.010091722011566162,0.040878452360630035,-0.04538198560476303,-0.03830888867378235,-0.11833432261890195,-0.12345705361328677,-0.10456497346992048
3.7362542152404785,0.003449864685535431,-0.005528293550014496,0.011807084083557129,0.025393502786755562,-0.04662275314331055,-0.03141289949417114,-0.11818433268576119,-0.12404616123934466,-0.10488400072306409
3.7462329864501953,0.002302020788192749,-0.013033799827098846,0.016890287399291992,0.020341837778687477,-0.04329952225089073,-0.026446636766195297,-0.11807494118890918,-0.12462950664603861,-0.10515880504182375
3.756192207336426,0.0014796927571296692,-0.011523611843585968,0.0197751522064209,0.012358211912214756,-0.04063796252012253,-0.020841747522354126,-0.11801391515294939,-0.12517229334669897,-0.10538368877376426
3.7663071155548096,0.0011998862028121948,-0.00950479507446289,0.02159559726715088,0.013742838986217976,-0.029378071427345276,-0.010286147706210613,-0.11802459580713597,-0.12561635931528112,-0.10552861525524833
3.7769322395324707,-0.000542372465133667,-0.009129233658313751,0.018564462661743164,0.010676476173102856,-0.013876344077289104,-0.0016202222323045135,-0.11809200294999049,-0.12587785885215944,-0.10557878359897116
3.7863450050354004,-0.001480013132095337,-0.008766092360019684,0.01935058832168579,0.014950750395655632,-0.0023705121129751205,0.0036088412161916494,-0.11807972615977214,-0.12594816471505269,-0.10555379482026173
3.7964131832122803,-0.0028810426592826843,-0.012984886765480042,0.024114787578582764,0.034708473831415176,0.010848887264728546,0.008196135982871056,-0.11787202371892931,-0.12587042813134006,-0.10546283408975758
3.8061981201171875,-0.005039922893047333,-0.009104408323764801,0.022712886333465576,0.03162023797631264,0.02025836706161499,0.00989411398768425,-0.117559946299688,-0.12565691698094938,-0.10532732616282398
3.816242218017578,-0.00515148788690567,-0.001989908516407013,0.024676501750946045,0.033720407634973526,0.015609020367264748,0.007735622115433216,-0.11718727250815834,-0.12542974008913177,-0.1051935356327134
