timestamp,accel_x,accel_y,accel_z,rotation_x,rotation_y,rotation_z, pitch,roll,yaw
0.04301285743713379,0.03332412987947464,-0.02571679651737213,0.0139007568359375,0.026582889258861542,-0.009248435497283936,-0.011694401502609253,-0.17445800885056198,0.07156683049825024,0.006261237030367759
0.0568537712097168,0.032961130142211914,-0.02583695948123932,0.01571834087371826,0.021498728543519974,-0.008404524996876717,-0.008136258460581303,-0.17422365134695483,0.07146739799762994,0.006138501087436957
0.0583498477935791,0.03227008879184723,-0.022681817412376404,0.014339864253997803,0.01834607869386673,-0.009236762300133705,-0.006828646175563335,-0.17402573492052562,0.0713761946602723,0.006055346962640395
0.06056404113769531,0.033726900815963745,-0.025492534041404724,0.013073563575744629,0.01036603469401598,-0.01216166652739048,-0.0054781571961939335,-0.1738894509646176,0.07127393495038153,0.005989440311948602
0.07135486602783203,0.03136119246482849,-0.0258776992559433,0.011997997760772705,0.0072780996561050415,-0.009655367583036423,-0.00491303438320756,-0.17380024997400198,0.07116470112308372,0.005926405481413684
0.07628989219665527,0.02947419136762619,-0.02374836802482605,0.010978937149047852,0.009500989690423012,-0.0012526055797934532,-0.004797879606485367,-0.17371429305741184,0.07111184817385229,0.005876579245733446
0.08635902404785156,0.027919389307498932,-0.021424055099487305,0.011319100856781006,0.013796668499708176,0.001077394001185894,-0.0040559228509664536,-0.1736008047300074,0.07110881502658123,0.005828179034572847
0.09648990631103516,0.027360424399375916,-0.022608265280723572,0.012216567993164062,0.020566590130329132,0.0057127149775624275,-0.002769988961517811,-0.17342433640218047,0.07114748742864987,0.005789541518516899
0.10639190673828125,0.02747514843940735,-0.02186696231365204,0.011453509330749512,0.02079242840409279,0.00924699567258358,-0.0034408390056341887,-0.1732139269993821,0.07122999029557402,0.0057409836805666845
0.1178429126739502,0.029472678899765015,-0.02304917573928833,0.012640535831451416,0.018555937334895134,0.013995411805808544,-0.001908935490064323,-0.17300447026788288,0.07135301062789454,0.005701012041336459
0.1264348030090332,0.030479177832603455,-0.02414289116859436,0.010294735431671143,0.016625411808490753,0.017218369990587234,-0.0034485089126974344,-0.1728290758277782,0.07150669078716321,0.005667855895719959
0.1364140510559082,0.030284516513347626,-0.025108784437179565,0.008354604244232178,0.014677891507744789,0.018785683438181877,-0.003306669183075428,-0.17267886018985215,0.07168740585113144,0.005627018176661002
0.14645695686340332,0.030595026910305023,-0.02492891252040863,0.007759153842926025,0.01853601261973381,0.01856943592429161,-0.001432336401194334,-0.17251175887276293,0.07188175116089957,0.005585809200703805
0.15650606155395508,0.032200999557971954,-0.021225303411483765,0.008161544799804688,0.018120527267456055,0.014934043399989605,0.0016049989499151707,-0.17231475374788632,0.07206175936855506,0.005572543489427217
0.16785001754760742,0.032436639070510864,-0.02148979902267456,0.0058585405349731445,0.012078613042831421,0.010291621088981628,0.000591399846598506,-0.17216504498476454,0.07219275672027846,0.00557048155854889
0.17679190635681152,0.03398650884628296,-0.02440999448299408,0.004752039909362793,0.0003775495570152998,0.00251900777220726,-0.0022296865936368704,-0.17209345965565948,0.07226060909757244,0.0055517174079261645
0.18677282333374023,0.03317680209875107,-0.02540382742881775,0.004043459892272949,-0.007136559579521418,0.00037676095962524414,-0.0017194249667227268,-0.17159990688862042,0.07289202024913367,0.005639121802609822
0.19675397872924805,0.0301673486828804,-0.02352428436279297,0.0020485520362854004,-0.009219401516020298,-0.002502515446394682,-0.00042523531010374427,-0.1711016365623781,0.07358796158445033,0.005758709775783031
0.20682382583618164,0.028742671012878418,-0.02207837998867035,0.0012799501419067383,-0.009574400261044502,-0.00840274803340435,-0.004532628692686558,-0.17057890607198992,0.07425463203774312,0.005866206538579727
0.21789288520812988,0.027300074696540833,-0.023152202367782593,0.001970648765563965,-0.008663183078169823,-0.008737464435398579,-0.004088359884917736,-0.17002731111747055,0.07484594856234668,0.0059502748041548766
0.22661685943603516,0.026438869535923004,-0.023038864135742188,0.001621246337890625,-0.005474846810102463,-0.009121491573750973,-0.0006544803036376834,-0.16949430187660877,0.07542031831166293,0.006041550833134719
0.23659372329711914,0.023197032511234283,-0.023084506392478943,0.00328671932220459,0.0016823152545839548,-0.004768066573888063,0.0018377590458840132,-0.1690297925095114,0.0760268625320465,0.006161163223877632
0.2465379238128662,0.020784690976142883,-0.024947479367256165,0.006790876388549805,0.008408661000430584,-0.001742449589073658,0.0030100825242698193,-0.16850493269923,0.0766579754150585,0.006288457077183575
0.2566847801208496,0.02184642106294632,-0.0255870521068573,0.005520224571228027,0.009621798060834408,-0.0033399024978280067,0.00554013904184103,-0.16786906326228831,0.07730811757692864,0.0064420903523182685
0.2679758071899414,0.022815853357315063,-0.024657487869262695,0.006791114807128906,0.009114465676248074,-0.008991396054625511,0.009343133307993412,-0.16720484811375935,0.07789648126046894,0.0066109505244979026
0.27665281295776367,0.024518944323062897,-0.024741992354393005,0.008318841457366943,0.007659663446247578,-0.011179139837622643,0.012641670182347298,-0.1666096973487429,0.07836026161608568,0.006809968890691526
0.2868638038635254,0.023254990577697754,-0.024982213973999023,0.009395778179168701,0.005568815395236015,-0.011672623455524445,0.015518683940172195,-0.1660796717312622,0.078785247195565,0.007026593854099509
0.2967519760131836,0.021135859191417694,-0.025814756751060486,0.007920563220977783,-0.0002894557546824217,-0.009848668240010738,0.015598844736814499,-0.16557778729628742,0.07919574115800004,0.007262082074821728
0.3067770004272461,0.01820375770330429,-0.024003729224205017,0.006835460662841797,-0.004439459647983313,-0.008993260562419891,0.015748782083392143,-0.16511853928067396,0.07959559860782565,0.00750048342376396
0.31954479217529297,0.01878390461206436,-0.023008152842521667,0.00520092248916626,4.00603748857975e-05,-0.006271377205848694,0.017791692167520523,-0.16468161866804173,0.07994637614503036,0.007749593306421507
0.32694005966186523,0.018986329436302185,-0.02229088544845581,0.004635035991668701,0.007829539477825165,-0.0049991849809885025,0.02000983990728855,-0.16415563226023455,0.08027662041473567,0.008000357815008368
0.3368568420410156,0.0165877565741539,-0.02000431716442108,0.005570828914642334,0.007439088076353073,-0.0036737294867634773,0.018812960013747215,-0.16357019550908689,0.08064419435294592,0.008254881857411217
0.34683990478515625,0.01721993088722229,-0.019065633416175842,0.005246102809906006,0.004600957036018372,-0.005925698205828667,0.01961989887058735,-0.16303638833916162,0.08101826941279869,0.008510194525426956
0.35691189765930176,0.01770273596048355,-0.019774779677391052,0.006148338317871094,-0.0003654723986983299,-0.010616235435009003,0.02162904106080532,-0.16254891437496657,0.081405183073947,0.008786523259192916
0.36879682540893555,0.016240127384662628,-0.023184269666671753,0.010615229606628418,-0.007293153088539839,-0.011471908539533615,0.02203996665775776,-0.1621228558642417,0.08173851007904714,0.009077780153268405
0.3769550323486328,0.015622764825820923,-0.02281908690929413,0.011953949928283691,-0.008379490114748478,-0.011697657406330109,0.02367807738482952,-0.161721896698514,0.08201949357822258,0.009368892906676234
0.3870258331298828,0.014366678893566132,-0.021043211221694946,0.005383491516113281,-0.008319568820297718,-0.003961972426623106,0.026830460876226425,-0.16136039293678953,0.0822833038378086,0.009679629199460976
0.39707374572753906,0.012269191443920135,-0.01837928593158722,0.0017745494842529297,0.0012691423762589693,-0.0031157974153757095,0.026763934642076492,-0.16096488226092906,0.08259536842561088,0.010002416324424397
0.4071779251098633,0.014929436147212982,-0.01712457835674286,0.0016568303108215332,0.010036002844572067,-0.005008239299058914,0.023109277710318565,-0.1604976221392683,0.08289401192158928,0.01029868757898451
0.4191098213195801,0.01491834968328476,-0.014427706599235535,0.0003714561462402344,0.01372905820608139,-0.010838210582733154,0.024445760995149612,-0.16002243971576258,0.08311603445290117,0.010573075794325629
0.4269857406616211,0.016330353915691376,-0.015240877866744995,0.002518177032470703,0.00945095531642437,-0.014276618137955666,0.02142813242971897,-0.15957874663933086,0.08328784933382069,0.010841252100606102
0.43700289726257324,0.014603301882743835,-0.02005794644355774,0.0020613670349121094,0.004683914128690958,-0.013079125434160233,0.02102455496788025,-0.15918760459919543,0.08347155241753877,0.011091244168756897
0.4471449851989746,0.013658836483955383,-0.0183333158493042,-0.0010257363319396973,0.0013938448391854763,-0.017412088811397552,0.018831443041563034,-0.1587544910835523,0.0836192091261135,0.011345159938006558
0.4572429656982422,0.016739360988140106,-0.015252724289894104,-0.0026234984397888184,0.01127578690648079,-0.028882723301649094,0.01907794550061226,-0.15830808475309066,0.0836770303077649,0.01157472092366687
0.4689817428588867,0.018506348133087158,-0.01582185924053192,-0.003862142562866211,0.008478669449687004,-0.030347198247909546,0.017546094954013824,-0.15786462237934504,0.08362767170444386,0.011771497415490481
0.4771428108215332,0.016447819769382477,-0.014468342065811157,-0.0013833045959472656,0.0037761088460683823,-0.03360650688409805,0.02323189191520214,-0.1574829279316114,0.08352813153682025,0.01200267117492459
0.4873628616333008,0.013157479465007782,-0.018258050084114075,0.005683004856109619,-0.0074110315181314945,-0.0367831252515316,0.01817854307591915,-0.15722587423035095,0.08344154938433312,0.012248392065473833
0.4973268508911133,0.00926288217306137,-0.021796315908432007,0.010690569877624512,-0.0058589414693415165,-0.03796583414077759,0.019999347627162933,-0.15706957821855458,0.08333461781047656,0.01247842084608256
0.5075640678405762,0.008284598588943481,-0.015747666358947754,0.009482860565185547,0.0019241468980908394,-0.036379653960466385,0.020145021378993988,-0.1568316149867281,0.08325571725402914,0.01273815498945172
0.5187408924102783,0.007525518536567688,-0.01216307282447815,0.007980585098266602,0.009804523549973965,-0.03435765206813812,0.017168138176202774,-0.15643120947140057,0.08316901269810516,0.012955439843168472
0.5272560119628906,0.007578037679195404,-0.01149025559425354,0.009341776371002197,0.02315494976937771,-0.03228650987148285,0.01810317486524582,-0.1559663534995825,0.08307856854867066,0.013156567348721442
0.5372469425201416,0.005885392427444458,-0.007714375853538513,0.010430514812469482,0.030058398842811584,-0.02473103255033493,0.017215169966220856,-0.15543416345220945,0.08308600646980804,0.013355125368276512
0.547271728515625,0.005126848816871643,-0.004201635718345642,0.009532153606414795,0.030399814248085022,-0.018377795815467834,0.01584737002849579,-0.15487490146052185,0.08318274280815986,0.013536088178408732
0.5577597618103027,0.006567724049091339,-0.006902635097503662,0.011270463466644287,0.03085208684206009,-0.016616027802228928,0.01571117714047432,-0.15433460532328952,0.08327753978002714,0.013703131300338458
0.5705080032348633,0.009211204946041107,-0.007810637354850769,0.012897074222564697,0.03285078704357147,-0.016952916979789734,0.014820083975791931,-0.1537402051690203,0.0833435456261235,0.013860220848671511
0.5779228210449219,0.010799825191497803,-0.0025571584701538086,0.014612436294555664,0.03062666580080986,-0.01798892952501774,0.015399852767586708,-0.15310262785558687,0.08333357024637042,0.014001182157596097
0.5873539447784424,0.013314373791217804,-0.0006516426801681519,0.014532625675201416,0.020791610702872276,-0.01920226588845253,0.011507643386721611,-0.15264132200306343,0.08329985062438251,0.014141134935395294
0.597343921661377,0.014911480247974396,-0.002297535538673401,0.0144156813621521,0.01218943390995264,-0.020827239379286766,0.010423257946968079,-0.15234593222098683,0.08322375109927395,0.014262948025069468
0.6072549819946289,0.014371693134307861,-0.0037248730659484863,0.01608949899673462,0.008366466499865055,-0.02230263128876686,0.010396892204880714,-0.1521227518452171,0.08313376648176764,0.014383438797118722
0.6183638572692871,0.014108829200267792,0.00025571882724761963,0.015089571475982666,-0.0013288377085700631,-0.02171957492828369,0.011213896796107292,-0.15203209024753636,0.08302769566273775,0.014507493459258879
0.6273307800292969,0.015155836939811707,-0.0013340264558792114,0.014899373054504395,-0.0035634960513561964,-0.022887904196977615,0.007519027218222618,-0.15205039749830462,0.08289445451580214,0.014621545611541054
0.6372947692871094,0.012992188334465027,-0.003778502345085144,0.014268219470977783,-0.0036288434639573097,-0.01862720213830471,0.009335782378911972,-0.15203805955770602,0.08279821683547486,0.014729540285557166
0.6471998691558838,0.011594563722610474,0.0002921074628829956,0.011739969253540039,-0.005688265897333622,-0.013036960735917091,0.005781793966889381,-0.1520107078676982,0.08279158069994401,0.014833377013492155
0.6574039459228516,0.011841915547847748,-0.0028368085622787476,0.012857317924499512,-0.006103303283452988,-0.011274258606135845,0.004926653113216162,-0.1520733356353682,0.08282009924512011,0.014914387489770883
0.6688389778137207,0.009440429508686066,-0.0049107372760772705,0.015491604804992676,-0.005379456095397472,-0.007742107845842838,0.004208398517221212,-0.152164690811484,0.08290466306598755,0.014993265913610226
0.677311897277832,0.007797539234161377,-0.005829110741615295,0.01752018928527832,-0.0021815819200128317,-0.002706469502300024,-0.0006555455620400608,-0.1521984263479012,0.08303936165120195,0.01504814316634124
0.6873779296875,0.0069129690527915955,-0.008155927062034607,0.018161416053771973,-0.0023275231942534447,-0.001346126664429903,-0.0015202739741653204,-0.1522214177502546,0.0831786281423617,0.015058847811633578
0.6973237991333008,0.007667183876037598,-0.006180688738822937,0.01651054620742798,0.00027230451814830303,0.00224314839579165,-0.0032524471171200275,-0.15226080432061678,0.08332741281659631,0.015050800043324005
0.7074768543243408,0.008652113378047943,-0.007481426000595093,0.011406898498535156,-0.0047232527285814285,0.009301324374973774,-0.0023656145203858614,-0.1522954788019846,0.08353624003308678,0.015050921860614441
0.718195915222168,0.00905059278011322,-0.011611148715019226,0.008528292179107666,-0.008164356462657452,0.010823320597410202,-0.0012234378373250365,-0.15233629726783765,0.08376736147356569,0.015056287935281146
0.7274188995361328,0.0075489431619644165,-0.013985052704811096,0.01037585735321045,-0.0021464114543050528,0.011796173639595509,2.2388878278434277e-05,-0.15240694495506033,0.08399154538959566,0.01507852073663164
0.7374520301818848,0.007222197949886322,-0.011499568819999695,0.010734617710113525,0.0006060320883989334,0.015130894258618355,0.006847058422863483,-0.1524086841460399,0.084261354626877,0.015126446782152138
0.7474417686462402,0.008106350898742676,-0.01410338282585144,0.008998632431030273,0.003910216502845287,0.017641989514231682,0.004800152964890003,-0.1523414235174511,0.08452472947685248,0.015199142213480859
0.7578189373016357,0.009362995624542236,-0.015283197164535522,0.008091449737548828,0.0033301629591733217,0.013622613623738289,0.006227980367839336,-0.15225374424972604,0.08476597056631349,0.015265152544365326
0.7682628631591797,0.010908596217632294,-0.011978581547737122,0.00979703664779663,0.0011184073518961668,0.011142412200570107,0.006519063841551542,-0.15216773585579665,0.08496171668625238,0.015335133745475408
0.7775309085845947,0.01113024353981018,-0.012409210205078125,0.007266998291015625,-0.0023909895680844784,0.016654223203659058,0.008435527794063091,-0.15212485848012972,0.0851854143282118,0.015421019633930957
0.7875118255615234,0.008696965873241425,-0.011262461543083191,0.0021236538887023926,-0.006648585200309753,0.014304250478744507,0.008244579657912254,-0.15209160141457717,0.0854401051258776,0.015520810518013144
0.7973558902740479,0.007317803800106049,-0.009356752038002014,-0.0007035136222839355,-0.0018369854660704732,0.016107387840747833,0.010188207030296326,-0.1519697718708056,0.08570786444272095,0.015637849449274814
0.8074297904968262,0.008988343179225922,-0.007422506809234619,-0.0029067397117614746,0.0016038184985518456,0.01639713905751705,0.009210561402142048,-0.1517573186512574,0.08597649699913334,0.015735464078529507
0.8202958106994629,0.010542944073677063,-0.004045411944389343,-0.003473997116088867,0.005992824211716652,0.008013463579118252,0.007424325682222843,-0.15155170573074392,0.08619251895777104,0.01582274383999724
0.827692985534668,0.011809401214122772,-0.004857912659645081,-0.0010550618171691895,0.005145672708749771,0.006412637419998646,0.007437641732394695,-0.15129313883848236,0.08637504702569619,0.015907257323473766
0.8374857902526855,0.00973588228225708,-0.007515951991081238,-0.00017708539962768555,0.0016997756902128458,0.00651019811630249,0.005208042450249195,-0.1510337738461782,0.08655583242251388,0.015988599769797277
0.8474419116973877,0.008495748043060303,-0.008834898471832275,0.00018090009689331055,-0.0010275677777826786,0.005540541373193264,0.0051691606640815735,-0.1508707604370864,0.08675930718484662,0.01605975989906785
0.8575730323791504,0.006733603775501251,-0.009098067879676819,0.0008597373962402344,-0.0015835358062759042,0.0022969883866608143,0.003571636974811554,-0.15072022879738656,0.08693523163854476,0.016115729804160654
0.8683247566223145,0.0076225996017456055,-0.009579315781593323,0.003996133804321289,-0.008194300346076488,-0.0016245162114501,0.004876319319009781,-0.1506050961515883,0.08703810864276769,0.016169400452536904
0.8775167465209961,0.008411385118961334,-0.009370699524879456,0.007340610027313232,-0.00811605341732502,-0.004147195722907782,0.00996327679604292,-0.1505484275130161,0.08710407326314476,0.01625951197408076
0.887542724609375,0.00871063768863678,-0.009200617671012878,0.010176539421081543,-0.008222579956054688,-0.004272363614290953,0.014371341094374657,-0.15051530176513636,0.08718710766339444,0.016409022692072995
0.8975467681884766,0.008077740669250488,-0.00994652509689331,0.010500192642211914,-0.010122645646333694,-0.0024066418409347534,0.01983438991010189,-0.15052893440489745,0.08730312803951111,0.016608097874259157
0.9076519012451172,0.008307427167892456,-0.011423930525779724,0.01479262113571167,-0.004126538522541523,-0.0013778628781437874,0.02296466939151287,-0.15051078601209217,0.08745700044837658,0.016860946389005788
0.9192118644714355,0.007708877325057983,-0.011127948760986328,0.021526575088500977,-0.0018353044288232923,0.0007998482324182987,0.027120530605316162,-0.1503966098883823,0.08759842309835231,0.01713236240562482
0.927793025970459,0.007442794740200043,-0.00978773832321167,0.023757219314575195,-0.004714980721473694,0.007153884507715702,0.033753398805856705,-0.15027572623248292,0.08777400191751092,0.017458830195357287
0.9380598068237305,0.006612792611122131,-0.009483233094215393,0.02101898193359375,-0.009424797259271145,0.014786371029913425,0.033423539251089096,-0.1501838126693811,0.08801128775026702,0.017816853288160326
0.9477999210357666,0.006731137633323669,-0.013039976358413696,0.018000364303588867,-0.0028973896987736225,0.0222911573946476,0.03911338374018669,-0.15007724414024987,0.08833898690636649,0.01820440756102546
0.9580187797546387,0.00789826363325119,-0.009707152843475342,0.013530611991882324,0.0002769818529486656,0.026234544813632965,0.043358780443668365,-0.14993188648492484,0.088747776788232,0.018636659497924715
0.9690828323364258,0.010611608624458313,-0.002113521099090576,0.008441746234893799,0.00875755213201046,0.023762864992022514,0.044628046452999115,-0.14973657983437816,0.08916621878013503,0.01907957313323491
0.9777648448944092,0.014853723347187042,0.00042811036109924316,0.0095292329788208,0.00919610820710659,0.023216918110847473,0.047436777502298355,-0.14948091517610296,0.0895499178749785,0.019553555887359474
0.9877078533172607,0.016317032277584076,-0.0029984712600708008,0.012307465076446533,0.006687676999717951,0.02542600966989994,0.046408794820308685,-0.14924274260187695,0.08993556977941018,0.020033264620395872
0.99776291847229,0.015621982514858246,-0.0037641674280166626,0.01210939884185791,-0.0045273276045918465,0.02552170678973198,0.04447033628821373,-0.14910664922183106,0.09032958524847763,0.0204947464968429
1.0086150169372559,0.016441941261291504,-0.0026501119136810303,0.010150909423828125,-0.020076192915439606,0.02282392419874668,0.040035903453826904,-0.14912191284707738,0.09070570526692663,0.02093594972380364
1.0184807777404785,0.01792806386947632,-0.0013362020254135132,0.006657958030700684,-0.019611772149801254,0.01768038421869278,0.03571918606758118,-0.1492282343896251,0.09102642392828945,0.021347421834486163
1.0279839038848877,0.016137726604938507,-0.0005871355533599854,0.005877077579498291,-0.022424068301916122,0.01586836948990822,0.029835732653737068,-0.14928856921056488,0.09129580181069762,0.0217038887060843
1.0378518104553223,0.013501875102519989,0.002976641058921814,0.006054699420928955,-0.019100094214081764,0.01603015512228012,0.02303774654865265,-0.14937258935237152,0.0915563983198019,0.021996812313958287
1.047842025756836,0.009555526077747345,0.0017745047807693481,0.002072930335998535,-0.01330372504889965,0.01428072527050972,0.01738545298576355,-0.14950811241119416,0.09183143778636557,0.0222259697633037
1.0579259395599365,0.008174523711204529,-0.0011658966541290283,-0.0003739595413208008,-0.015377145260572433,0.0147150419652462,0.01306948158890009,-0.1496578344276559,0.09215128588240871,0.022416151541965593
1.0680358409881592,0.004754111170768738,-0.003829941153526306,0.0008330345153808594,-0.010506490245461464,0.01579388976097107,0.012553360313177109,-0.14974410227185614,0.0924959108918453,0.02257758978800584
1.0777807235717773,0.002686113119125366,-0.006296172738075256,0.001268923282623291,-0.005195348057895899,0.017980966717004776,0.015799272805452347,-0.14976921113802952,0.09286090982396138,0.02275589898409164
1.0879597663879395,0.00146542489528656,-0.005510315299034119,8.344650268554688e-07,0.0010553570464253426,0.01727309823036194,0.016652818769216537,-0.14974602437554344,0.09324802773896626,0.022941354758737903
1.0979537963867188,0.003693908452987671,-0.006268993020057678,0.0014574527740478516,0.00716801080852747,0.01419217512011528,0.020830677822232246,-0.14966456500355294,0.09363364216108984,0.02315921488280741
1.1085379123687744,0.003923453390598297,-0.008171632885932922,0.0033150315284729004,0.00671846978366375,0.01305314153432846,0.020924154669046402,-0.14958265240825436,0.09397279322862549,0.023380925451242106
1.1187248229980469,0.003970608115196228,-0.008841142058372498,0.001736283302307129,0.007197072729468346,0.01095661148428917,0.024319684132933617,-0.1495498867924916,0.0942654184718287,0.023616579038070937
1.1278748512268066,0.004007130861282349,-0.007083117961883545,0.0007895231246948242,0.0016326636541634798,0.008699849247932434,0.02968728542327881,-0.14951571907480637,0.09449133371532009,0.02390736346276595
1.1379170417785645,0.004583604633808136,-0.008933380246162415,0.0011305809020996094,-0.0015549566596746445,0.004057915415614843,0.03005858324468136,-0.14947341515828638,0.0946646448911505,0.02422067808897086
1.1477227210998535,0.004586338996887207,-0.008991613984107971,0.00027817487716674805,0.0004970089066773653,-0.0002641286700963974,0.03535667806863785,-0.14939343687971202,0.09476922497291143,0.024555807199502764
1.1578340530395508,0.00464281439781189,-0.0018920600414276123,-0.002851724624633789,-0.003305452410131693,-0.005733995232731104,0.03478596359491348,-0.1492811564889748,0.09480325318771558,0.024907611812771145
1.1685590744018555,0.0069021061062812805,-0.003852546215057373,0.00019818544387817383,-0.004958742763847113,-0.01291467621922493,0.034371040761470795,-0.14921144741990272,0.09477024694443223,0.025265900598056137
1.1779260635375977,0.008274771273136139,-0.004266589879989624,0.0026968717575073242,-0.011726368218660355,-0.01827562041580677,0.0320194736123085,-0.14918266479260958,0.09469297211540414,0.025610451507662522
1.1878018379211426,0.007213585078716278,-0.004470854997634888,0.0059258341789245605,-0.01343771442770958,-0.017805838957428932,0.03471991419792175,-0.1491731932433744,0.09460829724927763,0.02596779541510166
1.1982707977294922,0.006271243095397949,-0.00396476686000824,0.0071849822998046875,-0.017025575041770935,-0.01745523326098919,0.034875497221946716,-0.14917063340351983,0.09452700803000014,0.0263390804772469
1.2081727981567383,0.007837049663066864,-0.0033531785011291504,0.005966544151306152,-0.014295569621026516,-0.017207026481628418,0.03291860595345497,-0.1492002415255345,0.09445587421154356,0.02670365139848572
1.218599796295166,0.008402839303016663,-0.0035699456930160522,0.006556391716003418,-0.01007227785885334,-0.014151004143059254,0.03378748893737793,-0.14917256448395197,0.09439224449984525,0.02704782595757546
1.2279908657073975,0.011335447430610657,-0.0002836287021636963,0.006218671798706055,-0.010987873189151287,-0.014559800736606121,0.03681710362434387,-0.14910510195710122,0.09435732146794477,0.02742824562042903
1.238144874572754,0.01342211663722992,0.0012701451778411865,0.009524762630462646,-0.018784476444125175,-0.02066323161125183,0.03905665874481201,-0.14918490128751485,0.09428480498060092,0.02782102502050256
1.247941017150879,0.012175492942333221,-0.005726262927055359,0.017550408840179443,-0.03114154376089573,-0.019011005759239197,0.03826383501291275,-0.14933174761090762,0.09422022671360003,0.028237061534685852
1.2581119537353516,0.007341735064983368,-0.008090272545814514,0.022092461585998535,-0.056380804628133774,-0.006686386186629534,0.04395996406674385,-0.14965467413154274,0.09425249848782076,0.028705828585204304
1.2688608169555664,0.0005823001265525818,-0.009288564324378967,0.01779007911682129,-0.08051836490631104,0.025575412437319756,0.045791421085596085,-0.15021840118917548,0.0944928508497931,0.029229610252663588
1.2779550552368164,-0.004265777766704559,-0.011811494827270508,0.015661895275115967,-0.096893310546875,0.05828621983528137,0.03932105749845505,-0.15102626619871143,0.09507384536652921,0.029765933313942363
1.2880849838256836,-0.010334178805351257,-0.011956706643104553,0.016616106033325195,-0.07290435582399368,0.1012270376086235,0.053153518587350845,-0.15180600259401314,0.09601094313587699,0.03030368849207333
1.298158884048462,-0.014644145965576172,0.0016803890466690063,0.017343759536743164,-0.040793754160404205,0.1672084480524063,0.06132633239030838,-0.1522116737565629,0.09749746176353846,0.03095621678512846
1.3097929954528809,-0.019719146192073822,0.0040121376514434814,0.023079216480255127,0.0016666189767420292,0.22417160868644714,0.0755569338798523,-0.1523534907045224,0.09964960741487254,0.031659916513366415
1.3193528652191162,-0.015311062335968018,-0.003803044557571411,0.03814589977264404,0.013248623348772526,0.23653164505958557,0.0518016442656517,-0.15214008083033662,0.10220822392929849,0.03236150033959658
1.3281168937683105,0.004001587629318237,0.008454486727714539,0.06473791599273682,0.044800691306591034,0.18233364820480347,0.040746595710515976,-0.15181112583947598,0.10438078185639761,0.032768953200132955
1.338109016418457,0.015195287764072418,0.02372676134109497,0.05861252546310425,0.08230432868003845,0.1560412347316742,0.07100287079811096,-0.15104115312713082,0.10614416220110884,0.03323352152550941
1.3481130599975586,0.01920410245656967,0.014476895332336426,0.021753132343292236,0.08126196265220642,0.11464399099349976,0.07549243420362473,-0.1501027766757095,0.10756121872138404,0.03391361480247055
1.3581979274749756,0.025256581604480743,-0.01095341145992279,0.01125192642211914,0.06233860179781914,0.0732659250497818,0.07077863812446594,-0.1492324485700383,0.10851468634331647,0.03452816453123628
1.3694288730621338,0.02657943218946457,-0.020535454154014587,-0.011770129203796387,-0.01264908630400896,0.039364948868751526,0.08245047181844711,-0.14881537902811365,0.10905585017965595,0.03526340632406855
1.3782458305358887,0.02477142959833145,-0.017830148339271545,-0.027601420879364014,-0.0874282568693161,0.04282413050532341,0.07774306833744049,-0.14932003466191407,0.10942877470229759,0.03610328674543286
1.3889150619506836,0.00683256983757019,-0.034931302070617676,-0.030456244945526123,-0.13348442316055298,0.05131135880947113,0.08170531690120697,-0.15044254728924536,0.10987656909397027,0.037009071115348145
1.3982999324798584,-0.003691472113132477,-0.031293436884880066,-0.022389352321624756,-0.1947287768125534,0.0708584263920784,0.0745152160525322,-0.15197969556552157,0.11047245399004407,0.03795016499928202
1.408362865447998,-0.010753966867923737,-0.03047691285610199,-0.01139146089553833,-0.227839857339859,0.11630526930093765,0.10579883307218552,-0.15417960822267548,0.11164198412449315,0.03909484405589118
1.4191498756408691,-0.0019213482737541199,-0.01827886700630188,-0.017885804176330566,-0.2264978438615799,0.04132135212421417,0.10129345953464508,-0.1565672290885962,0.11282101585261897,0.04046393729413659
1.4286160469055176,0.03435590863227844,-0.00951819121837616,-0.01157677173614502,-0.2271266132593155,-0.013180771842598915,0.11129575967788696,-0.15877447780576165,0.1132267981290452,0.04176230953850868
1.4383819103240967,0.04024273902177811,-0.004431530833244324,0.0021216869354248047,-0.22055649757385254,-0.015374859794974327,0.11626207828521729,-0.16070086664919733,0.11340523360917239,0.04321440808807778
1.448296070098877,0.009977176785469055,-0.0051346272230148315,0.013317883014678955,-0.18640251457691193,-0.03210563585162163,0.12013697624206543,-0.16234082148455856,0.11355212956634504,0.04465312779064616
1.4585227966308594,0.001057751476764679,0.004745423793792725,0.021136045455932617,-0.16602526605129242,-0.06666508316993713,0.13063061237335205,-0.1636320680991364,0.11341358724416445,0.04615242495672399
1.4687378406524658,0.022742271423339844,0.020057648420333862,0.011611461639404297,-0.18911246955394745,-0.09640566259622574,0.11238078027963638,-0.1648152650240477,0.11281139787332829,0.047593131750306876
1.4783458709716797,0.02516402304172516,-0.003664866089820862,-0.007393002510070801,-0.245173379778862,-0.11663063615560532,0.10786305367946625,-0.16641921683320687,0.1118808750638312,0.048906578225411126
1.4884648323059082,0.015738986432552338,-0.02311672270298004,-0.02426445484161377,-0.2788514792919159,-0.10337981581687927,0.11389803886413574,-0.16835044788110562,0.1108690720081702,0.05032101447208998
1.4983210563659668,0.0023437440395355225,-0.026820287108421326,-0.032108426094055176,-0.2648826241493225,-0.07588804513216019,0.09283344447612762,-0.17043592071512334,0.11019017188027114,0.051665690777107066
1.5084428787231445,-0.002140328288078308,-0.015548139810562134,-0.030692577362060547,-0.2505873143672943,-0.06966503709554672,0.09712778776884079,-0.1724997097864084,0.1100874249672247,0.05296444703432699
1.5190887451171875,0.0074309781193733215,0.009937494993209839,-0.028829514980316162,-0.23167863488197327,-0.07210671156644821,0.11503344774246216,-0.1745720451512542,0.11002992341926467,0.05436307487188778
1.528398036956787,0.01819773018360138,0.02117118239402771,-0.023723602294921875,-0.2153497338294983,-0.10455945879220963,0.12248257547616959,-0.17649038981695145,0.10954341648777734,0.05586401210856104
1.5383858680725098,0.02461884915828705,0.011832520365715027,-0.00324094295501709,-0.18516427278518677,-0.14998748898506165,0.11183115839958191,-0.17827342768886828,0.10856765905295493,0.05729149883399798
1.5483360290527344,0.02378225326538086,-0.004948139190673828,0.010420739650726318,-0.21998882293701172,-0.19535763561725616,0.0812322348356247,-0.18026979127396722,0.10734071762596602,0.05853587856368169
1.558581829071045,0.022795729339122772,-0.011094436049461365,0.012254714965820312,-0.270426869392395,-0.21948690712451935,0.06628119945526123,-0.18264030183730565,0.10543153511853622,0.0595228310712105
1.568800926208496,0.02350281924009323,-0.010749399662017822,-0.012501180171966553,-0.32385948300361633,-0.23353800177574158,0.047471288591623306,-0.1855332376593003,0.10332903678069003,0.06041585983025732
1.5784177780151367,0.034510284662246704,0.0003405362367630005,-0.045403897762298584,-0.36410608887672424,-0.28592610359191895,0.04089605063199997,-0.18893761552262905,0.10089125008428333,0.06121310870502763
1.5884289741516113,0.05017656832933426,0.01845964789390564,-0.06352567672729492,-0.3522946834564209,-0.34471723437309265,0.01768021285533905,-0.19248935921692223,0.09787193213137017,0.06188829954205496
1.5984368324279785,0.05378443002700806,0.019131243228912354,-0.07833433151245117,-0.31415626406669617,-0.40437525510787964,0.005170971620827913,-0.19583260165952338,0.09421003609163427,0.06231249991466946
1.6085898876190186,0.051568739116191864,0.015070587396621704,-0.09563356637954712,-0.26298680901527405,-0.4735969305038452,0.00886903703212738,-0.1986664712531884,0.08989008227775835,0.06266816691580798
1.6191678047180176,0.05734033137559891,0.013882756233215332,-0.1102668046951294,-0.24292370676994324,-0.5639809966087341,0.024895142763853073,-0.20118621112599233,0.08477352085119372,0.06305738573216672
1.6285500526428223,0.06073927879333496,-0.008942216634750366,-0.11646479368209839,-0.2487024962902069,-0.6537902355194092,0.03383457288146019,-0.20359840370434307,0.07876952752183056,0.06356535856826939
1.6385259628295898,0.053364306688308716,-0.05481560528278351,-0.12297171354293823,-0.2475820928812027,-0.7572783827781677,0.05608363449573517,-0.20606635576249857,0.07185842859978946,0.06420836527918668
1.6485369205474854,0.05134471878409386,-0.08140863478183746,-0.1148536205291748,-0.23444870114326477,-0.8964799642562866,0.07932717353105545,-0.20844891007297106,0.06378685124067265,0.06505837987744022
1.6587309837341309,0.053971510380506516,-0.10244891047477722,-0.10594940185546875,-0.19143548607826233,-1.063338279724121,0.1192353367805481,-0.21055325077954146,0.05421587981479936,0.0662058954318694
1.668832778930664,0.05306467041373253,-0.1337806135416031,-0.08700919151306152,-0.11901243031024933,-1.223014235496521,0.1729763150215149,-0.21204133609403342,0.04308229593559721,0.06775776245890422
1.6786599159240723,0.03835338354110718,-0.1709183156490326,-0.09353107213973999,-0.03831262141466141,-1.365798830986023,0.2659144699573517,-0.21275715300203804,0.03059362510079626,0.07002034866063414
1.6885738372802734,0.018195519223809242,-0.2283644825220108,-0.12199509143829346,0.07048842310905457,-1.5285638570785522,0.3563990890979767,-0.2125665767058893,0.01679005489267779,0.07319682945677508
1.6985549926757812,0.00083542475476861,-0.30160778760910034,-0.11156445741653442,0.21906068921089172,-1.6981912851333618,0.4799230098724365,-0.21106939850090684,0.0015487668540882322,0.07743433992829818
1.7086257934570312,-0.019461454823613167,-0.3338727056980133,-0.10368239879608154,0.3576667904853821,-1.8177627325057983,0.6333639621734619,-0.20823812316239798,-0.014919038316485613,0.08316091658809624
1.7190427780151367,-0.06262444704771042,-0.36777830123901367,-0.10783207416534424,0.4486663341522217,-1.8801162242889404,0.767435610294342,-0.20431020111890308,-0.03197915721567692,0.09042196155286569
1.7286078929901123,-0.11578110605478287,-0.4314187169075012,-0.12889409065246582,0.4624252915382385,-1.9126079082489014,0.914865255355835,-0.20008498696898172,-0.04920627162114153,0.09917433751603408
1.7387328147888184,-0.14637687802314758,-0.4753262996673584,-0.16716772317886353,0.45749059319496155,-1.932907223701477,1.0414751768112183,-0.1960623765375089,-0.06646179233680678,0.1094630555526374
1.7487168312072754,-0.16861730813980103,-0.4827851951122284,-0.16072803735733032,0.5225950479507446,-1.9830708503723145,1.1306687593460083,-0.1920320459914036,-0.08381309144975982,0.12089439410775796
1.7598867416381836,-0.1945922076702118,-0.44792431592941284,-0.10143357515335083,0.6740911602973938,-2.035292863845825,1.2142380475997925,-0.1871589222424657,-0.10160433223689708,0.13337143934898527
1.7690129280090332,-0.21457281708717346,-0.3963678777217865,-0.021285653114318848,0.74625164270401,-2.084897518157959,1.2576839923858643,-0.1813724282668956,-0.1197966748199396,0.14670724298615903
1.7788188457489014,-0.24435478448867798,-0.37049436569213867,0.031475722789764404,0.7533541917800903,-2.0260977745056152,1.3561513423919678,-0.1755635058957942,-0.13792579798165097,0.160788981220941
1.788822889328003,-0.26071393489837646,-0.3776400685310364,0.011319100856781006,0.6342893242835999,-1.988097071647644,1.374760627746582,-0.17054933278916018,-0.1554104252096269,0.175730892572705
1.798689842224121,-0.29602473974227905,-0.3930477499961853,-0.03791719675064087,0.4859560430049896,-1.8986653089523315,1.4305024147033691,-0.16727953063855938,-0.17241782429914465,0.19053359507132991
1.8089227676391602,-0.3546798825263977,-0.43916523456573486,-0.08617258071899414,0.4511898159980774,-1.8276363611221313,1.5989007949829102,-0.16550564920675082,-0.188405591718939,0.2065462171966132
1.8214468955993652,-0.35415253043174744,-0.47799545526504517,-0.01132291555404663,0.5315873026847839,-1.7729227542877197,1.6372990608215332,-0.16380073966435585,-0.2036236701382362,0.22368763156653512
1.8289048671722412,-0.3650820851325989,-0.46989312767982483,0.0822528600692749,0.5505213141441345,-1.6776140928268433,1.699864149093628,-0.16189885086931338,-0.21811688358797507,0.24130837466152788
1.838958740234375,-0.398720383644104,-0.47576943039894104,0.11977618932723999,0.6428208947181702,-1.5148049592971802,1.8594039678573608,-0.16013823349902812,-0.23115731383462743,0.2602174981870659
1.8488428592681885,-0.4432671070098877,-0.5701667070388794,0.21152162551879883,0.7446098327636719,-1.182116150856018,1.9172272682189941,-0.15788843576169662,-0.24145953916993523,0.2804219478223142
1.8590197563171387,-0.44619619846343994,-0.4813998341560364,0.30180972814559937,0.7742329239845276,-0.8399959802627563,2.0020012855529785,-0.15514768689315836,-0.2484059040227488,0.30164948105941214
1.869286060333252,-0.4612721800804138,-0.43017441034317017,0.33570605516433716,0.6629154682159424,-0.36365950107574463,2.1400492191314697,-0.15329292687421972,-0.2510093663826286,0.323675600134614
1.8788678646087646,-0.5119917988777161,-0.5060036778450012,0.3425901532173157,0.7871856689453125,0.2008359134197235,2.3700621128082275,-0.15201996845570181,-0.24833120373978848,0.34756201833865297
1.8888258934020996,-0.48604118824005127,-0.3852565288543701,0.24822133779525757,1.0686453580856323,0.8466935157775879,2.6187336444854736,-0.14894438421212128,-0.23911379449969,0.374380768033758
1.8987598419189453,-0.4373069703578949,-0.2538087069988251,0.16836899518966675,1.1525201797485352,1.312933325767517,2.7815675735473633,-0.14427754455378494,-0.22383077774475554,0.40364424639985214
1.9088618755340576,-0.416326105594635,-0.29872143268585205,0.32584601640701294,1.090153694152832,1.6611621379852295,2.90634822845459,-0.13922813250437804,-0.2047131538370661,0.43417696787664534
1.9188227653503418,-0.38081127405166626,-0.2736448049545288,0.5004246234893799,0.9964256882667542,1.860721230506897,3.2064459323883057,-0.13484712237826266,-0.18256410176062654,0.4662616590067206
1.9288229942321777,-0.2627398371696472,-0.27243632078170776,0.6566082239151001,0.7416014075279236,2.052934169769287,3.5548202991485596,-0.13174957077419572,-0.15832409472855413,0.5018918375606952
1.9390239715576172,-0.06583613157272339,-0.3827921748161316,0.6317585110664368,-0.025880420580506325,2.298718214035034,3.283146858215332,-0.13313933855793147,-0.13200080037542147,0.5364080481424113
1.9490609169006348,0.02681206911802292,-0.4458291530609131,0.5180281400680542,-0.4087772071361542,2.464606285095215,3.590336561203003,-0.1395956343601623,-0.10345587187767168,0.5705260894653799
1.9592957496643066,0.3565579354763031,-0.12560908496379852,0.3582659363746643,-0.5608252286911011,2.6680350303649902,3.6789426803588867,-0.14772162486077245,-0.0726374705576301,0.6068103388594951
1.9696769714355469,0.5927506685256958,0.08156944811344147,0.16831302642822266,-0.6070678234100342,2.8825783729553223,3.820284128189087,-0.1557074787969158,-0.03914169400651839,0.6443568006311776
1.978975772857666,0.7206069827079773,0.14566999673843384,0.06807023286819458,-0.5897194743156433,3.0741217136383057,3.9060301780700684,-0.16252437670251968,-0.003103363548224705,0.6834823396066487
1.9889638423919678,0.8587430715560913,0.27430617809295654,0.09602779150009155,-0.5576739311218262,3.1952645778656006,3.8524255752563477,-0.16762450057038453,0.03481823064547534,0.7230004551984631
1.998918056488037,0.905693769454956,0.36383867263793945,0.11159706115722656,-0.5984035134315491,3.301652193069458,3.740941286087036,-0.17128410319253454,0.07392407067188655,0.761888181110718
2.008877754211426,1.0122694969177246,0.4055054783821106,0.04548060894012451,-0.6583014726638794,3.2878620624542236,3.5504629611968994,-0.1741546219572502,0.11346575032196382,0.7993728088549934
2.0191030502319336,1.1036856174468994,0.36729198694229126,-0.031644225120544434,-0.5026267766952515,3.1146352291107178,3.3871891498565674,-0.1755237542255772,0.15178309103683035,0.8351369206414653
2.0289769172668457,1.1820452213287354,0.3707946538925171,-0.11950808763504028,-0.1302475929260254,2.8572394847869873,3.1996870040893555,-0.17312924024783766,0.18765733057761058,0.8686983619770653
2.039036750793457,1.1770782470703125,0.43046054244041443,-0.2640964388847351,0.15856392681598663,2.4669501781463623,2.9769296646118164,-0.16654547566411998,0.21952419242880694,0.8993781402797033
2.0490317344665527,1.0840097665786743,0.44549545645713806,-0.3518507480621338,0.15114888548851013,1.9992523193359375,2.6173934936523438,-0.15832988547701515,0.2463698782125231,0.9266874008911486
2.059154987335205,0.913501501083374,0.4688606858253479,-0.3082069158554077,-0.17379197478294373,1.4607923030853271,2.1083133220672607,-0.15228692946735015,0.2672869260123594,0.9499174267503057
2.0707030296325684,0.6865754723548889,0.5020319819450378,-0.17837154865264893,-0.5816249847412109,0.9267523884773254,1.5415821075439453,-0.15094533983236527,0.282076789078704,0.968746279353342
2.079123020172119,0.5250287055969238,0.534031867980957,-0.11131179332733154,-0.935688853263855,0.40409356355667114,1.0047426223754883,-0.15475647196061218,0.29091085554100915,0.9832850468929134
2.089160919189453,0.40476492047309875,0.4937390089035034,-0.08902430534362793,-1.0158706903457642,-0.0047123185358941555,0.5673822164535522,-0.16202883112185373,0.29446618134176805,0.9937714998572158
2.099061965942383,0.3129286468029022,0.4205726385116577,-0.05645555257797241,-0.823236882686615,-0.2324039340019226,0.1988634169101715,-0.16988878839086638,0.29426039400980025,1.0002246866429705
2.109247922897339,0.22460150718688965,0.3142070770263672,-0.010397374629974365,-0.4379427134990692,-0.2794574499130249,0.005341893061995506,-0.17578681808817462,0.2920569707629985,1.0030227923371215
2.120269775390625,0.1366974115371704,0.1627093404531479,0.06298840045928955,0.06887301802635193,-0.14605750143527985,-0.072083979845047,-0.17768645112733766,0.2898752359676628,1.0031766176223986
2.129272937774658,0.05319908261299133,0.00732758641242981,0.13761138916015625,0.541186511516571,0.05351366102695465,-0.017679058015346527,-0.1748671613716272,0.2891458037138295,1.0017345934092992
2.139263868331909,0.03570905327796936,-0.12139517068862915,0.15546464920043945,0.9283444285392761,0.25567325949668884,0.13755661249160767,-0.16758869525513284,0.2904385905504606,1.0001128722560888
2.1492068767547607,0.06018379330635071,-0.14666493237018585,0.14513593912124634,1.023481845855713,0.41222718358039856,0.29535260796546936,-0.157338307445523,0.2937120542924344,0.9993390577450392
2.159273862838745,0.06458210945129395,-0.12674692273139954,0.17845463752746582,0.7571576833724976,0.47450801730155945,0.38310563564300537,-0.14763789923892823,0.29830527073018065,0.9999921138362039
2.1689558029174805,0.066561758518219,-0.11587414145469666,0.24426400661468506,0.2954427897930145,0.4469272792339325,0.4063102900981903,-0.1413535468102611,0.30328888799005116,1.0022107271316294
2.1789469718933105,0.07900810241699219,-0.07596421241760254,0.26225459575653076,-0.1874535232782364,0.33853745460510254,0.41557881236076355,-0.13965009025077993,0.3077910482274036,1.0060266785728924
2.189072847366333,0.10300701856613159,-0.05387674272060394,0.20545923709869385,-0.5371729135513306,0.2297574281692505,0.41641131043434143,-0.14192287431891176,0.3113438515053121,1.011210096332014
2.199136734008789,0.1069498062133789,-0.01734215021133423,0.1527724266052246,-0.6471549868583679,0.1771862506866455,0.39990684390068054,-0.14649716935604187,0.31414501120576654,1.0170102725631311
2.209108829498291,0.0739700198173523,-0.0014566928148269653,0.11388641595840454,-0.6170111894607544,0.19543129205703735,0.37249013781547546,-0.15138730129710165,0.31684128717292903,1.0228350600436764
2.22012996673584,0.05001723766326904,0.007382452487945557,0.06291097402572632,-0.4346814751625061,0.24586087465286255,0.3333325982093811,-0.15532014742666456,0.3198177694662747,1.02791208498016
2.229240894317627,0.0415191650390625,0.029790103435516357,0.010043025016784668,-0.17738310992717743,0.27923160791397095,0.28796035051345825,-0.15728952598884702,0.32307850096735136,1.0319050915511918
2.239655017852783,0.03777244687080383,0.03415285050868988,-0.030232548713684082,0.056534476578235626,0.2732755243778229,0.22016333043575287,-0.15701272035958652,0.32628387207058746,1.0345279575872472
2.2490620613098145,0.03184637427330017,0.05591985583305359,-0.02939218282699585,0.24481996893882751,0.237585186958313,0.12656572461128235,-0.1549966289263984,0.3290371694349005,1.035719653975964
2.2590208053588867,0.02534663677215576,0.08186829090118408,-0.015196025371551514,0.33808019757270813,0.1822531670331955,0.03748976066708565,-0.15191540421435187,0.331125658680984,1.0355057875239313
2.2694220542907715,0.027406007051467896,0.10185396671295166,-0.019058048725128174,0.37036648392677307,0.14236460626125336,-0.03360385447740555,-0.148539056604437,0.3325661658302268,1.0343735223309425
2.279007911682129,0.024527400732040405,0.09555166959762573,0.005570590496063232,0.39383774995803833,0.12949217855930328,-0.0884285420179367,-0.1451305876739681,0.3336428395565014,1.032481841495917
2.2891077995300293,0.01616784930229187,0.08071443438529968,0.006008267402648926,0.4192062318325043,0.13004238903522491,-0.10189960896968842,-0.1416058744833562,0.33460617300648005,1.030189983672385
2.2990739345550537,0.02039247751235962,0.04917283356189728,-0.013886511325836182,0.4148520529270172,0.1321045160293579,-0.08635958284139633,-0.13795560716315253,0.33560431940884916,1.0278947411199284
2.3091578483581543,0.013513714075088501,0.013062998652458191,-0.007412612438201904,0.37829750776290894,0.1387706696987152,-0.05251986160874367,-0.13440548507725103,0.3367036926405882,1.0258967837652873
2.3198328018188477,0.0007953941822052002,-0.01158258318901062,0.005547702312469482,0.2991637587547302,0.1396995484828949,-0.019247233867645264,-0.13132924823938227,0.3379055247830893,1.024425888840081
2.3293049335479736,-0.005392700433731079,-0.0234222412109375,0.01047813892364502,0.19593778252601624,0.13676820695400238,0.012810569256544113,-0.12897358579472484,0.3391926093128848,1.023564325464209
2.3393678665161133,-0.007084310054779053,-0.01698140799999237,0.0036486387252807617,0.06661156564950943,0.1321646124124527,0.038986675441265106,-0.12764882037248038,0.3405333295882185,1.0233814475574168
2.3491129875183105,-0.004844695329666138,-0.014994457364082336,-0.0074846744537353516,-0.04099798575043678,0.11715318262577057,0.049203891307115555,-0.12739934145359116,0.3418479236493259,1.0237673243157372
2.3591878414154053,-0.004664808511734009,-0.00927552580833435,-0.016641974449157715,-0.09864933043718338,0.10465522855520248,0.060314811766147614,-0.12789476768698183,0.34304996069062976,1.0245601281743129
2.369533061981201,-0.006021976470947266,-0.007766127586364746,-0.025086402893066406,-0.12534725666046143,0.09225288778543472,0.05836804211139679,-0.12877294762800504,0.34416804882696556,1.025493479815477
2.3795690536499023,-0.005012452602386475,-0.006455942988395691,-0.03297489881515503,-0.12621097266674042,0.09040256589651108,0.0522296167910099,-0.12979060709727874,0.3452102215635688,1.0264802071627492
2.3892650604248047,-0.0028250813484191895,-0.006033420562744141,-0.030392229557037354,-0.10000013560056686,0.08927365392446518,0.04256314039230347,-0.13070333223347866,0.34622895273788723,1.0273246129695723
2.399425983428955,0.0010380148887634277,-0.0006164312362670898,-0.037397682666778564,-0.0642138421535492,0.0701272189617157,0.020646920427680016,-0.1313650104844065,0.3471249626825353,1.0279108910042642
2.409681797027588,0.013186544179916382,0.007028043270111084,-0.038781583309173584,-0.033834367990493774,0.03914426267147064,-0.016792330890893936,-0.13181154188450006,0.3477165433973887,1.028122080984327
2.4192678928375244,0.0147818922996521,0.017759233713150024,-0.03164982795715332,-0.016831431537866592,-0.00450073042884469,-0.05485619604587555,-0.13206892935306985,0.3477853922813287,1.027845541684658
2.4293370246887207,0.014479726552963257,0.01826837658882141,-0.02821892499923706,-0.006173727102577686,-0.03932555764913559,-0.08357865363359451,-0.13224799328341272,0.3473651277577733,1.0272065755648199
2.439335823059082,0.017521947622299194,0.017014116048812866,-0.01718282699584961,-0.014067785814404488,-0.05282995477318764,-0.09559202194213867,-0.13245117331306405,0.3465994244072643,1.0263567743581157
2.4492719173431396,0.011862128973007202,-0.0015429109334945679,0.012217342853546143,0.004468347877264023,-0.0350554883480072,-0.08494150638580322,-0.13259207334659429,0.3457866787187803,1.0254507437018023
2.4593238830566406,0.011545300483703613,-0.022681698203086853,0.019996583461761475,0.03439372405409813,0.0035817420575767756,-0.045704618096351624,-0.13235116972415462,0.3452476948439354,1.0247151757026929
2.469423770904541,0.016153842210769653,-0.0281686931848526,0.015521526336669922,0.043402399867773056,0.0439629890024662,-0.004051448777318001,-0.13180621949478347,0.34518857631040617,1.0243122320951625
2.479440927505493,0.014794081449508667,-0.031370505690574646,0.021181166172027588,0.029340872541069984,0.07015002518892288,0.021555429324507713,-0.13126495021924953,0.34557361386645674,1.0242356967865685
2.4891209602355957,0.010199248790740967,-0.033218517899513245,0.02732563018798828,0.005784415639936924,0.06175893917679787,0.03947983682155609,-0.13105119713768887,0.34630172203748366,1.0244837128561433
2.4993200302124023,0.010487616062164307,-0.035065531730651855,0.03396481275558472,-0.024392379447817802,0.04029940813779831,0.04759853705763817,-0.13120580333474902,0.34696533017924097,1.0249265120698412
2.510105848312378,0.007652103900909424,-0.03331613540649414,0.03715163469314575,-0.02955251932144165,0.03110884130001068,0.04600756615400314,-0.13150363356287564,0.34745138602529957,1.0254886201176514
2.519690990447998,0.0012206733226776123,-0.04435494542121887,0.0422825813293457,-0.035411592572927475,0.04334034025669098,0.06824639439582825,-0.13178747399609858,0.34801335104382974,1.0261460929928612
2.52927303314209,0.0005258023738861084,-0.06300468742847443,0.04662644863128662,-0.02954810857772827,0.08462466299533844,0.09474484622478485,-0.13185257882047163,0.3488605045672274,1.027046056117988
2.5393428802490234,0.0026179850101470947,-0.0811619758605957,0.0567665696144104,-0.0069143022410571575,0.13427290320396423,0.12346816062927246,-0.13148249816207272,0.3501841416450404,1.0281541930550253
2.549388885498047,0.009116053581237793,-0.07796889543533325,0.04909658432006836,0.01327299140393734,0.17291989922523499,0.16229625046253204,-0.13073968216204399,0.3520027476271174,1.02951919012953
2.559302806854248,0.022277086973190308,-0.06089185178279877,0.03255176544189453,-0.0008956079836934805,0.19025374948978424,0.18281489610671997,-0.12979848688842235,0.35413010600774786,1.0311267406560356
2.569561004638672,0.02224990725517273,-0.042376190423965454,0.03229320049285889,-0.039765775203704834,0.178150475025177,0.17274469137191772,-0.12909923711052043,0.35627552881226293,1.0329069022134454
2.5813980102539062,0.017133861780166626,-0.0242002010345459,0.033038198947906494,-0.0767548531293869,0.13419848680496216,0.14432013034820557,-0.12886564388348545,0.35812474810103234,1.0346303416674079
2.592418909072876,0.01385200023651123,0.0029605627059936523,0.015110611915588379,-0.08097729086875916,0.08420214802026749,0.09929060190916061,-0.12900400029468756,0.3594309891337588,1.0360903697646136
2.5996108055114746,0.009425729513168335,0.026285290718078613,-0.00797414779663086,-0.054958775639534,0.036208704113960266,0.0494755320250988,-0.12914849505456197,0.3601626968170061,1.0370446160452271
2.6095800399780273,0.007520228624343872,0.030498400330543518,-0.02917015552520752,-0.0038058438804000616,-0.005845004692673683,0.0014994842931628227,-0.12888522054191798,0.36034513480058017,1.0374017828268776
2.619680881500244,0.011656999588012695,0.035436078906059265,-0.04157775640487671,0.040907829999923706,-0.03702520579099655,-0.037798333913087845,-0.1281836996883543,0.360111936063478,1.0371464833198822
2.6299309730529785,0.01222604513168335,0.04537902772426605,-0.035781800746917725,0.07202687114477158,-0.047213129699230194,-0.06374577432870865,-0.12740493849056617,0.3596421046177992,1.0364767279661122
2.6396749019622803,0.011478602886199951,0.04372180998325348,-0.013730287551879883,0.09184534847736359,-0.03447549790143967,-0.07829616963863373,-0.12659899633770558,0.3592087740934002,1.0355021722827717
2.6497859954833984,0.007830440998077393,0.02777494490146637,-0.0018880367279052734,0.08051466196775436,-0.020134905353188515,-0.06968803703784943,-0.12586214058265854,0.35892866438996296,1.0344948509899194
2.659679889678955,0.012891948223114014,0.014349028468132019,-0.010297596454620361,0.06142324209213257,-0.01453867182135582,-0.05793353542685509,-0.12533737182860955,0.3587606743229128,1.033663058644841
2.670340061187744,0.010746538639068604,0.012962967157363892,-0.014767646789550781,0.03315458446741104,-0.017646314576268196,-0.04625663906335831,-0.12511957092208076,0.3586124893156105,1.0330068912931052
2.6800107955932617,0.005602985620498657,0.011501066386699677,-0.01164168119430542,-0.010365791618824005,-0.0286360252648592,-0.04358048364520073,-0.12531653064825882,0.35837687360023557,1.0325440714967695
2.689671039581299,0.003045201301574707,0.0087670236825943,-0.01773667335510254,-0.06351742893457413,-0.050529077649116516,-0.03635399788618088,-0.12596523375771027,0.3579580119940682,1.0322971094578048
2.6996779441833496,0.006865322589874268,0.008732154965400696,-0.02277243137359619,-0.10873071104288101,-0.06279017776250839,-0.033907826989889145,-0.127138629054354,0.3573839726358398,1.0322905080647666
2.7097408771514893,0.00865355134010315,0.007013574242591858,-0.010723471641540527,-0.14008916914463043,-0.061597347259521484,-0.0254666730761528,-0.12888675874332853,0.3568407595671085,1.032449135492012
2.7201757431030273,0.00908401608467102,0.004693850874900818,0.0016784071922302246,-0.15376251935958862,-0.0454850010573864,-0.020560650154948235,-0.13101078515904982,0.3565466266554501,1.0327759982148776
2.7298407554626465,0.004591256380081177,-0.004725545644760132,0.01000601053237915,-0.1562294065952301,-0.028267398476600647,-0.013831375166773796,-0.13286266751031428,0.3563825235233118,1.0331921578602379
2.739956855773926,0.006892353296279907,-0.007284805178642273,-0.0026798248291015625,-0.16772319376468658,-0.030438454821705818,-0.009572447277605534,-0.13447500323680128,0.3563021474776215,1.033673664300508
2.7497079372406006,0.015562266111373901,-0.0020796507596969604,-0.017850935459136963,-0.18536290526390076,-0.0623931959271431,-0.03154592588543892,-0.13619782842787997,0.3559919237783595,1.0341297435080874
2.7608280181884766,0.020554661750793457,0.014548048377037048,-0.015610575675964355,-0.20434287190437317,-0.11519865691661835,-0.07584846019744873,-0.13818932089589608,0.3551709114264407,1.0343397932888938
2.769873857498169,0.023300737142562866,0.03310053050518036,-0.01507711410522461,-0.19692383706569672,-0.1830727905035019,-0.13678692281246185,-0.1403948815146674,0.3536265380102652,1.0340392332560453
2.7798378467559814,0.02610909938812256,0.041880711913108826,-0.030137181282043457,-0.16132833063602448,-0.24733850359916687,-0.19372422993183136,-0.14256164514964564,0.35135800001326534,1.0331099375169386
2.7898287773132324,0.03063225746154785,0.04576103389263153,-0.03858542442321777,-0.09456713497638702,-0.2942498028278351,-0.2524162828922272,-0.1444533358597069,0.34848014902015256,1.0314480161934056
2.799813747406006,0.02755814790725708,0.03308698534965515,-0.038274943828582764,-0.037242162972688675,-0.33090725541114807,-0.3091704249382019,-0.14594311402547797,0.345139460014589,1.0290155135715122
2.809870719909668,0.0329132080078125,0.027568385004997253,-0.040409088134765625,0.004117260221391916,-0.36782532930374146,-0.3584655523300171,-0.14707935829994198,0.34131828629300826,1.0259060031568135
2.8201637268066406,0.04190117120742798,0.03228464722633362,-0.03737562894821167,0.016054347157478333,-0.40181052684783936,-0.4178762137889862,-0.1481270267015766,0.33703765943851344,1.0221747423002558
2.829951763153076,0.050914883613586426,0.039031803607940674,-0.029259979724884033,-0.0074168904684484005,-0.45030564069747925,-0.4823950231075287,-0.14945115610184065,0.33229223062682156,1.0178775916494005
2.840208053588867,0.07081174850463867,0.042750030755996704,-0.029581665992736816,-0.05125989764928818,-0.5235300064086914,-0.5565563440322876,-0.1513852685152326,0.32671704145450486,1.0129928601120508
2.849842071533203,0.09522092342376709,0.0451706200838089,-0.036007702350616455,-0.1194128543138504,-0.6181641221046448,-0.6466596126556396,-0.15409263563860834,0.3201859716891861,1.0075042557934049
2.860010862350464,0.11926501989364624,0.05339480936527252,-0.049649834632873535,-0.19583675265312195,-0.7348644137382507,-0.756026566028595,-0.1577691317485087,0.31246412407874563,1.0012493746112072
2.8704748153686523,0.14635157585144043,0.07111753523349762,-0.06894814968109131,-0.2926975190639496,-0.8799289464950562,-0.9054158329963684,-0.16261516194217307,0.3032548689822583,0.9940099770054562
2.879978895187378,0.18203681707382202,0.09734754264354706,-0.07550114393234253,-0.3859438896179199,-1.0566749572753906,-1.0915758609771729,-0.16880331420252856,0.2921527944816103,0.9853603218715878
2.889967918395996,0.21819761395454407,0.1271594762802124,-0.06161808967590332,-0.4532443583011627,-1.2199169397354126,-1.321574091911316,-0.1762727143076743,0.2789293589528121,0.9748389523222675
2.8999757766723633,0.24963989853858948,0.15028072893619537,-0.036751508712768555,-0.4583105146884918,-1.3563624620437622,-1.5777239799499512,-0.18459766247918097,0.26370918998605347,0.9619017033739026
2.909975051879883,0.28318673372268677,0.16657571494579315,-0.020446360111236572,-0.3846224546432495,-1.4881514310836792,-1.83111572265625,-0.19306564340118146,0.24651056843922167,0.9461770894525448
2.9202628135681152,0.34778285026550293,0.17374709248542786,-0.03858590126037598,-0.1976911872625351,-1.5665874481201172,-2.054295301437378,-0.20053430649088233,0.2275438889284308,0.9276103911427854
2.9302430152893066,0.41529756784439087,0.20685671269893646,-0.06765198707580566,0.007624676451086998,-1.601711630821228,-2.294100761413574,-0.2061450226178734,0.2073497704615927,0.9061325621504649
2.9404850006103516,0.4548133313655853,0.23971082270145416,-0.04456973075866699,0.17928296327590942,-1.626255989074707,-2.5338234901428223,-0.20997943730873417,0.18615908653134383,0.8817143975119237
2.950255870819092,0.4847985804080963,0.24265508353710175,-0.0098990797996521,0.3794725239276886,-1.6192481517791748,-2.7489511966705322,-0.21188391290128636,0.1642330693437996,0.8545833612016518
2.9603757858276367,0.5211148858070374,0.25059807300567627,-0.02413761615753174,0.536577045917511,-1.608062982559204,-2.9431846141815186,-0.21175045112258217,0.14191329000091316,0.8250395627591337
2.9704508781433105,0.569102942943573,0.252743124961853,-0.05954653024673462,0.6935917139053345,-1.609693169593811,-3.059992790222168,-0.2096192949219551,0.11933288990450196,0.793719863525171
2.9802980422973633,0.5939372777938843,0.22284333407878876,-0.08840441703796387,0.8350647687911987,-1.6121090650558472,-3.1407368183135986,-0.2055261910900562,0.09664416175866453,0.7613513331173709
2.9900689125061035,0.6032193899154663,0.21005049347877502,-0.07246595621109009,0.9260034561157227,-1.6083859205245972,-3.2015535831451416,-0.19953505859647627,0.07400476300570677,0.7283278464208982
3.0001769065856934,0.5819284915924072,0.21345338225364685,-0.0010865330696105957,0.9179365038871765,-1.5849881172180176,-3.267487049102783,-0.19236330095566984,0.051536458947325677,0.6947710322022581
3.0102789402008057,0.528564989566803,0.20608195662498474,0.06867605447769165,0.8155914545059204,-1.5208277702331543,-3.306241989135742,-0.18504796564264328,0.029685284191115942,0.6609589396928572
3.0204310417175293,0.46682795882225037,0.20546850562095642,0.10436177253723145,0.7009410858154297,-1.3926992416381836,-3.3427226543426514,-0.17820943440460077,0.009038529395236387,0.6269800985280128
3.0303099155426025,0.40857842564582825,0.20833362638950348,0.14170318841934204,0.6445726156234741,-1.2283108234405518,-3.330293655395508,-0.1715655814790365,-0.009936056265366252,0.5930711848487307
3.0403738021850586,0.34111344814300537,0.21230943500995636,0.15658974647521973,0.5856645703315735,-1.0544100999832153,-3.3080239295959473,-0.16493264499248017,-0.026891184067107096,0.5595088140501406
3.0502920150756836,0.2813653349876404,0.21124200522899628,0.15725690126419067,0.5000569820404053,-0.8660995364189148,-3.2842304706573486,-0.15853126723889502,-0.041680856497448265,0.5263275375714752
3.060370922088623,0.2199994921684265,0.19155354797840118,0.18002963066101074,0.3980918228626251,-0.6921154260635376,-3.261312484741211,-0.15271299318422804,-0.05441485879775578,0.49343168063244547
3.070781946182251,0.15390121936798096,0.1548139899969101,0.20134633779525757,0.3078881800174713,-0.49877071380615234,-3.2458553314208984,-0.14746237473246332,-0.06509942334811128,0.4608021365083645
3.0805177688598633,0.11751798540353775,0.1414375901222229,0.1940513253211975,0.3042483627796173,-0.32729044556617737,-3.2016100883483887,-0.14236800336652278,-0.07380591706882743,0.42845128793085746
3.0904438495635986,0.12050466239452362,0.10444431006908417,0.19414329528808594,0.3179364800453186,-0.19850771129131317,-3.1583969593048096,-0.13685770260075564,-0.0808047440741005,0.39667319312561716
3.100371837615967,0.09046158194541931,0.0278598815202713,0.23793548345565796,0.2959594428539276,-0.06344718486070633,-3.1356165409088135,-0.13126917481512143,-0.08630545692099406,0.36524886237422277
3.1103198528289795,0.025123730301856995,-0.04052543640136719,0.32134026288986206,0.32851526141166687,0.09692730754613876,-3.1478490829467773,-0.12540276120957553,-0.09014647458661326,0.3339766061642106
3.120483875274658,-0.017694972455501556,-0.05769819766283035,0.3889749050140381,0.2951601445674896,0.2840118706226349,-3.1796228885650635,-0.11938289319090746,-0.09208317767667162,0.30245995687878285
3.130311965942383,-0.039065197110176086,-0.01996442675590515,0.39857006072998047,0.18381045758724213,0.4574371576309204,-3.1680140495300293,-0.11403767194893441,-0.09204816215259293,0.2708148851140757
3.140415906906128,-0.041201017796993256,-0.019720733165740967,0.38661807775497437,0.027240090072155,0.6286994218826294,-3.1263816356658936,-0.11016861884917646,-0.0901122427988995,0.23931369944227643
3.150291919708252,-0.051118962466716766,-0.06992746144533157,0.3744134306907654,-0.07984454929828644,0.7776380777359009,-3.044581413269043,-0.10777938680203056,-0.08642183221857463,0.20828223700722315
3.1604647636413574,-0.05321346968412399,-0.14512184262275696,0.32908445596694946,-0.054539576172828674,0.8770091533660889,-2.928964614868164,-0.10601360573447632,-0.08128883283163316,0.17827227760003153
3.1705870628356934,-0.057465918362140656,-0.23580090701580048,0.28366619348526,-0.018620725721120834,0.9986996650695801,-2.8274450302124023,-0.10409174717689093,-0.07493695004011466,0.1493573196690287
3.1804158687591553,-0.07997538149356842,-0.2738245725631714,0.2684684991836548,0.03137866035103798,1.1163097620010376,-2.7362630367279053,-0.10211161032414899,-0.06723002309043098,0.12144761545242917
3.1904358863830566,-0.10090489685535431,-0.27757930755615234,0.2716052532196045,-0.061369918286800385,1.269230604171753,-2.663259983062744,-0.10044092449299966,-0.05803515133921634,0.0943207252135728
3.200636863708496,-0.11575129628181458,-0.2478841245174408,0.2563807964324951,-0.27159231901168823,1.3869714736938477,-2.523002862930298,-0.10066937529056925,-0.047332499875394826,0.06812973471273073
3.2109549045562744,-0.10842055082321167,-0.22165876626968384,0.26444464921951294,-0.3992823660373688,1.4890848398208618,-2.304396867752075,-0.1031740465568942,-0.035406099035278325,0.04366748316680178
3.2208499908447266,-0.08880012482404709,-0.24819110333919525,0.2540898323059082,-0.4289590120315552,1.5571473836898804,-2.035191774368286,-0.10668493007477861,-0.022413180981389898,0.021720006428482354
3.2304940223693848,-0.05746375396847725,-0.2291475534439087,0.18054920434951782,-0.5114906430244446,1.5684165954589844,-1.8532817363739014,-0.11108970849111605,-0.008859922842642521,0.0021167537514959743
3.2441258430480957,-0.0182645246386528,-0.21114297211170197,0.12443864345550537,-0.530113935470581,1.4851038455963135,-1.715257167816162,-0.11635829841767285,0.0044241905097016365,-0.015877340397624035
3.2548680305480957,0.006906241178512573,-0.28257936239242554,0.06888097524642944,-0.48465675115585327,1.4062970876693726,-1.5546948909759521,-0.12154717830187499,0.016916242458430538,-0.032316777335148886
3.2617108821868896,0.0042787957936525345,-0.32280993461608887,-0.03704017400741577,-0.5241475701332092,1.3555785417556763,-1.407981038093567,-0.12693771127103298,0.02891682445504479,-0.04711295283253186
3.2707479000091553,-0.009240727871656418,-0.31118541955947876,-0.08745402097702026,-0.5772432684898376,1.3008264303207397,-1.2640752792358398,-0.1329265717705556,0.0404926726397937,-0.06044407255564873
3.2805800437927246,-0.019802629947662354,-0.3075737953186035,-0.11427205801010132,-0.57150799036026,1.2452393770217896,-1.080617070198059,-0.13924579680751908,0.05166701150648088,-0.07201170304756528
3.290526866912842,-0.012686025351285934,-0.2796967625617981,-0.14223343133926392,-0.5780622959136963,1.1808768510818481,-0.9190419912338257,-0.14555126766228474,0.0624588787624888,-0.08175622724105615
3.3006529808044434,-0.0009305700659751892,-0.2502391040325165,-0.14624828100204468,-0.5630324482917786,1.0693241357803345,-0.803317666053772,-0.15186891663744656,0.07250659274027026,-0.09002654172290334
3.3106648921966553,0.004627421498298645,-0.25788938999176025,-0.14075201749801636,-0.6116364598274231,0.9716423153877258,-0.7343255281448364,-0.15826848119090783,0.08157976785295631,-0.09733260037330718
3.320748805999756,-0.006984256207942963,-0.24183562397956848,-0.16193550825119019,-0.6438244581222534,0.8850643634796143,-0.6657077074050903,-0.1651778066935211,0.08982309885857893,-0.10383160845961195
3.330565929412842,-0.016160190105438232,-0.21255283057689667,-0.17579293251037598,-0.639896810054779,0.8068313598632812,-0.6160123348236084,-0.17220387263268502,0.09730999446068163,-0.1097074690582017
3.340653896331787,-0.020719192922115326,-0.20272813737392426,-0.188443124294281,-0.6006355881690979,0.7281283140182495,-0.5671049356460571,-0.17899361907220376,0.10404808669061105,-0.11505665580560138
3.3506338596343994,-0.01976662129163742,-0.1956218034029007,-0.19204843044281006,-0.5816166400909424,0.6674546003341675,-0.5175232887268066,-0.18545246397203582,0.11014615583093658,-0.11990928451900897
3.360761880874634,-0.019433341920375824,-0.1770467907190323,-0.19250935316085815,-0.5552186369895935,0.6033443808555603,-0.46671420335769653,-0.19167651325162643,0.11569261861274056,-0.12423756968760948
3.37076473236084,-0.020054735243320465,-0.17630185186862946,-0.17868387699127197,-0.5310659408569336,0.5559456944465637,-0.4093419909477234,-0.1976048099233883,0.12074492364581041,-0.12802368235432984
3.3807249069213867,-0.027645595371723175,-0.19204865396022797,-0.1746664047241211,-0.5104275941848755,0.5305806398391724,-0.33955541253089905,-0.203225476262934,0.12555342797026753,-0.13118212335449667
3.3906948566436768,-0.02927286922931671,-0.19791996479034424,-0.17576462030410767,-0.4954667091369629,0.4929267466068268,-0.27346909046173096,-0.20864676877348756,0.1301883976604655,-0.13360760105750372
3.400686740875244,-0.021082311868667603,-0.1896626204252243,-0.15356993675231934,-0.48692595958709717,0.45433300733566284,-0.22887203097343445,-0.2138410628444908,0.1345279604882816,-0.13550021905310064
3.410740852355957,-0.017689958214759827,-0.18049514293670654,-0.131663978099823,-0.49199312925338745,0.42127811908721924,-0.1662914752960205,-0.2189842521552367,0.13862083615552306,-0.13682717352661133
3.4207520484924316,-0.014866232872009277,-0.17052406072616577,-0.11296546459197998,-0.47814691066741943,0.3929181396961212,-0.11444038152694702,-0.22399770887009424,0.14253935423915223,-0.13754760020283907
3.430630922317505,-0.010971412062644958,-0.16410835087299347,-0.09793740510940552,-0.457371324300766,0.3493352234363556,-0.0674062967300415,-0.2287662987784873,0.14620777023533443,-0.13777740554500204
3.4412269592285156,-0.004372343420982361,-0.16221758723258972,-0.08260446786880493,-0.4367671310901642,0.3075919449329376,-0.029755160212516785,-0.23326644685755746,0.14954339243293815,-0.13758581261331324
3.4506208896636963,-0.00271432101726532,-0.16591398417949677,-0.07911503314971924,-0.4123254120349884,0.2766982316970825,0.003845676314085722,-0.2375070156815126,0.15259234028772575,-0.1370648301663561
3.460876941680908,-0.00566612184047699,-0.1659994274377823,-0.07455039024353027,-0.379682332277298,0.24009934067726135,0.03644223511219025,-0.24139606180246242,0.15536954139294143,-0.1362230791219933
3.4705967903137207,-0.009997263550758362,-0.1592157632112503,-0.06438452005386353,-0.36614230275154114,0.21976503729820251,0.06993387639522552,-0.24500295005947836,0.15794363270248668,-0.13507724478874836
3.480876922607422,-0.014555186033248901,-0.1531737893819809,-0.06127595901489258,-0.3247244656085968,0.20739826560020447,0.10634462535381317,-0.2483078621276113,0.1604311933436137,-0.1336130531648998
3.4906249046325684,-0.019799456000328064,-0.1531667858362198,-0.05853694677352905,-0.2633900046348572,0.19703882932662964,0.1444922685623169,-0.2510248341486477,0.16288458231346914,-0.13184251837813057
3.5008249282836914,-0.023718833923339844,-0.1418624222278595,-0.055575013160705566,-0.18540923297405243,0.1890673041343689,0.1903327852487564,-0.25298112181607474,0.16532948540498693,-0.12976125977849412
3.510638952255249,-0.024969786405563354,-0.12582901120185852,-0.05930548906326294,-0.10057343542575836,0.18517936766147614,0.23506642878055573,-0.25405665291651525,0.16780559594188865,-0.12734708602366707
3.520824909210205,-0.024846047163009644,-0.11622685194015503,-0.059231340885162354,0.01136130839586258,0.18376703560352325,0.27581024169921875,-0.25406792644655873,0.1703312346127774,-0.12467198095328903
3.53066086769104,-0.026072919368743896,-0.10551485419273376,-0.05860036611557007,0.11409913748502731,0.1872749626636505,0.3062989115715027,-0.2529484521942764,0.1728950494062913,-0.12180289984624745
3.5409817695617676,-0.028902947902679443,-0.09007208049297333,-0.06050705909729004,0.1905796229839325,0.18161632120609283,0.32601556181907654,-0.25086773446210797,0.17547999684291088,-0.11885739580667226
3.5507349967956543,-0.03193904459476471,-0.08181600272655487,-0.05400729179382324,0.2233780473470688,0.17151415348052979,0.3338063955307007,-0.24823695738106188,0.1779831336727478,-0.11586336220324023
3.5613338947296143,-0.02769787609577179,-0.08053310215473175,-0.03649085760116577,0.22908467054367065,0.15233485400676727,0.32753729820251465,-0.24541904504868775,0.1803180782818838,-0.1129188820402805
3.571286916732788,-0.027412816882133484,-0.07243910431861877,-0.023768067359924316,0.20081467926502228,0.1259879469871521,0.32460489869117737,-0.24267589931877545,0.18240411711689183,-0.1100175713801116
3.581063747406006,-0.021948039531707764,-0.05974394083023071,-0.019446194171905518,0.12374800443649292,0.10476179420948029,0.3125442862510681,-0.24049163501056695,0.18425200311057635,-0.10709604653824693
3.591002941131592,-0.020069405436515808,-0.047982096672058105,-0.01711505651473999,0.040499720722436905,0.08446291834115982,0.2960803508758545,-0.23912778653257813,0.1858817115163618,-0.10417106075878989
3.601188898086548,-0.019382938742637634,-0.044866517186164856,-0.017515063285827637,-0.03336906060576439,0.0627402663230896,0.282675564289093,-0.23855954209456853,0.1873101437942706,-0.10123399397636772
3.6109137535095215,-0.017577484250068665,-0.039925381541252136,-0.01613008975982666,-0.07904626429080963,0.04252741113305092,0.2651362419128418,-0.23862517046620949,0.18850690174063295,-0.09834146160094555
3.6210107803344727,-0.015496060252189636,-0.02891784906387329,-0.021678626537322998,-0.1042104959487915,0.028312742710113525,0.24538426101207733,-0.2390587613435463,0.18951190976881227,-0.09557995368064733
3.6309847831726074,-0.011575207114219666,-0.017967015504837036,-0.028207778930664062,-0.1031244546175003,0.014954593032598495,0.22610856592655182,-0.23964504134609071,0.1903398024190854,-0.09297843206644074
3.6411168575286865,-0.007814496755599976,-0.019468575716018677,-0.026734650135040283,-0.06584238260984421,0.0021369324531406164,0.20760498940944672,-0.24007554853561888,0.1909926762559629,-0.09062241932470623
3.651093006134033,-0.005441486835479736,-0.017518222332000732,-0.024118661880493164,-0.01007232815027237,-0.009275510907173157,0.1863822489976883,-0.24007838979708043,0.19144854963382696,-0.08854104357077426
3.6611390113830566,-0.0089854896068573,-0.00884757936000824,-0.014069974422454834,0.023041250184178352,-0.013767553493380547,0.1620493233203888,-0.2396819354903662,0.1917379352019461,-0.0867909874615939
3.6710410118103027,-0.013778075575828552,-0.013011515140533447,-0.0053942203521728516,0.034007348120212555,0.002235647290945053,0.14538751542568207,-0.23908331993592422,0.19203094474098711,-0.085296228106055
3.681154727935791,-0.019098609685897827,-0.021328091621398926,-0.0022981762886047363,0.010920388624072075,0.024188749492168427,0.13012877106666565,-0.2385970302337592,0.19248285772830045,-0.08394875547062004
3.691514015197754,-0.019172877073287964,-0.030793800950050354,0.008605718612670898,-0.013522104360163212,0.04071632772684097,0.10802667587995529,-0.23838258377260535,0.1931105406868722,-0.08273635973004942
3.701046943664551,-0.01775549352169037,-0.038221895694732666,0.01756221055984497,-0.033672261983156204,0.059133194386959076,0.08603908121585846,-0.23845808289990864,0.19383597371333622,-0.08172570011009431
3.710958957672119,-0.014299556612968445,-0.02737732231616974,0.01907294988632202,-0.03215799108147621,0.07179545611143112,0.0745781660079956,-0.23803867688350822,0.19427222861929824,-0.08093576806591299
3.7208919525146484,-0.00899679958820343,-0.01948493719100952,0.02058941125869751,-0.025803420692682266,0.08675497025251389,0.05366969108581543,-0.23753254448798675,0.19486378437097263,-0.08032727121301386
3.7310688495635986,-0.004519790410995483,-0.019385293126106262,0.015430808067321777,-0.023932017385959625,0.09905930608510971,0.044801898300647736,-0.23711606544993705,0.19562154040714058,-0.07985740404920388
3.7410528659820557,0.004826754331588745,-0.009151116013526917,0.007442474365234375,-0.013353409245610237,0.10562026500701904,0.03621799871325493,-0.2369950776121003,0.1963753692838888,-0.07949923462794481
3.7511768341064453,0.009161308407783508,-0.006962254643440247,0.006056785583496094,-0.0009137841407209635,0.1156899482011795,0.032881855964660645,-0.23670549480754632,0.19711260186224075,-0.07925298348063693
3.762423038482666,0.009037896990776062,-0.0053968727588653564,0.004737675189971924,0.019027166068553925,0.12413749098777771,0.028422925621271133,-0.23606842210697615,0.19783558542380927,-0.07909407203172597
3.7720279693603516,0.008820503950119019,-0.0006129592657089233,0.01019906997680664,0.02727958746254444,0.12844227254390717,0.022562585771083832,-0.2351187487808706,0.1986580802970477,-0.07899512771392085
3.781068801879883,0.008978381752967834,0.004856124520301819,0.017613768577575684,0.03166959062218666,0.1299833059310913,0.01797124184668064,-0.2340139474483583,0.19957552846280988,-0.0789461012954918
3.7911839485168457,0.00770963728427887,0.007161125540733337,0.016774237155914307,0.029594724997878075,0.13865509629249573,0.010999886319041252,-0.2332130847268688,0.2005955352599553,-0.07894526347795738
3.8011298179626465,0.00628015398979187,0.006151288747787476,0.014435827732086182,0.01625436544418335,0.14196598529815674,-0.0008253485430032015,-0.2327611060364307,0.2017689706190405,-0.07899395502658746
3.8112659454345703,0.0038297921419143677,0.0014245957136154175,0.01515418291091919,0.014470315538346767,0.14192017912864685,-0.00977756455540657,-0.23239682314240534,0.20304128317428194,-0.07911191756764178
3.821211814880371,0.0035939067602157593,0.003978699445724487,0.018046975135803223,0.010390335693955421,0.13709236681461334,-0.02189185842871666,-0.23226533128675386,0.20438714116179882,-0.07930915641172048
3.8312458992004395,0.0011512786149978638,0.012771308422088623,0.0215720534324646,-0.0034903259947896004,0.13259907066822052,-0.02780301123857498,-0.2322459807286721,0.20571674183653502,-0.07956860222442308
3.8413400650024414,-0.00019025802612304688,0.012343555688858032,0.017559289932250977,-0.02324811741709709,0.12670718133449554,-0.031384214758872986,-0.2324190182007055,0.20697357722126333,-0.07982230498915609
3.851606845855713,-0.0022953450679779053,0.007987245917320251,0.015167951583862305,-0.04326896369457245,0.12458916753530502,-0.04596981778740883,-0.23288153195839909,0.20818186529806915,-0.08013163354968086
3.8612499237060547,-0.007905334234237671,0.003855094313621521,0.013270795345306396,-0.052498314529657364,0.11966169625520706,-0.05582154169678688,-0.23361557825682586,0.20935153408949583,-0.08052478568821846
3.8712289333343506,-0.010785803198814392,0.002924621105194092,0.0113677978515625,-0.05318887159228325,0.11503978073596954,-0.06307865679264069,-0.23444665115506735,0.21043262883098932,-0.0809978258671639
3.88130784034729,-0.01271037757396698,0.005661457777023315,0.006591200828552246,-0.03126849606633186,0.10891824215650558,-0.06866107136011124,-0.23516267805741467,0.21143407186815596,-0.08155588131976284
3.891281843185425,-0.013591140508651733,0.010610595345497131,0.0006873607635498047,0.012027580291032791,0.10221134126186371,-0.07731660455465317,-0.235455371365391,0.21229534474234835,-0.08227890841927007
3.9013967514038086,-0.013062521815299988,0.011980876326560974,-0.003629028797149658,0.06676098704338074,0.08757970482110977,-0.07996884733438492,-0.23533293798924945,0.2130171232680414,-0.08316382717491862
3.9113378524780273,-0.011423647403717041,0.011687308549880981,-0.006324470043182373,0.0975671038031578,0.07597684860229492,-0.08080348372459412,-0.2350228919378472,0.2135564372264081,-0.08416330547599334
3.9212288856506348,-0.009738922119140625,0.011550426483154297,-0.00931459665298462,0.10181454569101334,0.06468069553375244,-0.08704081922769547,-0.2345360470816496,0.21394198793428926,-0.08524389769990791
3.9313230514526367,-0.008947357535362244,0.004685238003730774,-0.006487429141998291,0.09361307322978973,0.04703911766409874,-0.08479497581720352,-0.23398571250995923,0.21415624773239716,-0.08634579980551428
3.941532850265503,-0.0073845237493515015,-0.004534408450126648,-0.0016331672668457031,0.07137853652238846,0.036780886352062225,-0.0806964784860611,-0.2335185793401182,0.21414133134389654,-0.08740394835569773
3.9531869888305664,-0.0057563334703445435,-0.005110621452331543,0.0005550980567932129,0.06643225252628326,0.031239911913871765,-0.07316718995571136,-0.2331854775413194,0.21403252991160424,-0.0883879632439347
3.9615488052368164,-0.003009200096130371,-0.002044662833213806,-0.0032935142517089844,0.07005514949560165,0.02293812856078148,-0.058861806988716125,-0.23288861325205373,0.2138561710917023,-0.08926290238488785
3.9715638160705566,0.002444908022880554,-0.0010030418634414673,-0.00716400146484375,0.09242676198482513,0.019651789218187332,-0.04494572430849075,-0.23252376957074097,0.21363776351912359,-0.09001901426960564
3.9816019535064697,0.006794646382331848,-0.0061883628368377686,-0.011930465698242188,0.12694308161735535,0.02211356908082962,-0.029189931228756905,-0.2318468350672129,0.21344159429336276,-0.09069631516846355
3.9930238723754883,0.00805063545703888,-0.004552900791168213,-0.009673893451690674,0.15674865245819092,0.022861652076244354,-0.010599469766020775,-0.23080934427962585,0.21331946705616853,-0.09124938838822555
4.002177953720093,0.010843783617019653,-0.004788726568222046,-8.380413055419922e-05,0.19186337292194366,0.02535414882004261,0.006975849624723196,-0.22939033477963114,0.21326268584900507,-0.09168819859237837
4.011399745941162,0.0099392831325531,-0.005444914102554321,0.009625554084777832,0.19857800006866455,0.02684631757438183,0.015637246891856194,-0.22762015444287328,0.21329017427590022,-0.09203369060612057
4.021333932876587,0.012439161539077759,-0.005236774682998657,0.013666629791259766,0.18875446915626526,0.02660619094967842,0.02404244989156723,-0.2257309696624314,0.2133907346237629,-0.09228530925524711
4.031394004821777,0.014959156513214111,-0.01017037034034729,0.021328270435333252,0.16700176894664764,0.02009875513613224,0.02831842191517353,-0.22399866156989284,0.2135106651609452,-0.09242658906355536
4.041673898696899,0.016620799899101257,-0.01078595221042633,0.026188671588897705,0.13074536621570587,0.022288229316473007,0.028921734541654587,-0.22262703202732595,0.21365287810427722,-0.09247985206953555
4.054590940475464,0.016901671886444092,-0.0076431334018707275,0.026551008224487305,0.08982536196708679,0.024933014065027237,0.02430035173892975,-0.22162641226339183,0.2139014471062833,-0.09246030807213844
4.061814785003662,0.01930280029773712,-0.007761269807815552,0.022826850414276123,0.053997136652469635,0.01759498380124569,0.021014755591750145,-0.22091854276992878,0.21419716474097641,-0.09237874137971533
4.0714569091796875,0.02104879915714264,-0.011531651020050049,0.023793339729309082,0.03518802672624588,0.012890510261058807,0.018189674243330956,-0.22051347748366845,0.21444264927948853,-0.09226072144327731
4.081533908843994,0.023471295833587646,-0.0035012811422348022,0.019064486026763916,0.023420751094818115,0.015889141708612442,0.018580839037895203,-0.22027455394035234,0.21475490493303623,-0.09210667067054013
4.0915937423706055,0.023488864302635193,0.007954835891723633,0.012982308864593506,0.034598302096128464,0.016316313296556473,0.01934916153550148,-0.220043337538583,0.21510928882214522,-0.0919474054386304
4.103808879852295,0.022418662905693054,0.00701536238193512,0.011168241500854492,0.05495865270495415,0.02056516334414482,0.01838829182088375,-0.21963009801510072,0.2155234126826693,-0.09180033407601453
4.111661911010742,0.018836185336112976,0.007154688239097595,0.007687807083129883,0.07626820355653763,0.029671311378479004,0.02078194171190262,-0.21889328423426957,0.21606005925292127,-0.09169725073535702
4.122257947921753,0.01773396134376526,0.009044170379638672,0.004381358623504639,0.0962168499827385,0.029624084010720253,0.02146589569747448,-0.21797377511548827,0.2166751064537181,-0.09160990582834545
4.131749868392944,0.018029898405075073,0.006004497408866882,0.011380612850189209,0.10324599593877792,0.03013967163860798,0.014527030289173126,-0.21697689659196268,0.21726031023876508,-0.09158115050524354
4.1416497230529785,0.016476452350616455,0.0036060363054275513,0.01593315601348877,0.0972677618265152,0.034936290234327316,0.010677216574549675,-0.21596427485657618,0.21788001278504798,-0.09161111733618642
4.153059959411621,0.012401819229125977,0.00027455389499664307,0.01579338312149048,0.08169226348400116,0.038726769387722015,0.012765401974320412,-0.21501663764711687,0.21853854808830464,-0.09162282931206889
4.161594867706299,0.012130305171012878,-0.006123825907707214,0.017141401767730713,0.06335559487342834,0.04334477707743645,0.014258955605328083,-0.21435015690105363,0.21923889288197945,-0.09158612697300313
4.171710968017578,0.011503174901008606,-0.011069893836975098,0.017609775066375732,0.05003659799695015,0.04196206480264664,0.01830962300300598,-0.2139620523134957,0.2199256373075513,-0.0915106609276874
4.181611061096191,0.012227460741996765,-0.009772703051567078,0.015938758850097656,0.03379179909825325,0.040188711136579514,0.02064042165875435,-0.2136964054907426,0.22057728294243237,-0.09136479116999943
4.193727970123291,0.012342885136604309,-0.009569063782691956,0.012917578220367432,0.018702594563364983,0.03907817229628563,0.02583012357354164,-0.21358170779171537,0.22118676939512272,-0.0911580881121641
4.202681064605713,0.011611059308052063,-0.010917723178863525,0.008555710315704346,0.010168477892875671,0.04175487160682678,0.03291615471243858,-0.21358773533834985,0.22181060985074147,-0.09086712396766232
4.21174693107605,0.013520017266273499,-0.009156137704849243,0.0029295682907104492,0.009668069891631603,0.04711208492517471,0.038170572370290756,-0.2136119782980314,0.22254644174470614,-0.09048485886299863
4.221829891204834,0.013809308409690857,-0.00650063157081604,-0.0016309022903442383,0.028824836015701294,0.04429015517234802,0.038453612476587296,-0.21348656754191997,0.22329337542077035,-0.09010930454999144
4.231756925582886,0.015245586633682251,-0.0063396841287612915,-0.0018690824508666992,0.043034400790929794,0.034199438989162445,0.0410027913749218,-0.21311893604230023,0.22389765718750443,-0.08977005425650142
4.242012023925781,0.016561955213546753,-0.005671143531799316,-0.0007921457290649414,0.03729630261659622,0.027848554775118828,0.037759967148303986,-0.21259104456050393,0.22442773506929495,-0.08942428911244818
4.2546608448028564,0.015053555369377136,-0.004352957010269165,0.001194775104522705,0.041637521237134933,0.022066565230488777,0.040836185216903687,-0.21200746663758352,0.22489302348712406,-0.08909421674068856
4.261896848678589,0.015005618333816528,-0.002708449959754944,0.0032888054847717285,0.029186727479100227,0.01332380622625351,0.037501800805330276,-0.21148030984912758,0.22530163912003356,-0.08874813483246481
4.271872043609619,0.014864355325698853,-0.0008579641580581665,0.007076859474182129,0.008393564261496067,0.005659761838614941,0.035991519689559937,-0.21113272677503173,0.22560890847244872,-0.08839325805575296
4.282489776611328,0.010627031326293945,-0.00465826690196991,0.011471688747406006,-0.009842564351856709,0.0019708401523530483,0.036135971546173096,-0.21094637293305155,0.22585107427715226,-0.08801670411142039
4.291924953460693,0.007177561521530151,-0.005075737833976746,0.012061715126037598,-0.020398803055286407,0.0045682210475206375,0.034269098192453384,-0.210920764271908,0.22610703272596494,-0.08760141233542035
4.303149938583374,0.00237429141998291,-0.002044975757598877,0.012372910976409912,-0.020364347845315933,0.004958817735314369,0.03497254103422165,-0.2109734515084326,0.22637843853535788,-0.08717111369458236
4.312044858932495,-0.00025056302547454834,-0.0021871328353881836,0.012560844421386719,-0.013862772844731808,0.009270209819078445,0.03430435433983803,-0.21097837692624025,0.2266993086653296,-0.08674839244561627
4.321846961975098,-0.003009617328643799,-0.0015305876731872559,0.011319220066070557,-0.007670240476727486,0.008451775647699833,0.033146414905786514,-0.2109311311533041,0.22704637605992584,-0.0863509946271003
4.3318190574646,-0.004352301359176636,-0.0023963749408721924,0.01596933603286743,0.0025935822632163763,0.0070112720131874084,0.029412662610411644,-0.2108334506893375,0.22736178247206748,-0.08600125338228344
4.342117786407471,-0.007633104920387268,-0.0035352855920791626,0.017104744911193848,0.008494798094034195,0.013917336240410805,0.027003351598978043,-0.21067179359690028,0.22769029928455237,-0.08569007909318727
4.353476047515869,-0.010477825999259949,0.0010775923728942871,0.01573723554611206,0.008877760730683804,0.015005504712462425,0.02710135653614998,-0.21052653779090988,0.2280744289939842,-0.08540252468284262
4.36273193359375,-0.010115578770637512,-0.0016983449459075928,0.016584157943725586,0.004758765920996666,0.010002534836530685,0.024781210348010063,-0.21036930887906355,0.2283911699266159,-0.08512987092989434
4.3722498416900635,-0.009874910116195679,-0.005374222993850708,0.01831531524658203,0.004252765327692032,0.007981461472809315,0.02176012098789215,-0.2102273560526866,0.22862803468438683,-0.08489083751748058
4.3819169998168945,-0.01208426058292389,0.0015079379081726074,0.016945958137512207,0.013341234996914864,0.006924008950591087,0.017130641266703606,-0.21011769004457842,0.22877945616889198,-0.08471030080216539
4.391849994659424,-0.010281175374984741,0.006244957447052002,0.01253509521484375,0.01734636351466179,0.005143153481185436,0.01129246037453413,-0.2099547336941406,0.2288648178208582,-0.08460567710675052
4.403501033782959,-0.007802441716194153,0.009445711970329285,0.006294131278991699,0.02034732885658741,0.0009151631966233253,0.0019780544098466635,-0.20978678987349347,0.22888136987915786,-0.08458851630211131
4.411833763122559,-0.008983492851257324,0.007200911641120911,0.007258296012878418,0.026616942137479782,-0.0012907334603369236,-0.004252144601196051,-0.20958577403410358,0.22884578475450812,-0.08467100375678534
4.422080039978027,-0.008976221084594727,0.003805607557296753,0.00875699520111084,0.020405152812600136,-0.0025954158045351505,-0.008965087123215199,-0.20937542154336491,0.22874765571840125,-0.0848034663615791
4.431920051574707,-0.006021574139595032,0.008148789405822754,0.0077555179595947266,0.0035659857094287872,-0.0063406191766262054,-0.010075093246996403,-0.20934990734561001,0.22860807984196513,-0.08494803075965167
4.442786931991577,-0.0003317594528198242,0.005848675966262817,0.007054328918457031,-0.009499482810497284,-0.00988981407135725,-0.00987269263714552,-0.20943944986242127,0.22845414975729028,-0.08505461430189047
4.453682899475098,0.0020063668489456177,-0.0006207525730133057,0.005669057369232178,-0.021611006930470467,-0.014345282688736916,-0.005096313543617725,-0.20961073076053113,0.22828271663381458,-0.0850991803775789
4.462112903594971,0.004681035876274109,0.0005044043064117432,0.005955934524536133,-0.02345820888876915,-0.021683622151613235,-0.0028201628010720015,-0.20991123897346095,0.22802072886912836,-0.08510414762153518
4.472161769866943,0.0070699602365493774,0.001200452446937561,0.005507946014404297,-0.020885327830910683,-0.02611432410776615,0.004967718850821257,-0.21026046616021093,0.22772468896377712,-0.08505434241255487
4.482059001922607,0.008043229579925537,0.0009986907243728638,0.004930317401885986,-0.01797301135957241,-0.0263292845338583,0.0106900529935956,-0.210575999202287,0.22742346218743859,-0.08494828897473483
4.492222785949707,0.01000833511352539,-0.0017197579145431519,0.0029930472373962402,-0.01520492136478424,-0.0310265701264143,0.013536705635488033,-0.21084372073840804,0.22710380623448484,-0.08479657600480758
4.505026817321777,0.012740790843963623,-0.003831043839454651,0.006533920764923096,-0.01310969702899456,-0.036139436066150665,0.015165015123784542,-0.211005434026619,0.22674225663462985,-0.08463504475692313
4.512373924255371,0.013238146901130676,-0.0027505606412887573,0.00863426923751831,-0.02140810713171959,-0.03796450048685074,0.02006949484348297,-0.21125808801932933,0.22639289763621145,-0.08442226753402246
4.5224928855896,0.01138131320476532,-0.0005489438772201538,0.010676860809326172,-0.03230223059654236,-0.03414970263838768,0.023285526782274246,-0.21155015025023385,0.22613009576280454,-0.08413290914468327
4.531984806060791,0.008153542876243591,-0.005468100309371948,0.014632761478424072,-0.03659471496939659,-0.031123818829655647,0.024063436314463615,-0.21180582800938888,0.2259431111701194,-0.08379457065233267
4.541970729827881,0.006646022200584412,-0.007316231727600098,0.017284393310546875,-0.048831358551979065,-0.025441830977797508,0.025004277005791664,-0.21216668597334917,0.2258296114966688,-0.08342622395349744
4.552919864654541,0.005466967821121216,-0.00569508969783783,0.01645606756210327,-0.051949918270111084,-0.021133901551365852,0.020444680005311966,-0.21259995295020853,0.22579133522397318,-0.08305417404309536
4.562114953994751,0.0016570687294006348,-0.005567014217376709,0.019222259521484375,-0.05259719863533974,-0.011671069078147411,0.011896837502717972,-0.21307775601413964,0.22581002762482255,-0.08273963067519352
4.572588920593262,-0.0039329975843429565,-0.004733845591545105,0.01869511604309082,-0.05160890147089958,-0.0010037776082754135,0.0018487314227968454,-0.21350550814048636,0.22593304134972925,-0.08251358168384525
4.582066059112549,-0.00447353720664978,-0.0021423548460006714,0.013664543628692627,-0.04827772080898285,0.004839641507714987,-0.004767253063619137,-0.213914023831837,0.22615249889241054,-0.08236874748111583
4.592160940170288,-0.004762217402458191,-0.0020784586668014526,0.00795125961303711,-0.04268854483962059,0.013641122728586197,-0.014456897974014282,-0.21431710448571376,0.22642776154378855,-0.08231393461250469
4.603150844573975,-0.008411481976509094,-0.0017329305410385132,0.007887423038482666,-0.02497842349112034,0.020922381430864334,-0.02260313369333744,-0.21466622086366138,0.22673629900087786,-0.08238775858713285
4.612170934677124,-0.011960729956626892,-0.0023325830698013306,0.010635077953338623,-0.006446817424148321,0.02440020442008972,-0.027567533776164055,-0.21478019763729736,0.2270402161105928,-0.08257402349276509
4.622220993041992,-0.010765671730041504,-0.0031050443649291992,0.0105857253074646,0.0014073771890252829,0.026748578995466232,-0.03248559311032295,-0.21477432279721867,0.22733936430571008,-0.08284968979916518
4.6322548389434814,-0.009461387991905212,-0.0025209635496139526,0.006820201873779297,0.006417315453290939,0.03083067201077938,-0.03349146991968155,-0.21473876689573704,0.227634499780303,-0.08318015221231478
4.642240047454834,-0.010051697492599487,-0.004869177937507629,0.007187068462371826,0.014834851026535034,0.031460024416446686,-0.02954605035483837,-0.21465899723051446,0.22791400589654545,-0.0835136334952272
4.653686046600342,-0.010860249400138855,-0.008929044008255005,0.005192756652832031,0.01716352067887783,0.03141102194786072,-0.024108940735459328,-0.2145350944167126,0.22814803034787767,-0.08382728817444704
4.6622538566589355,-0.0075948238372802734,-0.007578909397125244,0.002413630485534668,0.0252560842782259,0.02838100865483284,-0.019165154546499252,-0.21438701548417274,0.22836495716841226,-0.08410166513095836
4.672384738922119,-0.0052228569984436035,-0.007182419300079346,-0.0038442015647888184,0.032938506454229355,0.026490695774555206,-0.014302222058176994,-0.21413739920163818,0.22853749705180454,-0.08435528028008481
4.68255090713501,-0.0027849525213241577,-0.006176501512527466,-0.009295105934143066,0.03841201961040497,0.018117673695087433,-0.01083473302423954,-0.21384192552146528,0.22862244577192778,-0.08457987841846046
4.693174839019775,-0.0007284730672836304,-0.00670604407787323,-0.007839858531951904,0.043697062879800797,0.00633638259023428,-0.006496177054941654,-0.2134781832609733,0.22859169519419514,-0.08479415446591543
4.703012943267822,0.0006302893161773682,-0.005083337426185608,-0.007393300533294678,0.04443029314279556,-0.003588242456316948,-0.00102492596488446,-0.21306686113606332,0.22847402879093193,-0.08495743210523313
4.712249755859375,0.0009388178586959839,-0.0050222426652908325,-0.006242990493774414,0.03791247308254242,-0.014457667246460915,0.0025692761410027742,-0.21267652709408383,0.22825857269166863,-0.08506546936557333
4.7223968505859375,0.0003576129674911499,-0.009622305631637573,-0.0015459656715393066,0.03487766906619072,-0.029402440413832664,0.0038367812521755695,-0.2122935969204088,0.22793636060927977,-0.08513093498743037
4.732317924499512,0.00031338632106781006,-0.009863033890724182,0.0009968280792236328,0.021486762911081314,-0.040412481874227524,0.00448739156126976,-0.21193112279432555,0.22746802701756463,-0.08516722879077764
4.742501735687256,0.00010314583778381348,-0.005149170756340027,0.0025543570518493652,0.002560010179877281,-0.04737718030810356,0.008229239843785763,-0.21172932552517987,0.2269578147788043,-0.08515058543540745
4.75554895401001,0.0008279383182525635,-0.007099360227584839,0.003225564956665039,-0.018000658601522446,-0.05531952530145645,0.008006865158677101,-0.21171073228222098,0.22642034827939525,-0.0850676750405034
4.763527870178223,0.001273825764656067,-0.010205283761024475,0.00363236665725708,-0.02394784614443779,-0.05835743620991707,0.013354546390473843,-0.21181294725173055,0.22586130636908222,-0.08492020642761391
