timestamp,accel_x,accel_y,accel_z,rotation_x,rotation_y,rotation_z, pitch,roll,yaw
0.05001497268676758,-0.00151018425822258,-0.033496513962745667,0.004213809967041016,-0.008476462215185165,0.002120953518897295,-0.008720217272639275,-0.16000226023403447,-0.0450860155266597,-0.0036152558693042167
0.06297683715820312,-0.002447754144668579,-0.03404562175273895,0.0004665851593017578,-0.007154918275773525,0.0049102152697741985,-0.011384176090359688,-0.1600638689431812,-0.04506411594025001,-0.0037188532529667056
0.06420278549194336,-0.0006270483136177063,-0.03413255512714386,-0.002789735794067383,-0.0047018807381391525,0.0012861855793744326,-0.01359300222247839,-0.1601055535938801,-0.04505392516518223,-0.0038492484811988256
0.07179999351501465,-0.00021825358271598816,-0.031156405806541443,-0.0028231143951416016,-0.0012726117856800556,0.0006476929411292076,-0.011946902610361576,-0.1601202989956367,-0.045066259843137176,-0.003983999361231582
0.07989001274108887,0.00014551356434822083,-0.0326065868139267,-0.00012058019638061523,-0.0004329171497374773,0.0013997694477438927,-0.014374373480677605,-0.16010546047230803,-0.04507915004953805,-0.004120581761512964
0.0883641242980957,-0.0005377456545829773,-0.0347764790058136,-0.00042641162872314453,-0.0037068906240165234,0.00019002845510840416,-0.01382171455770731,-0.16010864938554714,-0.045082606577953196,-0.004249942578593994
0.09845995903015137,0.00018758699297904968,-0.03610658645629883,-0.0021240711212158203,-0.004388393834233284,-0.0015354338102042675,-0.01277056522667408,-0.16012672949031803,-0.045106497679961444,-0.00438414372766894
0.10851287841796875,-3.0100345611572266e-06,-0.04011976718902588,0.001262366771697998,2.027256414294243e-06,-0.0006723031401634216,-0.011420715600252151,-0.16012683397088867,-0.045129842224126505,-0.004504002272088704
0.11849594116210938,-0.002629712224006653,-0.0401613712310791,0.003113687038421631,0.002907535759732127,-0.0015657935291528702,-0.010874766856431961,-0.1600917166591179,-0.045142840995945926,-0.004609698627492043
0.12978601455688477,-0.001446060836315155,-0.03864745795726776,0.002131164073944092,0.004816755652427673,-0.003007895313203335,-0.008532516658306122,-0.16002654963278012,-0.045166677217709054,-0.004712874305577751
0.13860297203063965,0.00018263235688209534,-0.038533106446266174,0.0004423856735229492,0.00013411999680101871,-0.0010549994185566902,-0.00616257032379508,-0.1599879960152733,-0.04519328891936078,-0.00478190305797557
0.14867782592773438,0.0008237287402153015,-0.04053370654582977,-4.190206527709961e-05,0.002925645327195525,-0.000818244181573391,-0.005458963103592396,-0.159958801811023,-0.04520877817540837,-0.0048480870501103656
0.15871810913085938,0.0005900822579860687,-0.042555391788482666,-0.00016868114471435547,0.007112400606274605,-0.00030718371272087097,-0.004624328576028347,-0.15988915441423338,-0.04521891231402166,-0.004899321486921905
0.16873788833618164,0.0013680458068847656,-0.04097932577133179,-0.0007634758949279785,0.008656468242406845,0.0006044162437319756,-0.0028642984107136726,-0.1597919449867028,-0.04521796027659444,-0.004927465820608968
0.1804800033569336,0.001426946371793747,-0.03949709236621857,0.003005385398864746,0.00753021752461791,-0.0012981458567082882,-0.00038622692227363586,-0.15969705973151363,-0.045215108953622046,-0.0049351538664887664
0.18886804580688477,0.0008291378617286682,-0.041045427322387695,0.005522191524505615,0.005545663647353649,0.0030437835957854986,0.0009735829662531614,-0.1596116117052107,-0.04519625943948897,-0.004932475625327635
0.19864392280578613,0.001162748783826828,-0.0421539843082428,0.005466282367706299,0.003815141273662448,0.004432089626789093,-0.00019927311223000288,-0.15841626977592188,-0.0452164169684706,-0.0049422078975402605
0.20867300033569336,-0.0011684820055961609,-0.040347352623939514,0.00458759069442749,0.008733034133911133,0.004793480038642883,-0.002877454273402691,-0.15731306521555896,-0.04519641235098566,-0.004951005694711644
0.21852588653564453,-0.0011998116970062256,-0.034416139125823975,0.004108071327209473,0.012674512341618538,0.010426864959299564,-0.004205040168017149,-0.15620531099963686,-0.04511036019256892,-0.0049764302800399274
0.22982001304626465,-0.0025234483182430267,-0.03024543821811676,0.0037483572959899902,0.02280682511627674,0.018397394567728043,-0.0052978950552642345,-0.15502634778198282,-0.04495134284615255,-0.005011112594483636
0.23859882354736328,-0.005818106234073639,-0.02766488492488861,0.0009494423866271973,0.0323188379406929,0.02577781304717064,-0.008873987011611462,-0.15374279599404547,-0.044727225596561136,-0.0050721640978018834
0.2485659122467041,-0.004618220031261444,-0.025032058358192444,-0.0047904253005981445,0.04209936037659645,0.029528874903917313,-0.01308007724583149,-0.15243748621470735,-0.04444988213573664,-0.005170336698366732
0.2587130069732666,-0.004618708044290543,-0.022541269659996033,-0.00592881441116333,0.04979030415415764,0.029053501784801483,-0.014907538890838623,-0.15116804907529338,-0.04416265716142687,-0.005304166947707345
0.2689199447631836,-0.0023661404848098755,-0.022025510668754578,-0.007411837577819824,0.05539929121732712,0.024328432977199554,-0.022165611386299133,-0.14982843338016744,-0.04393161617840753,-0.005468471615991946
0.2814199924468994,-0.001667797565460205,-0.02011282742023468,-0.009440720081329346,0.057790275663137436,0.01684281975030899,-0.0245619248598814,-0.14843433669116352,-0.043764374431374105,-0.005680186400359707
0.2889719009399414,0.0019956864416599274,-0.018340423703193665,-0.012034296989440918,0.05797697976231575,0.004764273762702942,-0.02955300733447075,-0.14708979005142858,-0.043741561023086864,-0.005943823120113501
0.29878807067871094,0.004366524517536163,-0.019717827439308167,-0.009808599948883057,0.053865328431129456,-0.006785855628550053,-0.02895725890994072,-0.14592170883523167,-0.04384786956579619,-0.00622648430293375
0.308758020401001,0.0044851042330265045,-0.02289193868637085,-0.006159186363220215,0.052930139005184174,-0.015678638592362404,-0.028856059536337852,-0.14488876726481353,-0.04406923409291332,-0.0065023152158356174
0.3188059329986572,0.006211902946233749,-0.02496013045310974,-0.008196473121643066,0.04095656797289848,-0.024691840633749962,-0.02606533281505108,-0.14398736500406042,-0.04442100355155346,-0.006773654873881371
0.33070993423461914,0.008215591311454773,-0.028513476252555847,-0.008669614791870117,0.03294135257601738,-0.03759778290987015,-0.020544065162539482,-0.14321451555800846,-0.04485298260916612,-0.0070021177708082675
0.33896398544311523,0.009200777858495712,-0.030510365962982178,-0.0036846399307250977,0.03191709890961647,-0.046012312173843384,-0.012233938090503216,-0.1425495997073127,-0.04536662150720839,-0.0071629076136054
0.34886789321899414,0.008517146110534668,-0.032865479588508606,0.0022739768028259277,0.027391256764531136,-0.04857417941093445,-0.003661009483039379,-0.14190749879921655,-0.04585924360542592,-0.007226596307797994
0.3588428497314453,0.007355734705924988,-0.033064305782318115,0.0037038326263427734,0.016696535050868988,-0.05050177499651909,0.004815565887838602,-0.14135309713894695,-0.04633215804702698,-0.00720806527643264
0.36883997917175293,0.006311185657978058,-0.03441771864891052,0.0035959482192993164,0.013171409256756306,-0.05090293660759926,0.011200866661965847,-0.14090149397461874,-0.046738711744478814,-0.007110774266235461
0.38075780868530273,0.004647925496101379,-0.038706228137016296,0.007767736911773682,0.016368001699447632,-0.04424796625971794,0.01991472952067852,-0.14042454314479078,-0.047059483717994025,-0.00693144204730543
0.38886594772338867,0.0033866874873638153,-0.03411796689033508,0.00834578275680542,0.025904199108481407,-0.036732569336891174,0.021878916770219803,-0.13981282027815595,-0.04729210662672633,-0.0066963741739757615
0.3989748954772949,0.0025654062628746033,-0.02964673936367035,0.01086968183517456,0.03468757122755051,-0.03273862600326538,0.02355138212442398,-0.1390574055140191,-0.04744406152375611,-0.006421307003361326
0.40894198417663574,0.0008979067206382751,-0.028359130024909973,0.012175142765045166,0.03471558541059494,-0.029934007674455643,0.024683918803930283,-0.13818872225483617,-0.047541935012687934,-0.006135247080657256
0.4204130172729492,0.0030847787857055664,-0.026141956448554993,0.014653503894805908,0.03014426678419113,-0.03033081814646721,0.025543320924043655,-0.13733677016429782,-0.047618340655169636,-0.005850159975185663
0.43087291717529297,0.004669610410928726,-0.02569739520549774,0.015478253364562988,0.022919394075870514,-0.028561459854245186,0.022284889593720436,-0.13651833845121045,-0.047703378786359434,-0.005566300719990506
0.44057798385620117,0.003285735845565796,-0.02774052321910858,0.01848667860031128,0.01332269236445427,-0.025239165872335434,0.016444576904177666,-0.13579290119221313,-0.04779586849427378,-0.0053447916509134314
0.44960999488830566,0.003901127725839615,-0.02980928122997284,0.01721090078353882,0.006884451024234295,-0.02601907029747963,0.017795652151107788,-0.13513959749386978,-0.04792003144900903,-0.005165063428738558
0.4590768814086914,0.004587329924106598,-0.024190887808799744,0.01598423719406128,0.009688759222626686,-0.026591651141643524,0.017316283658146858,-0.13444350139516173,-0.04808463133815981,-0.004966062935577121
0.46918702125549316,0.006489988416433334,-0.02084529399871826,0.013792812824249268,0.010544383898377419,-0.022581063210964203,0.018624749034643173,-0.13388524453154382,-0.04824582391994693,-0.004776239177577362
0.482651948928833,0.004268806427717209,-0.01893545687198639,0.01079326868057251,0.011510312557220459,-0.020838290452957153,0.017082246020436287,-0.13343625277281213,-0.04840370925626464,-0.004594036021398772
0.4894580841064453,0.00358470156788826,-0.01957017183303833,0.010600507259368896,0.015203067101538181,-0.01402019988745451,0.016984134912490845,-0.1329989716757186,-0.048542159309899566,-0.00441655302685972
0.4990410804748535,0.002691958099603653,-0.021391943097114563,0.010224223136901855,0.01782122254371643,-0.011061160825192928,0.019436106085777283,-0.13258935557855064,-0.048608745664256534,-0.004227568490519964
0.5090959072113037,0.0011622235178947449,-0.01741969585418701,0.009560048580169678,0.01647329516708851,-0.005384189076721668,0.017923912033438683,-0.13218411206024874,-0.04861764349318155,-0.004024422141026062
0.5191099643707275,0.0024761930108070374,-0.018958166241645813,0.008211314678192139,0.014359278604388237,-0.006894734688103199,0.01615264266729355,-0.1317658053939107,-0.04861666836304506,-0.0038558460088174667
0.5306100845336914,0.0023493431508541107,-0.022479549050331116,0.007470309734344482,0.009082524105906487,-0.007954495027661324,0.014281505718827248,-0.1313622193496742,-0.048624653995736955,-0.0036867892548342594
0.5391619205474854,0.003710545599460602,-0.019492775201797485,0.0073566436767578125,0.004427052102982998,-0.007320662494748831,0.012694261968135834,-0.1310583670070088,-0.04864131421155909,-0.0035433169288380108
0.5491509437561035,0.0031810887157917023,-0.018752768635749817,0.00970160961151123,-0.004661767277866602,-0.0071628703735768795,0.010971621610224247,-0.13086604180977035,-0.04862931535539477,-0.003416333270939115
0.5591089725494385,0.0029530636966228485,-0.023050710558891296,0.00704801082611084,-0.005638082046061754,-0.003800362814217806,0.009898101910948753,-0.13073783738398462,-0.04862935762090728,-0.0033085228261400153
0.5691218376159668,0.0012489669024944305,-0.02361142635345459,0.008916199207305908,-0.0010043648071587086,-0.000430976040661335,0.011798693798482418,-0.1305800372033601,-0.04860247259230307,-0.0032000324496142254
0.5802268981933594,0.0005833879113197327,-0.019715800881385803,0.008127570152282715,0.004996269475668669,0.004306787624955177,0.009903588332235813,-0.1303291347760746,-0.04854510560247567,-0.0030898035949531943
0.5891470909118652,-0.00039114803075790405,-0.016483724117279053,0.006181180477142334,0.007348007522523403,0.007443369831889868,0.008088057860732079,-0.13007033282661717,-0.04846847229351489,-0.0029971413461201955
0.5991909503936768,-0.0034338384866714478,-0.019204840064048767,0.0026766061782836914,0.01331295631825924,0.00969853438436985,0.005590279586613178,-0.1297214885774372,-0.04835216901475548,-0.0029206299270501165
0.609044075012207,-0.0029343366622924805,-0.020341575145721436,0.0037949681282043457,0.013711164705455303,0.012533202767372131,0.003551736008375883,-0.1292675157728514,-0.04820657801653582,-0.0028670146895773576
0.6193008422851562,-0.004544500261545181,-0.019039005041122437,0.0026529431343078613,0.010402719490230083,0.01698520965874195,0.0027179005555808544,-0.12884645398666753,-0.048011025632582985,-0.0028184293300327463
0.6303629875183105,-0.006079666316509247,-0.020444706082344055,0.003932774066925049,0.010568801313638687,0.0196700319647789,0.0007153629558160901,-0.12846370288299638,-0.04779902882043104,-0.002797063720823339
0.6393299102783203,-0.009244367480278015,-0.023751020431518555,0.004783928394317627,0.01242555771023035,0.023349188268184662,-0.0017145052552223206,-0.12798187481115156,-0.04755883409871973,-0.0027921626483026368
0.6493289470672607,-0.009972989559173584,-0.021740123629570007,0.0023874640464782715,0.01836507022380829,0.01923336088657379,-0.006006615236401558,-0.12746212577736524,-0.047359282960863676,-0.0028282834219006646
0.6591758728027344,-0.007530279457569122,-0.015536174178123474,-0.00041031837463378906,0.025325775146484375,0.017278067767620087,-0.008655395358800888,-0.12696088900945632,-0.047203562120522485,-0.0028930265663473192
0.6692748069763184,-0.007413089275360107,-0.013667464256286621,-0.002355337142944336,0.028808392584323883,0.017976082861423492,-0.013787306845188141,-0.12646148170358296,-0.04707244825360042,-0.0030018159325134997
0.6800949573516846,-0.00932515412569046,-0.013844355940818787,-0.0033311843872070312,0.027903184294700623,0.01904480904340744,-0.014577999711036682,-0.1258861229631785,-0.04697186411402065,-0.003142251973584654
0.6891660690307617,-0.008709251880645752,-0.013613931834697723,-0.0049950480461120605,0.02601899579167366,0.014944606460630894,-0.015658177435398102,-0.12531550393725086,-0.04688169308068805,-0.003292126308095481
0.6991429328918457,-0.005093935877084732,-0.014612250030040741,-0.004153549671173096,0.020448993891477585,0.007524773478507996,-0.013959347270429134,-0.12481455504767147,-0.046862321458903365,-0.0034431053987449057
0.7091450691223145,-0.0035239234566688538,-0.016151994466781616,-0.0036696195602416992,0.016239069402217865,0.0049308547750115395,-0.014250962994992733,-0.12433643413586916,-0.04691943693668989,-0.003575843968227021
0.7193350791931152,-0.0018278583884239197,-0.01879408210515976,-0.0008224248886108398,0.014067445881664753,0.0007143169641494751,-0.008539175614714622,-0.12384670560504348,-0.04704207881040582,-0.003710481272268043
0.730928897857666,-3.915652632713318e-05,-0.01928342878818512,0.0009162425994873047,0.010888180695474148,-0.004780895076692104,-0.003024780424311757,-0.12341724502906193,-0.047212339144945145,-0.003784302690809409
0.7394838333129883,0.0012681372463703156,-0.014723815023899078,0.002259492874145508,0.011869022622704506,-0.010190040804445744,-0.0007613598136231303,-0.12309713813447619,-0.04739016283082661,-0.0038117602812284125
0.749453067779541,0.0026193000376224518,-0.015394613146781921,0.0036130547523498535,0.010968592017889023,-0.01144656352698803,0.0001690421486273408,-0.1228044269332098,-0.04759701033604151,-0.00383374399405596
0.7594208717346191,0.003327634185552597,-0.016242437064647675,0.007112979888916016,0.006201533135026693,-0.016343051567673683,0.003958187997341156,-0.12253635000234722,-0.04784818408063,-0.003821475232380134
0.7695140838623047,0.004103701561689377,-0.01106695830821991,0.009799420833587646,0.0027220468036830425,-0.017095040529966354,0.005604500882327557,-0.12230296818850873,-0.0481063167972939,-0.003788734140622482
0.7810699939727783,0.0027839578688144684,-0.012025818228721619,0.009954094886779785,-0.00012833462096750736,-0.012993506155908108,0.0038521408569067717,-0.12208528188525127,-0.048297561453501614,-0.0037430349464401946
0.7894439697265625,-0.00034148991107940674,-0.014233611524105072,0.011168837547302246,0.004125382751226425,-0.008944036439061165,0.0036259316839277744,-0.12183453928758121,-0.04842182167304781,-0.003709310727065322
0.7995250225067139,-0.000559832900762558,-0.008672475814819336,0.01024860143661499,0.011120441369712353,-0.002254975028336048,0.0028544138185679913,-0.12147398477022185,-0.048476486556227154,-0.0036672769061932777
0.8093409538269043,-0.0013054236769676208,-0.00290650874376297,0.00782918930053711,0.016921738162636757,0.003136594546958804,-0.002049051458016038,-0.12104545629948305,-0.04846067794213863,-0.0036595205159880777
0.8194630146026611,-0.0022408589720726013,-0.0061493366956710815,0.011738300323486328,0.016255149617791176,0.006331855431199074,-0.0028743650764226913,-0.12066919858845726,-0.048392212552334085,-0.0036666344027541727
0.830164909362793,-0.0009878389537334442,-0.006565839052200317,0.012473821640014648,0.012769239023327827,0.006553962826728821,-0.0009762236732058227,-0.12030486716355412,-0.04828417518433124,-0.003672843435109952
0.839573860168457,0.0024044476449489594,-0.005254849791526794,0.010623395442962646,0.00590653857216239,0.006047163158655167,-0.005206655245274305,-0.11999875264535824,-0.0481795579401675,-0.003694908074592455
0.8502109050750732,0.0024490170180797577,-0.008067145943641663,0.009868621826171875,0.0005902859847992659,0.0025129264686256647,-0.009914165362715721,-0.11983440775848003,-0.0481004549659358,-0.0037600738567438187
0.8594498634338379,0.0049929022789001465,-0.010094814002513885,0.010311722755432129,-0.004321115557104349,1.594657078385353e-05,-0.010039866901934147,-0.11970968953786736,-0.04807997774668302,-0.00385460174518776
0.869513988494873,0.005548559129238129,-0.00936897099018097,0.011909663677215576,-0.010236063040792942,0.0020836249459534883,-0.00839999783784151,-0.1196087383985661,-0.04810117024446819,-0.003960101252766949
0.8800358772277832,0.0010074637830257416,-0.010673955082893372,0.01082468032836914,-0.009821941144764423,0.00816388800740242,-0.008089207112789154,-0.11963214890337576,-0.04807660736585134,-0.004046632047294277
0.8895378112792969,-0.0008744262158870697,-0.011968746781349182,0.009177625179290771,0.006408261135220528,0.009085874073207378,-0.003911613021045923,-0.1196452903673486,-0.04802542235423716,-0.004113679799506807
0.8995440006256104,-0.0010120570659637451,-0.009829923510551453,0.008044660091400146,0.019251620396971703,0.016756311058998108,-0.002553933532908559,-0.11945826173459298,-0.047931721592520016,-0.004143235430330474
0.9095478057861328,-0.0004415586590766907,-0.0074711814522743225,0.0046201348304748535,0.022932592779397964,0.017322098836302757,1.5271245501935482e-05,-0.11918804940054631,-0.047782285083355976,-0.004148852303023283
0.9196739196777344,-0.0005411393940448761,-0.009264223277568817,0.003028571605682373,0.020401259884238243,0.01728375069797039,0.0015857373364269733,-0.11891924833032766,-0.04758803480949997,-0.004130671025029817
0.9313430786132812,0.00030669569969177246,-0.014423377811908722,0.00489574670791626,0.006573077291250229,0.015393571928143501,0.0030208081007003784,-0.11869044280738163,-0.04739541352806909,-0.004109754863583907
0.9396460056304932,0.0019684992730617523,-0.017699025571346283,0.0029200315475463867,-0.003558918833732605,0.00810316763818264,0.005310860462486744,-0.11856248327638026,-0.047224054704920644,-0.004061593725689
0.949638843536377,0.0040878355503082275,-0.017365895211696625,0.0036943554878234863,-0.005472932942211628,-2.1692831069231033e-05,0.004181360825896263,-0.11850360040879407,-0.04712976850314219,-0.004022705692426317
0.9596028327941895,0.004938259720802307,-0.016656503081321716,0.0042334794998168945,-0.007199193816632032,-0.006162143312394619,0.008568119257688522,-0.1184499596971547,-0.04715613304360344,-0.003969739011301885
0.9696860313415527,0.005002465099096298,-0.01159762591123581,0.0025606155395507812,-0.005658288486301899,-0.00833794567734003,0.010325539857149124,-0.1183648510936554,-0.04725114930988481,-0.003876108727839439
0.9815769195556641,0.0032314173877239227,-0.012377418577671051,0.002897322177886963,-0.008915334939956665,-0.00893875490874052,0.010091980919241905,-0.11832034814512819,-0.04734216303692065,-0.00377295871429294
0.9897279739379883,0.0011367909610271454,-0.015275463461875916,0.006991744041442871,-0.019140342250466347,-0.012089451774954796,0.015375638380646706,-0.11836531891638112,-0.04744589743834941,-0.0036494151777816826
0.9997599124908447,0.0009588375687599182,-0.014220505952835083,0.007980287075042725,-0.024675454944372177,-0.01488257385790348,0.021214086562395096,-0.1184707707054468,-0.04757476387145771,-0.0034742269485956343
1.009760856628418,0.002209708094596863,-0.013034015893936157,0.009772777557373047,-0.018198631703853607,-0.012495983392000198,0.021547941491007805,-0.11848985827089165,-0.047697585875127145,-0.003270277410429143
1.0198559761047363,0.001098819077014923,-0.014182232320308685,0.009706437587738037,-0.011733807623386383,-0.00698856683447957,0.028224218636751175,-0.11838612185819723,-0.04774616878443277,-0.003030027348808589
1.0313539505004883,-0.0010819584131240845,-0.008885018527507782,0.004219651222229004,-0.0015706195263192058,-0.004901979584246874,0.03181341663002968,-0.11821466723547219,-0.047715674445979954,-0.0027224367950518594
1.0399580001831055,0.0002950914204120636,-0.006731465458869934,0.0050585269927978516,0.002204145072028041,-0.003237237688153982,0.034027036279439926,-0.11798210399331865,-0.04765661970148455,-0.0023840527383734928
1.0499489307403564,0.001037050038576126,-0.00926341861486435,0.007305920124053955,-0.003353655571117997,-0.004380666185170412,0.040345970541238785,-0.11784280200812404,-0.04758852759054397,-0.0020109527387984064
1.0599207878112793,0.002645350992679596,-0.009997665882110596,0.008595824241638184,-0.016791965812444687,-0.007931990548968315,0.041915636509656906,-0.11778318180558983,-0.047563601256809064,-0.0015946651469485654
1.0699667930603027,0.005167186260223389,-0.009992644190788269,0.009702503681182861,-0.027840405702590942,-0.015378233045339584,0.04388435184955597,-0.11782421675326991,-0.047614150883634535,-0.0011716907611515014
1.0804049968719482,0.006169121712446213,-0.009377449750900269,0.008292675018310547,-0.03185033053159714,-0.018917841836810112,0.044043876230716705,-0.11795762752736451,-0.04773278907917981,-0.0007428917129581083
1.089846134185791,0.006641454994678497,-0.007343068718910217,0.006972312927246094,-0.02709781751036644,-0.020048709586262703,0.04484133422374725,-0.11810629440321975,-0.047855996230526096,-0.0003124633217730471
1.1000590324401855,0.0036927051842212677,-0.005255743861198425,0.004498004913330078,-0.02444797195494175,-0.019380521029233932,0.048273615539073944,-0.11820163537709903,-0.047991159614622865,0.00014746493684101114
1.1097168922424316,0.003726087510585785,-0.0016652196645736694,0.002275705337524414,-0.027094421908259392,-0.022178882732987404,0.0479838103055954,-0.11835054686018744,-0.04814873383414351,0.0006136180628479333
1.1199209690093994,0.00474654883146286,-0.0024937763810157776,0.0014638304710388184,-0.02852240763604641,-0.02949219010770321,0.04893961921334267,-0.118554939354551,-0.048348016078937,0.0010851492342427776
1.130082130432129,0.004488363862037659,-0.004551514983177185,0.0032072067260742188,-0.04429927468299866,-0.03320729732513428,0.05314682424068451,-0.11881396029505185,-0.04858151073897608,0.0015851490033192126
1.1399898529052734,0.005032327026128769,-0.0031454265117645264,0.0023102164268493652,-0.05701560527086258,-0.03792455419898033,0.049566470086574554,-0.11919584931920764,-0.048839897202739575,0.0020926690344562743
1.1499969959259033,0.004402767866849899,-0.005112983286380768,0.005578517913818359,-0.06467854976654053,-0.04727340489625931,0.05158701166510582,-0.1196868046729675,-0.049146539879074344,0.002567751593334916
1.1598877906799316,0.0015539489686489105,-0.007686696946620941,0.008575737476348877,-0.0709095448255539,-0.05262076482176781,0.05404724180698395,-0.12025040959164367,-0.04950843625659719,0.0030857909883875863
1.1700239181518555,0.0016735754907131195,-0.0035558417439460754,0.008099019527435303,-0.0762728676199913,-0.053310126066207886,0.0559435710310936,-0.12088489641237694,-0.04989452098582675,0.0036104392394068164
1.180130958557129,0.0006655417382717133,-0.000652700662612915,0.0027907490730285645,-0.08035363256931305,-0.05242302641272545,0.056462619453668594,-0.12158799661727569,-0.050298025568669906,0.004149294697927731
1.1900289058685303,0.00025318562984466553,-0.0031321048736572266,0.0011328458786010742,-0.09130743145942688,-0.04555939510464668,0.06498787552118301,-0.12239492763810506,-0.050672070405542266,0.004710336709116015
1.199934959411621,-0.0011686235666275024,-0.0029311999678611755,0.0018351078033447266,-0.11983947455883026,-0.049852676689624786,0.08033248037099838,-0.12339172399178973,-0.050968070331335276,0.0054077002634168045
1.2099099159240723,0.0018731281161308289,-0.000792190432548523,0.005770862102508545,-0.1301601380109787,-0.08389058709144592,0.07017598301172256,-0.12455756061244251,-0.051458124340571995,0.006113738582250226
1.2198948860168457,0.006984379142522812,-0.007778778672218323,0.01583153009414673,-0.16828462481498718,-0.0928766205906868,0.07865335792303085,-0.12593974323702023,-0.05215969141531861,0.006817878185413233
1.231003999710083,0.01191093772649765,-0.014599338173866272,0.015660345554351807,-0.22468651831150055,-0.12847651541233063,0.05814770981669426,-0.1277547308010707,-0.05309405771459755,0.007405070467963719
1.2400588989257812,0.02236824855208397,-0.009180307388305664,-0.008512735366821289,-0.294393926858902,-0.163899227976799,0.07050105184316635,-0.13018364246037817,-0.054456673394861405,0.007890191503601483
1.2501931190490723,0.031109817326068878,-0.003130003809928894,-0.009917616844177246,-0.3291834592819214,-0.21525512635707855,0.09523515403270721,-0.13319258223168642,-0.05618814958176986,0.008567274098973881
1.2601380348205566,0.035050056874752045,0.013922452926635742,-0.01714646816253662,-0.3407338559627533,-0.26705920696258545,0.10432718694210052,-0.13643320128367742,-0.05840705322518906,0.009404974622445795
1.2702250480651855,0.03853587806224823,0.0210295170545578,-0.0287591814994812,-0.3344539701938629,-0.3445907533168793,0.11178947240114212,-0.1396564927414,-0.061249576885871994,0.010284522745367758
1.2817950248718262,0.03595934808254242,0.016072064638137817,-0.027647852897644043,-0.3361070156097412,-0.40265727043151855,0.1342492401599884,-0.14278350205334714,-0.06476994575242243,0.011337459568832623
1.290205955505371,0.03048616647720337,0.006102621555328369,-0.025425255298614502,-0.36857834458351135,-0.442328542470932,0.1341259479522705,-0.1461196086728648,-0.06868607439212053,0.012473225772001238
1.300032138824463,0.017641931772232056,-0.014322265982627869,-0.030195891857147217,-0.39951732754707336,-0.49159595370292664,0.15641207993030548,-0.14975375396859125,-0.07296592716598453,0.013668995017587428
1.3100390434265137,0.007305562496185303,-0.040236592292785645,-0.036807894706726074,-0.3732851445674896,-0.5597622990608215,0.18734632432460785,-0.15377212325045606,-0.07800629729396089,0.015112849668216598
1.3200020790100098,0.007154054939746857,-0.04637549817562103,-0.03260570764541626,-0.3229692578315735,-0.6292263269424438,0.20689234137535095,-0.15742216229018852,-0.08367883379569617,0.016824622120265545
1.3304619789123535,-0.000672265887260437,-0.05620130896568298,-0.024438023567199707,-0.2121470868587494,-0.734236478805542,0.24459072947502136,-0.1603574576476274,-0.09015877979897279,0.018836058528551754
1.3401141166687012,-0.006395481526851654,-0.05596540868282318,-0.01979619264602661,-0.07387096434831619,-0.8477912545204163,0.2794991731643677,-0.16200448154379984,-0.09766714391325922,0.021372189247634486
1.3505678176879883,-0.0036796778440475464,-0.048228099942207336,-0.0004430413246154785,-0.027359489351511,-0.9385510683059692,0.28943830728530884,-0.16273009436580324,-0.1061809821350018,0.024195154308812025
1.3602070808410645,-0.020588316023349762,-0.06354372203350067,0.011460661888122559,-0.05220065638422966,-1.0150079727172852,0.3224833309650421,-0.16343718175456243,-0.11546543870452608,0.02722609939786015
1.3701858520507812,-0.05145087093114853,-0.10082171857357025,-0.0016338825225830078,-0.10792427510023117,-1.1108156442642212,0.34789609909057617,-0.164644342038991,-0.12554450059721878,0.03052553331761785
1.3804779052734375,-0.06912262737751007,-0.129227876663208,0.004239678382873535,-0.13783371448516846,-1.2259094715118408,0.3776084780693054,-0.16634027577253782,-0.1366586709834701,0.0340041460375959
1.3901591300964355,-0.07652316987514496,-0.13225269317626953,0.022673487663269043,-0.13830310106277466,-1.3893948793411255,0.3997936248779297,-0.16829373343169327,-0.14913540382619875,0.03768578684750505
1.4001398086547852,-0.08218516409397125,-0.12242826819419861,0.044141173362731934,-0.20550930500030518,-1.5097063779830933,0.4292213022708893,-0.17057161012158234,-0.16300191437888406,0.041602124492985296
1.4104127883911133,-0.10296794772148132,-0.1342296451330185,0.05548495054244995,-0.28902480006217957,-1.5400915145874023,0.4960300922393799,-0.17384600488985255,-0.17765205200476403,0.045721456891710456
1.4201719760894775,-0.13881191611289978,-0.159269779920578,0.025532424449920654,-0.425874799489975,-1.5611389875411987,0.6490628123283386,-0.1782635049864866,-0.19216194286120003,0.05076707587418976
1.4309768676757812,-0.14061474800109863,-0.18745772540569305,-0.015719115734100342,-0.6112574338912964,-1.8260159492492676,0.6118131279945374,-0.18464460696665838,-0.20819528004018473,0.05619775603650738
1.4407179355621338,-0.12767083942890167,-0.20545709133148193,-0.00754016637802124,-0.5567691326141357,-1.9003655910491943,0.5806277394294739,-0.19172155212175276,-0.22644113908456123,0.06059783604005945
1.4507288932800293,-0.22145070135593414,-0.2837565839290619,-0.08357638120651245,-0.46619805693626404,-1.9509023427963257,0.6562616229057312,-0.19847872569348451,-0.24480608355529668,0.06540108261826502
1.4602007865905762,-0.32535573840141296,-0.28519415855407715,-0.22360801696777344,-0.03241277113556862,-1.8378077745437622,0.6986817717552185,-0.20234351263083777,-0.26280856963797533,0.0717327648503472
1.470524787902832,-0.3936678469181061,-0.2823718190193176,-0.2709665894508362,0.05469087138772011,-1.7579625844955444,0.6476230025291443,-0.2039175482925421,-0.27931247197637643,0.0782644550116153
1.4819989204406738,-0.3778550922870636,-0.25525256991386414,-0.338869571685791,0.019961386919021606,-1.647923469543457,0.5884574055671692,-0.2051753456670916,-0.295156568248991,0.08461012409680788
1.4905390739440918,-0.3635501563549042,-0.3112049698829651,-0.2629256248474121,0.08917918801307678,-1.5694574117660522,0.45237863063812256,-0.20628045971821796,-0.310309397844829,0.08974234148780502
1.5001640319824219,-0.4097111225128174,-0.3483981788158417,-0.16519707441329956,0.29468095302581787,-1.4549593925476074,0.39235976338386536,-0.20572695063905155,-0.3244609334928282,0.09451811508360324
1.5104899406433105,-0.41384369134902954,-0.2396286576986313,-0.09210360050201416,0.6079717874526978,-1.3561701774597168,0.3768562376499176,-0.20266781007716056,-0.33755955651958,0.09966898528948734
1.5203380584716797,-0.40198594331741333,-0.19565941393375397,-0.04790675640106201,0.8550953269004822,-1.2025641202926636,0.30451253056526184,-0.19688305598976003,-0.3492288064761836,0.10549238220424303
1.5311808586120605,-0.4041781723499298,-0.2337934821844101,-0.023252367973327637,1.1015501022338867,-1.0642852783203125,0.27219831943511963,-0.18858353624907426,-0.35944306454013164,0.11165853875617752
1.5405077934265137,-0.3888390064239502,-0.23701591789722443,0.016243577003479004,1.2495489120483398,-0.9103764295578003,0.26518914103507996,-0.1784677070107314,-0.36806537787691734,0.11853795114883621
1.5515570640563965,-0.3883274793624878,-0.2547411620616913,0.037561655044555664,1.28900146484375,-0.7514020204544067,0.31649351119995117,-0.16751068546533343,-0.3751916023474764,0.12591808600175222
1.5604548454284668,-0.4330764412879944,-0.3133199214935303,0.09471595287322998,1.1909703016281128,-0.5150890946388245,0.47204235196113586,-0.15738306653720427,-0.38022777108548966,0.1342198409585597
1.5706779956817627,-0.44898200035095215,-0.3367963135242462,0.1852434277534485,1.0583614110946655,-0.32496377825737,0.5954107642173767,-0.14886894453548916,-0.38297142770498754,0.14361130780899883
1.5807571411132812,-0.4384329617023468,-0.3429817259311676,0.3387429714202881,1.2908095121383667,-0.13406546413898468,0.9754763245582581,-0.14105637915356428,-0.38383065009766754,0.15490835362346084
1.590649127960205,-0.42091241478919983,-0.2665419578552246,0.5339829325675964,1.199053168296814,0.19760745763778687,0.9838292002677917,-0.13294573408099244,-0.3815246251835134,0.1694879355754106
1.6006031036376953,-0.38598471879959106,-0.23824365437030792,0.4930706024169922,0.7925008535385132,0.42442595958709717,1.0242376327514648,-0.12719714926011294,-0.37676931427069804,0.18217951079995506
1.6105279922485352,-0.4415847361087799,-0.46069812774658203,0.4983857274055481,0.6151939034461975,0.6209793090820312,1.288006067276001,-0.125009626032439,-0.3699572254646225,0.1957233840070843
1.6205058097839355,-0.31660619378089905,-0.46784523129463196,0.4633253812789917,0.6021081805229187,0.898270308971405,1.4765701293945312,-0.12424675628041745,-0.36046369624683,0.21085588967839913
1.63142991065979,-0.2473437786102295,-0.36917638778686523,0.37190812826156616,0.6203569173812866,1.1449891328811646,1.692740797996521,-0.12404129521263728,-0.3481277615347767,0.22801064816301772
1.640671968460083,-0.20544466376304626,-0.36169201135635376,0.3661227226257324,0.6169755458831787,1.4109212160110474,1.9042335748672485,-0.12412592744737608,-0.33295782651817557,0.24722025945600354
1.6507987976074219,-0.10463866591453552,-0.33971700072288513,0.3903766870498657,0.5901884436607361,1.6605708599090576,2.077366352081299,-0.12464638871420676,-0.31506132813190824,0.2683011678162596
1.6606810092926025,-0.0615977942943573,-0.3110564351081848,0.42272859811782837,0.46587395668029785,1.9189904928207397,2.2471001148223877,-0.12607208710664214,-0.2943316987024953,0.29064575762945777
1.672882080078125,-0.0074405670166015625,-0.2900557518005371,0.44903111457824707,0.28631800413131714,2.209428548812866,2.4335579872131348,-0.12894418362151946,-0.2706702714541928,0.3144218827293409
1.6817939281463623,0.07554996013641357,-0.25750553607940674,0.4380927085876465,0.059063032269477844,2.4794139862060547,2.6211323738098145,-0.13374304860008018,-0.24387381164279906,0.3395173320940684
1.6905078887939453,0.16394029557704926,-0.22272305190563202,0.4185490608215332,-0.03850117325782776,2.745697021484375,2.838040828704834,-0.13988098993707918,-0.21411084846490852,0.3663761650599511
1.7005839347839355,0.24044793844223022,-0.20134051144123077,0.39886415004730225,-0.0777902603149414,3.0172507762908936,3.0546553134918213,-0.1462737353454768,-0.1810882097555104,0.39549372531964605
1.7104790210723877,0.32101473212242126,-0.1419353485107422,0.37761634588241577,-0.04298986494541168,3.271080732345581,3.2791552543640137,-0.1520727600294289,-0.14493527605332263,0.4269887682363626
1.7205638885498047,0.3973446786403656,-0.13781696557998657,0.36892127990722656,0.053871165961027145,3.5577924251556396,3.486886739730835,-0.1562435833035641,-0.1055189191486103,0.4610467019735447
1.7309517860412598,0.5088144540786743,-0.12332123517990112,0.3327428102493286,0.1298016756772995,3.8416666984558105,3.643829584121704,-0.1583293800117948,-0.06281786373994547,0.49714250214316075
1.7405869960784912,0.6416361927986145,-0.0791037380695343,0.2743433713912964,0.20875056087970734,4.097950458526611,3.757516384124756,-0.15808466739358787,-0.017078888333258366,0.5347798972635446
1.7505249977111816,0.7833960056304932,-0.01805908977985382,0.21152633428573608,0.13451211154460907,4.285147190093994,3.743734836578369,-0.1559740047921528,0.030872147816105693,0.5728594712655988
1.760571002960205,0.9218281507492065,0.08117833733558655,0.16399532556533813,0.005209506023675203,4.3242340087890625,3.642608642578125,-0.15333904729977488,0.07986414314635107,0.6102017714348474
1.7705810070037842,1.004516839981079,0.1562797725200653,0.09100538492202759,0.12412118911743164,4.179511547088623,3.5483410358428955,-0.1490813514618133,0.1279697504571437,0.6463704853042905
1.780900001525879,1.116302728652954,0.24552293121814728,-0.07831841707229614,0.26427963376045227,3.8195693492889404,3.4202537536621094,-0.14183873203523298,0.17318796602253486,0.6809223726805715
1.79060697555542,1.2205344438552856,0.3058460056781769,-0.30547648668289185,0.18952183425426483,3.251147985458374,3.1931238174438477,-0.1330378318783367,0.21311999262752976,0.7133736603627596
1.8007588386535645,1.1780707836151123,0.3022627830505371,-0.42940831184387207,-0.21304133534431458,2.5480568408966064,2.682204484939575,-0.12624914296580064,0.24598773560875006,0.7424177249341544
1.810718059539795,1.008948564529419,0.41485315561294556,-0.39688974618911743,-0.7463155388832092,1.7657827138900757,1.9485054016113281,-0.12497686686700235,0.2706122524448157,0.7663608600598532
1.8207688331604004,0.768025279045105,0.6028512120246887,-0.3142077922821045,-0.956739604473114,0.9766307473182678,1.2114955186843872,-0.12925885730607897,0.2865631866139226,0.7841220645599778
1.8311219215393066,0.5488389730453491,0.727627694606781,-0.3117164373397827,-0.8286518454551697,0.4182848036289215,0.5782676339149475,-0.1354108292894374,0.2949803375160456,0.7956197012107743
1.8408160209655762,0.40777838230133057,0.7150270342826843,-0.3404797315597534,-0.32075372338294983,0.10131562501192093,0.09190332889556885,-0.14013692695256805,0.2980565647229003,0.8004475798168502
1.8508789539337158,0.24014970660209656,0.5787684917449951,-0.308885395526886,0.31108757853507996,0.05147203803062439,-0.2183932214975357,-0.1404889246156476,0.29859927608937786,0.7996918286824238
1.860745906829834,0.13800248503684998,0.40368884801864624,-0.21729427576065063,0.9450506567955017,0.19478392601013184,-0.3144148290157318,-0.13520531289034232,0.29912010757130014,0.7951293199837158
1.8708949089050293,0.06473571062088013,0.1810707449913025,-0.09423023462295532,1.3904701471328735,0.3779563903808594,-0.22482632100582123,-0.12474872382228237,0.30118770079415363,0.7888693379574847
1.8813071250915527,0.0553320050239563,0.03549432009458542,-0.01180565357208252,1.5041357278823853,0.5124446749687195,-0.04429301619529724,-0.11100419927018043,0.3050139744533636,0.7831343337025887
1.8908429145812988,0.09449818730354309,-0.02609766274690628,0.006888628005981445,1.071707010269165,0.5229120254516602,0.09135450422763824,-0.09838454423317823,0.30989248165748867,0.7793744708820668
1.9008479118347168,0.10633811354637146,-0.03878039866685867,0.07100963592529297,0.36694055795669556,0.42177265882492065,0.15383146703243256,-0.09106068482118507,0.3145812567158663,0.7783505492701855
1.9107789993286133,0.0954635739326477,-0.052589401602745056,0.16498291492462158,-0.2887234091758728,0.2473089098930359,0.20072786509990692,-0.0902790787140409,0.3180672378563998,0.7799532991291017
1.9208009243011475,0.09261128306388855,-0.05116431415081024,0.19193387031555176,-0.7117657661437988,0.11308639496564865,0.21774174273014069,-0.09448715838563664,0.3201961174716587,0.7835935145477059
1.931062936782837,0.09965667128562927,-0.07600706070661545,0.13583707809448242,-0.8946890234947205,0.018839258700609207,0.21468783915042877,-0.10158752701016115,0.3212726584189879,0.7882998983691415
1.9408040046691895,0.10205605626106262,-0.08230884373188019,0.025352835655212402,-0.8269448280334473,-0.018912915140390396,0.1520249843597412,-0.10930549981436835,0.32171867966420525,0.792842265882121
1.9508790969848633,0.08435782790184021,-0.0311894491314888,-0.05050152540206909,-0.6171253323554993,-0.03567875921726227,0.06003732979297638,-0.11590612484510072,0.32181969446150094,0.7961906034152083
1.9610519409179688,0.06085774302482605,0.03031795471906662,-0.06598860025405884,-0.3365943133831024,-0.04363015294075012,-0.03840002790093422,-0.12043987503551411,0.32161202221562085,0.7978181933167312
1.971013069152832,0.05759328603744507,0.05401743948459625,-0.055121660232543945,-0.03425002098083496,-0.04104999825358391,-0.13094423711299896,-0.12245100070122489,0.3211581321506183,0.7975912277057494
1.981165885925293,0.05489379167556763,0.05448039621114731,-0.046571433544158936,0.2068249136209488,-0.03449728712439537,-0.187747061252594,-0.1220921870397563,0.32054265662286757,0.7957396169135337
1.9909439086914062,0.051069170236587524,0.03076733648777008,-0.03542226552963257,0.32077911496162415,-0.025713294744491577,-0.2055301070213318,-0.12014091637269311,0.31990760982874067,0.7929766341504715
2.001047134399414,0.052732884883880615,0.011285752058029175,-0.02111738920211792,0.3283182382583618,-0.011354329995810986,-0.18813754618167877,-0.1176321419748294,0.31937086546943233,0.7900267243350119
2.0108959674835205,0.03889545798301697,-0.016916975378990173,0.0038085579872131348,0.25079840421676636,-0.001209551002830267,-0.14576318860054016,-0.1153629363325453,0.3190217520319504,0.7874770092365526
2.0209851264953613,0.034752994775772095,-0.041873998939991,0.022310912609100342,0.12221994996070862,0.005582574754953384,-0.09103841334581375,-0.11395880702163284,0.3188467083547869,0.7857601086573043
2.0311849117279053,0.03794044256210327,-0.05824846029281616,0.03481435775756836,0.010152565315365791,0.02857932448387146,-0.038820646703243256,-0.1135613034087058,0.3189143322035346,0.7849496008436764
2.0410118103027344,0.029513567686080933,-0.07664702087640762,0.05453842878341675,-0.04521322250366211,0.0526425838470459,0.008125022053718567,-0.11381882341076731,0.3193326833193428,0.7848692141597509
2.051046848297119,0.018535912036895752,-0.09329963475465775,0.04419910907745361,-0.02372284233570099,0.07262729853391647,0.047442495822906494,-0.11410058663935599,0.3199974833232233,0.7852912795410701
2.0609288215637207,0.025155842304229736,-0.0978015586733818,0.015581309795379639,0.03168715536594391,0.08833808451890945,0.06338950246572495,-0.11387079083429769,0.32088126090749347,0.7858072121967108
2.071103096008301,0.02028670907020569,-0.08676129579544067,-0.004051148891448975,0.07509807497262955,0.0918189212679863,0.07798484712839127,-0.11314078535498384,0.3218426211846049,0.786316686428763
2.0812559127807617,0.018806040287017822,-0.07952983677387238,-0.012690186500549316,0.09050127118825912,0.08417139202356339,0.08306722342967987,-0.1120824210665634,0.32279081320917696,0.7868229547280715
2.0910699367523193,0.020407110452651978,-0.06645933538675308,-0.009726524353027344,0.07873289287090302,0.07287852466106415,0.0813191831111908,-0.1109986014418648,0.3236257334849148,0.7873403275667411
2.1009840965270996,0.021593481302261353,-0.04832100123167038,-0.0035519003868103027,0.05299343913793564,0.061556097120046616,0.07249613106250763,-0.11014323681717131,0.32435904437468294,0.7878617025544549
2.111052989959717,0.020343869924545288,-0.03564763069152832,0.0014089345932006836,0.03733210265636444,0.04797046631574631,0.07889282703399658,-0.10932101072801652,0.32505573862801046,0.7884709261295751
2.1210451126098633,0.025805026292800903,-0.03367553651332855,-0.005783736705780029,0.02601713314652443,0.03480726107954979,0.06963515281677246,-0.10854978275821098,0.3256120807040213,0.7890743691219407
2.1311559677124023,0.026565343141555786,-0.023534804582595825,-0.010296225547790527,-0.010003002360463142,0.02171138860285282,0.06801014393568039,-0.10786549963144423,0.32601097100995524,0.7897217634529985
2.141158103942871,0.020287811756134033,-0.007512614130973816,-0.010241985321044922,-0.015313345938920975,0.023429926484823227,0.06764236092567444,-0.10717440143010516,0.32634868689087654,0.7904154422484241
2.151167869567871,0.0074713826179504395,-0.0075358375906944275,0.004293859004974365,-0.007513063959777355,0.028807424008846283,0.0835430845618248,-0.10630768746756354,0.3266888915101314,0.7911811506074552
2.161220073699951,-0.0023511648178100586,-0.014083273708820343,0.009607136249542236,0.04461458697915077,0.04581383988261223,0.08793969452381134,-0.10494346380197271,0.3271053759189564,0.7919442538865942
2.1710360050201416,-0.006962716579437256,-0.017981216311454773,0.0010262727737426758,0.08600100874900818,0.052362728863954544,0.09240458905696869,-0.10323217281469466,0.32769635052044294,0.7925909891250029
2.181185007095337,-0.01082301139831543,-0.008906833827495575,-0.010995626449584961,0.11802791804075241,0.05096776783466339,0.08986499905586243,-0.10147279368708592,0.32836381897018035,0.7931334257058027
2.191065788269043,-0.00571712851524353,-0.012494958937168121,-0.0019278526306152344,0.12152373045682907,0.03623378276824951,0.07620164752006531,-0.09974211772793216,0.3289585342939143,0.7935344970876914
2.2013230323791504,-0.0018463134765625,-0.002688176929950714,0.0017282962799072266,0.07369895279407501,0.004745631944388151,0.06093960627913475,-0.09829004377481741,0.32935200164172806,0.7938756744684893
2.2114758491516113,0.0049266517162323,0.014550097286701202,-0.00022602081298828125,-0.008814467117190361,-0.03241585195064545,0.046097707003355026,-0.09765024973288705,0.32939735126964437,0.7942975138612011
2.2213199138641357,0.009336292743682861,0.022542566061019897,0.01393347978591919,-0.09197646379470825,-0.0553446039557457,0.03406181558966637,-0.09802137245400873,0.32915069381419765,0.7948414727747276
2.231360912322998,0.0062112510204315186,0.02537977695465088,0.02916032075881958,-0.1647147238254547,-0.0632464736700058,0.03938685730099678,-0.09915696687480592,0.3286836070896325,0.7956241012438466
2.241163969039917,0.004550576210021973,0.01683966815471649,0.03940021991729736,-0.23148150742053986,-0.04345971345901489,0.046035170555114746,-0.10073166496565383,0.32821630612224084,0.7966631926170361
2.251357078552246,-0.002733290195465088,0.00028427690267562866,0.051538288593292236,-0.26561057567596436,-0.025206629186868668,0.07622849941253662,-0.10257182697614978,0.3278322789332896,0.79802186285153
2.2611770629882812,-0.004694551229476929,-0.028403282165527344,0.0561031699180603,-0.2651410698890686,0.02370019257068634,0.10020387172698975,-0.10453650441346383,0.3277483082974822,0.7997157291702623
2.2724270820617676,-0.0033077895641326904,-0.04147101193666458,0.0730905532836914,-0.24632525444030762,0.05955970287322998,0.1280340701341629,-0.10638404035905369,0.3283030210362076,0.8016398968121792
2.2812139987945557,-0.009834349155426025,-0.04847462475299835,0.07913726568222046,-0.2083301991224289,0.08720863610506058,0.13391698896884918,-0.10801063619170695,0.32925012727150627,0.8036474849093518
2.2913551330566406,-0.009963452816009521,-0.029869623482227325,0.05572175979614258,-0.17663541436195374,0.08847226202487946,0.12242667376995087,-0.10944891004236766,0.3303821249161854,0.8055053108042183
2.3013699054718018,-0.01625576615333557,-0.007138296961784363,0.02152317762374878,-0.14163587987422943,0.065819151699543,0.09582515805959702,-0.11069670001935442,0.33140947458973413,0.8070825036361361
2.311429023742676,-0.0099315345287323,0.0032175108790397644,0.003650963306427002,-0.11658106744289398,0.031327929347753525,0.055815741419792175,-0.1117763992628706,0.3321092906010739,0.808236923160696
2.3213658332824707,-0.005762308835983276,0.021433547139167786,-0.0015960931777954102,-0.10050942003726959,-0.005432481411844492,0.021636996418237686,-0.11277747733092575,0.33238808234036266,0.8089725753039501
2.3314030170440674,-0.0006912052631378174,0.033989787101745605,-0.011244475841522217,-0.0894002914428711,-0.02642364799976349,-0.011740773916244507,-0.11360851141783898,0.33231766439719806,0.8093247417260685
2.3414759635925293,0.004402428865432739,0.040957652032375336,-0.02175724506378174,-0.09507042914628983,-0.04561438784003258,-0.03107638843357563,-0.11430508255879054,0.33199071013899273,0.8094226604302389
2.352257013320923,0.007717996835708618,0.03756776452064514,-0.022740960121154785,-0.07981327921152115,-0.04901915043592453,-0.03742041066288948,-0.11487583439566895,0.3315863151761259,0.8093818940058242
2.3613758087158203,0.007147014141082764,0.03596068173646927,-0.010982930660247803,-0.05827948823571205,-0.029446247965097427,-0.040264666080474854,-0.11523407473742912,0.3312500079967637,0.8092358552298236
2.3714029788970947,-0.003526240587234497,0.031159132719039917,-0.006215691566467285,-0.036949750036001205,-0.0068278005346655846,-0.03366604447364807,-0.11555165238143635,0.33107556425307966,0.8090448666111273
2.381688117980957,-0.01052635908126831,0.016953662037849426,-0.01606053113937378,-0.015581343322992325,0.014750728383660316,-0.014030559919774532,-0.11579696356904934,0.33104897138610895,0.808891520741409
2.391623020172119,-0.01643526554107666,0.005570843815803528,-0.025202572345733643,-0.001741061802022159,0.026628337800502777,0.0005681968759745359,-0.11587351796420287,0.33121845862222715,0.8088398835296116
2.401517868041992,-0.013727694749832153,0.0027622804045677185,-0.03335893154144287,0.002199085196480155,0.01689634844660759,0.01052815280854702,-0.11598201321023405,0.33144305764090887,0.8088872433142399
2.411470890045166,-0.010366052389144897,0.004069425165653229,-0.03470677137374878,0.0010995655320584774,0.002605205401778221,0.009827581234276295,-0.11611005432591967,0.3315569181267775,0.8089771798286981
2.421496868133545,-0.007815659046173096,0.013877712190151215,-0.030788779258728027,-0.0037676275242120028,-0.019295301288366318,0.004156379960477352,-0.11635899233211217,0.3314833743946499,0.809062454463573
2.432374954223633,-0.0065212249755859375,0.018447063863277435,-0.02885758876800537,0.0024652015417814255,-0.034561071544885635,-0.01078773569315672,-0.11667459407209342,0.3312550878598115,0.809027968553039
2.4415698051452637,-0.0061838626861572266,0.019645199179649353,-0.03248625993728638,0.020075352862477303,-0.0453529991209507,-0.028796562924981117,-0.11721969213969764,0.33091791342276927,0.8088214853613339
2.451641082763672,-0.00813242793083191,0.01989343762397766,-0.02981024980545044,0.05844058468937874,-0.04320613294839859,-0.03964249789714813,-0.11730773850720949,0.3303967852198354,0.808342603321883
2.4616339206695557,-0.011815518140792847,0.015231676399707794,-0.024498820304870605,0.09702286869287491,-0.026317698881030083,-0.041039060801267624,-0.11682398389746466,0.3298474512893766,0.8077054494993647
2.4720540046691895,-0.015067905187606812,0.009385921061038971,-0.012812912464141846,0.11673475056886673,-0.005445264745503664,-0.03455010801553726,-0.11594996329652099,0.3294414483226237,0.8069625882893803
2.483564853668213,-0.02198931574821472,-0.007814355194568634,0.005628705024719238,0.14472323656082153,0.02395443432033062,-0.010315343737602234,-0.11477081554053051,0.32929087960042513,0.8062992540884127
2.4914729595184326,-0.015479207038879395,-0.019844405353069305,0.017322540283203125,0.1735098510980606,0.0530853345990181,0.017939889803528786,-0.11325648186299625,0.3294483441273331,0.8057876942261153
2.5015830993652344,-0.014459371566772461,-0.020810745656490326,0.021163523197174072,0.18743285536766052,0.07493044435977936,0.043205298483371735,-0.11161849303213194,0.32990709440816224,0.8054795958990476
2.5134389400482178,-0.010960191488265991,-0.0216636061668396,0.01487964391708374,0.1789124757051468,0.0797157883644104,0.05524054914712906,-0.11008154625604917,0.33049242215746877,0.8053354774261893
2.5215649604797363,-0.005116134881973267,-0.01783175766468048,0.008618056774139404,0.15486200153827667,0.06985650211572647,0.057444315403699875,-0.10875949475666855,0.3310269060727889,0.8053097299707453
2.531519889831543,0.00021323561668395996,-0.0028923973441123962,0.0067473649978637695,0.0978560522198677,0.047161709517240524,0.03962137550115585,-0.10788360308329245,0.3313793726914744,0.8053386755861941
2.5418479442596436,0.0024032890796661377,0.011410169303417206,0.011222362518310547,0.05859067291021347,0.018898911774158478,0.01849238947033882,-0.10746410590343333,0.3314039086149256,0.8053294645636612
2.5521509647369385,0.00608786940574646,0.007363542914390564,0.014152228832244873,0.038653414696455,-0.012402728199958801,-0.003920508082956076,-0.10728300816621876,0.3311298329547329,0.8052259108167521
2.563416004180908,0.010255008935928345,0.01269308477640152,0.005794644355773926,0.034518323838710785,-0.0398348830640316,-0.030726555734872818,-0.1069871657799185,0.33050069163864254,0.8049121853797546
2.5715129375457764,0.007588118314743042,0.026406340301036835,-0.005239546298980713,0.03248247131705284,-0.06386636197566986,-0.06158290058374405,-0.10657723803418771,0.3297358315301376,0.8043486804573775
2.581666946411133,0.005831480026245117,0.03932937979698181,-0.01809173822402954,0.06646520644426346,-0.0890907570719719,-0.08644270896911621,-0.10608734214684334,0.32876319036255447,0.8034637821983537
2.5922961235046387,0.005121320486068726,0.04499121010303497,-0.023795664310455322,0.09223152697086334,-0.1170852929353714,-0.117307148873806,-0.10533463629930985,0.3275128426699044,0.8022188035020279
2.6016430854797363,0.0031759142875671387,0.04516714811325073,-0.015146315097808838,0.10210172832012177,-0.144223153591156,-0.14526820182800293,-0.10457469220730092,0.326035701784821,0.8006489928434644
2.611632823944092,0.00752606987953186,0.03978098928928375,-0.010942280292510986,0.0896192118525505,-0.16490353643894196,-0.16972337663173676,-0.10419093481093643,0.3244015303731306,0.7988432290997258
2.6216509342193604,0.010869115591049194,0.04441288858652115,-0.010598421096801758,0.06982393562793732,-0.18718594312667847,-0.19546522200107574,-0.10428980268047182,0.3226074178756048,0.7968568410818624
2.6317310333251953,0.00936657190322876,0.04905513674020767,-0.006899356842041016,0.03562333807349205,-0.20707403123378754,-0.22522194683551788,-0.1046237429654053,0.3206375831932679,0.7946913968754908
2.6417760848999023,0.008598536252975464,0.05320661514997482,-0.007959067821502686,-0.008873023092746735,-0.23765882849693298,-0.2536346912384033,-0.10545118219159336,0.3183931056767606,0.792373478485235
2.651844024658203,0.009483277797698975,0.052471667528152466,-0.01167839765548706,-0.046161457896232605,-0.26842769980430603,-0.26600223779678345,-0.10689617733200793,0.3157952388658196,0.789978650881894
2.6640520095825195,0.005770951509475708,0.043348878622055054,-0.006707191467285156,-0.05021132528781891,-0.2784353196620941,-0.28162461519241333,-0.10873594622684347,0.31295968646674066,0.7875243334691636
2.6720199584960938,0.000766068696975708,0.028206326067447662,0.012717485427856445,-0.06494127213954926,-0.28200608491897583,-0.2866870164871216,-0.11084492859213615,0.310083229745753,0.7849934364408626
2.6817989349365234,0.0035456418991088867,0.018248610198497772,0.014122307300567627,-0.10408813506364822,-0.2803986072540283,-0.289120078086853,-0.11318794417087726,0.30723142334155995,0.7825152170927981
2.6916251182556152,0.014980524778366089,0.011973381042480469,0.0050272345542907715,-0.16845646500587463,-0.2852126955986023,-0.30979058146476746,-0.11591045771451666,0.3044569015437789,0.7800896360465603
2.7018990516662598,0.02020290493965149,0.021003209054470062,0.0010145306587219238,-0.2518485486507416,-0.30528971552848816,-0.34848523139953613,-0.11944781024324487,0.3015731300009639,0.7776044383882124
2.713207960128784,0.02527838945388794,0.036305949091911316,0.005244731903076172,-0.323294460773468,-0.34340962767601013,-0.39830881357192993,-0.12330799119587249,0.29800799374229153,0.7748746894516981
2.7218189239501953,0.027932733297348022,0.04027661681175232,0.004969358444213867,-0.3703474700450897,-0.40116798877716064,-0.46076154708862305,-0.12790320657563153,0.293892554393619,0.7717658667196374
2.7320799827575684,0.042972415685653687,0.04416745901107788,-0.005275547504425049,-0.39656779170036316,-0.45757150650024414,-0.5410787463188171,-0.1330280674441956,0.28910305360313077,0.7680434448321825
2.7417831420898438,0.05036136507987976,0.049886852502822876,-0.015694737434387207,-0.4014858603477478,-0.5191360712051392,-0.6294584274291992,-0.1385133510096024,0.28360452384372004,0.7635265091975759
2.7520339488983154,0.06145021319389343,0.05594794452190399,-0.035473644733428955,-0.4143637716770172,-0.5875905156135559,-0.7286136746406555,-0.1443051239670694,0.27730246825737076,0.7580729865779894
2.7630839347839355,0.08339586853981018,0.07303063571453094,-0.052279770374298096,-0.42963698506355286,-0.646538496017456,-0.8324729204177856,-0.1504982114892045,0.2701704859432879,0.7516239467920302
2.7717790603637695,0.09461045265197754,0.08476002514362335,-0.04632532596588135,-0.43742287158966064,-0.6956401467323303,-0.9440819025039673,-0.1570189715789077,0.26228417548006666,0.7441014374308659
2.7819318771362305,0.10036496818065643,0.09789760410785675,-0.03735840320587158,-0.467210054397583,-0.7512304782867432,-1.050335168838501,-0.1639750926459941,0.2536747578252171,0.7354666482077119
2.7919440269470215,0.11080001294612885,0.10619224607944489,-0.02887183427810669,-0.4240511655807495,-0.7804484963417053,-1.1209419965744019,-0.17103811242208447,0.24438369071280033,0.7259011725147064
2.8022549152374268,0.10771848261356354,0.08859047293663025,-0.015451371669769287,-0.3280460834503174,-0.777553915977478,-1.171063780784607,-0.1774454056044708,0.234769998138286,0.7154821028565648
2.8137688636779785,0.09611712396144867,0.07258321344852448,-0.007033407688140869,-0.20783063769340515,-0.76827073097229,-1.2039117813110352,-0.18279706166129836,0.2250473520604714,0.7043302262529856
2.8220269680023193,0.10400600731372833,0.04254154860973358,-0.010316073894500732,-0.11379015445709229,-0.766406238079071,-1.2357594966888428,-0.18701648634879248,0.2152022147876104,0.6925450709714667
2.8324780464172363,0.12473726272583008,0.033403441309928894,-0.026122868061065674,-0.042289599776268005,-0.756197988986969,-1.282059669494629,-0.1904010750381521,0.2052433385395103,0.6801690658131374
2.841996908187866,0.1375410556793213,0.03513522446155548,-0.015485286712646484,-0.0006175239104777575,-0.7441503405570984,-1.337944746017456,-0.19322237817304225,0.19526529840750506,0.6671239044201106
2.8527369499206543,0.12671905755996704,0.022365540266036987,0.0015992522239685059,0.08945272862911224,-0.7648818492889404,-1.3701915740966797,-0.19541318060098464,0.18507369473257093,0.653448487595605
2.8643240928649902,0.1264495700597763,-0.003542691469192505,-0.006373405456542969,0.23203305900096893,-0.778134286403656,-1.3919506072998047,-0.19628311462549886,0.17460104635003185,0.6393048074360176
2.8720569610595703,0.13761234283447266,4.0590763092041016e-05,-0.023914754390716553,0.28362008929252625,-0.7858220338821411,-1.4316444396972656,-0.19606787948862123,0.16391565870242772,0.6246393090105488
2.8820338249206543,0.13063572347164154,0.028425291180610657,-0.028553485870361328,0.25444358587265015,-0.7969551086425781,-1.458134412765503,-0.19567557408182032,0.15306809910055424,0.609620389360443
2.8919169902801514,0.13816514611244202,0.051281750202178955,-0.031666100025177,0.19856064021587372,-0.7884731888771057,-1.4718687534332275,-0.1955834695256908,0.14219122931000686,0.5944867512460997
2.9019339084625244,0.15647727251052856,0.06823582947254181,-0.035027146339416504,0.09254845231771469,-0.7785531878471375,-1.5095186233520508,-0.19612634331118972,0.1314007801237681,0.5792276484130479
2.9137120246887207,0.1631670594215393,0.07797545194625854,-0.021385610103607178,-0.09643299877643585,-0.790518581867218,-1.5637015104293823,-0.19808231278396407,0.12051159501500024,0.5636631974562224
2.921844959259033,0.17978593707084656,0.09752826392650604,-0.008832097053527832,-0.24872800707817078,-0.7948110699653625,-1.6188504695892334,-0.20171898967102714,0.10942016115378783,0.5477373545416606
2.931821823120117,0.19466546177864075,0.09509293735027313,0.014590859413146973,-0.2791232466697693,-0.8101867437362671,-1.6936475038528442,-0.20615355603936444,0.09804584726325556,0.5312047558362917
2.9419779777526855,0.19888359308242798,0.10315333306789398,0.03147685527801514,-0.25620007514953613,-0.8294714689254761,-1.7893394231796265,-0.21045419594940082,0.08623513690713248,0.5137049609474968
2.95190691947937,0.2045002579689026,0.11554232239723206,0.02822577953338623,-0.12208829820156097,-0.8157213926315308,-1.8292378187179565,-0.21395177460145215,0.0741425592547168,0.49537644744457887
2.963329792022705,0.19062811136245728,0.07167454063892365,0.004811346530914307,0.17917753756046295,-0.7809445261955261,-1.8682339191436768,-0.21501243215788246,0.06215440210814881,0.47650168123462266
2.9719390869140625,0.1701466292142868,0.037539735436439514,-0.004914999008178711,0.47192543745040894,-0.7634767889976501,-1.9429559707641602,-0.21279606030852521,0.050261269931970484,0.45680918656716535
2.982089042663574,0.18481919169425964,0.08162923157215118,-0.022649645805358887,0.6842393279075623,-0.7383890151977539,-1.9850897789001465,-0.20787421499847641,0.03849190815655257,0.43644815722514585
2.9919190406799316,0.21598054468631744,0.10666957497596741,-0.016986608505249023,0.7634890675544739,-0.7012609243392944,-2.0527637004852295,-0.20117258529665608,0.027092265626742162,0.4156121399800741
3.0020318031311035,0.2378942221403122,0.10833518207073212,0.016338706016540527,0.6367548108100891,-0.6844979524612427,-2.13797926902771,-0.19452498281624622,0.015962797650980732,0.3940610950859025
3.0129289627075195,0.2676684856414795,0.13944508135318756,0.04392915964126587,0.4355846643447876,-0.6814882159233093,-2.175053596496582,-0.18950691571069248,0.004941965413065217,0.3719960981822557
3.0220260620117188,0.2967979311943054,0.13471567630767822,0.07088011503219604,0.3716549575328827,-0.648033857345581,-2.2057125568389893,-0.18553015076256016,-0.005867769406434214,0.3496725943275458
3.031949043273926,0.28105515241622925,0.12115912139415741,0.11873400211334229,0.3201291561126709,-0.6053164005279541,-2.2219884395599365,-0.18181225778035723,-0.016201443156099723,0.3271559642780902
3.041987895965576,0.24613991379737854,0.14157474040985107,0.13397270441055298,0.3535321056842804,-0.6085670590400696,-2.1884031295776367,-0.17810619720572637,-0.026267268503822754,0.30475612134380003
3.052034854888916,0.2492104023694992,0.10186958312988281,0.12773412466049194,0.5185763835906982,-0.607326090335846,-2.1530768871307373,-0.17311792320219657,-0.03616623237591984,0.2828689043757402
3.0629730224609375,0.2479243129491806,0.08020550012588501,0.13689959049224854,0.616547703742981,-0.6204195022583008,-2.1367220878601074,-0.1664729191348961,-0.045923110807984634,0.26133228570220585
3.0720839500427246,0.2210240662097931,0.10979962348937988,0.11513698101043701,0.5510820746421814,-0.6551589369773865,-2.1042864322662354,-0.15950680866852457,-0.055729082738616216,0.24014324582312319
3.0822479724884033,0.21202076971530914,0.10054399073123932,0.10204881429672241,0.38308268785476685,-0.6626285314559937,-2.072936773300171,-0.1535220422547786,-0.06560683919474071,0.21931942633360318
3.0920779705047607,0.20775219798088074,0.08906550705432892,0.09492254257202148,0.10467398166656494,-0.6259207129478455,-2.0926082134246826,-0.14960528366223302,-0.07519351314351633,0.198467328823662
3.102036952972412,0.17650055885314941,0.10291565954685211,0.11611223220825195,-0.23392938077449799,-0.5698955059051514,-2.099703788757324,-0.1486072087701613,-0.08429714451079175,0.17721807419766947
3.1129040718078613,0.12856292724609375,0.06125403940677643,0.13927531242370605,-0.40297847986221313,-0.5200341939926147,-2.056323289871216,-0.15009372809120786,-0.09293581994359448,0.15595650467695424
3.122128963470459,0.08992228657007217,-0.03711619973182678,0.11401677131652832,-0.454021692276001,-0.41234129667282104,-2.0256595611572266,-0.1524829584340665,-0.10073511761173158,0.1349847837451766
3.1320409774780273,0.07302547991275787,-0.059037938714027405,0.08446395397186279,-0.37147435545921326,-0.3522219955921173,-1.9945029020309448,-0.1545622053666272,-0.10771840864315042,0.11427049530056585
3.142642021179199,0.07292044907808304,-0.038390278816223145,0.0917394757270813,-0.18422937393188477,-0.2620159387588501,-1.9463316202163696,-0.15523918313166074,-0.11391652514721655,0.09409665786123522
3.1522650718688965,0.0547218844294548,-0.04115213453769684,0.11031979322433472,-0.021245837211608887,-0.10725555568933487,-1.887718677520752,-0.15394198961375763,-0.11874916904640773,0.07469775332779502
3.1657660007476807,0.03432498872280121,-0.03211960196495056,0.09168905019760132,0.01146843284368515,-0.0002763797529041767,-1.840322732925415,-0.15173493108135513,-0.12207130816582254,0.05595128070509682
3.172177791595459,0.038568317890167236,-0.051180437207221985,0.0924522876739502,0.06393180787563324,0.035639189183712006,-1.7803430557250977,-0.14916023996798108,-0.12459028890697499,0.037773362266808094
3.182671070098877,0.05289030075073242,-0.11278948187828064,0.10593891143798828,0.1419549584388733,0.060542408376932144,-1.7010141611099243,-0.145930111018568,-0.12668483127177388,0.02041499010754479
3.192183017730713,0.04574498534202576,-0.13641785085201263,0.1062285304069519,0.17100004851818085,0.11311742663383484,-1.625045657157898,-0.14225291032422657,-0.1281822006203766,0.003939686693780814
3.202681064605713,0.0076620131731033325,-0.12522999942302704,0.15251290798187256,0.1404338777065277,0.19401147961616516,-1.5422176122665405,-0.13864363465386548,-0.12884957556626395,-0.011746635066844684
3.213009834289551,-0.0380094051361084,-0.13948023319244385,0.21336501836776733,0.02215699851512909,0.3126094341278076,-1.4412745237350464,-0.1358232906512251,-0.12837795721055206,-0.026586046829277267
3.22278094291687,-0.06196624040603638,-0.1551653891801834,0.22265738248825073,-0.23443271219730377,0.43287885189056396,-1.3335081338882446,-0.1350832104053811,-0.12650137375118828,-0.04062658623057835
3.2347419261932373,-0.05712570250034332,-0.17010043561458588,0.21671152114868164,-0.5745724439620972,0.5294347405433655,-1.2370500564575195,-0.13746711232315467,-0.1234880555016705,-0.054006615877649926
3.24224591255188,-0.03770765662193298,-0.21015730500221252,0.229275643825531,-0.9163521528244019,0.641325831413269,-1.1530859470367432,-0.14341817844868915,-0.11947013848961116,-0.06690718799125311
3.252358913421631,-0.020545057952404022,-0.21140435338020325,0.21732795238494873,-1.237693428993225,0.7534606456756592,-1.0637131929397583,-0.1529175339039528,-0.11427377871412316,-0.07932259252116154
3.263201951980591,-0.002008497714996338,-0.16543979942798615,0.17866575717926025,-1.4028173685073853,0.8160438537597656,-0.9938800930976868,-0.16504358288581208,-0.10825246471786704,-0.0911849798206718
3.2723498344421387,0.01728428155183792,-0.1679358035326004,0.14425897598266602,-1.3531811237335205,0.8615391850471497,-0.9366064071655273,-0.17787492900774193,-0.101780936062511,-0.10242403985890335
3.2823469638824463,0.012663304805755615,-0.21760188043117523,0.06593072414398193,-1.049559235572815,0.8921151757240295,-0.8537170886993408,-0.18917180630313876,-0.09480090467029231,-0.11272251119566444
3.2924270629882812,0.00416574627161026,-0.23941397666931152,-0.012650132179260254,-0.5836740136146545,0.9138835072517395,-0.8090993165969849,-0.19653298561810337,-0.08759633413992829,-0.12187922614845922
3.302544116973877,-0.010847203433513641,-0.20560996234416962,-0.06060868501663208,-0.17346946895122528,0.9562519788742065,-0.7975782155990601,-0.19960856225539514,-0.07987219004246536,-0.13037509425181615
3.3136699199676514,-0.04008449614048004,-0.14367908239364624,-0.08916318416595459,0.13206829130649567,0.975881814956665,-0.747027575969696,-0.19913062197040574,-0.07176072604736229,-0.13824977987888473
3.3225769996643066,-0.05308094993233681,-0.15760213136672974,-0.09364169836044312,0.24295273423194885,1.0039036273956299,-0.7049791812896729,-0.1966633562583305,-0.06327720774440355,-0.1455054784436072
3.332695960998535,-0.04958973824977875,-0.1746392697095871,-0.08658772706985474,0.24359990656375885,1.0274420976638794,-0.6625828146934509,-0.1937632122806272,-0.05442130917713485,-0.15231991710096704
3.3427438735961914,-0.056294996291399,-0.1913701444864273,-0.05010247230529785,0.13505718111991882,1.0641380548477173,-0.6088884472846985,-0.1914852656299902,-0.045193063119031214,-0.15870962059658802
3.352808952331543,-0.06689581274986267,-0.20694401860237122,-0.019090771675109863,-0.00656244857236743,1.1094541549682617,-0.5557976365089417,-0.190593945157611,-0.035437721584783324,-0.16459894430046973
3.3634448051452637,-0.07123728841543198,-0.1805000752210617,-0.002892911434173584,-0.20907534658908844,1.1625362634658813,-0.5219288468360901,-0.19152597287006906,-0.025095117390610478,-0.1701266273266163
3.3725509643554688,-0.06493604928255081,-0.1514403223991394,-0.002023935317993164,-0.3951798975467682,1.171453595161438,-0.4989570379257202,-0.1944417435292982,-0.014391397980794975,-0.17538457319580555
3.38267183303833,-0.05510719120502472,-0.1584377884864807,-0.0016137957572937012,-0.5991820096969604,1.1762946844100952,-0.49667203426361084,-0.1993832138503605,-0.0036348526759229617,-0.18047980278161938
3.3925979137420654,-0.050769686698913574,-0.16278839111328125,0.0020984411239624023,-0.8067072629928589,1.2151142358779907,-0.5224443078041077,-0.20645772714083463,0.007284333448074321,-0.1856797142624789
3.4027059078216553,-0.062146082520484924,-0.1482420116662979,0.021137773990631104,-0.9324507713317871,1.2328213453292847,-0.551102340221405,-0.2152850023578778,0.01841324504302978,-0.19106389587650213
3.4144248962402344,-0.08016138523817062,-0.157781183719635,0.049806833267211914,-1.0823482275009155,1.2682063579559326,-0.5891394019126892,-0.22546720136503812,0.02967779218798545,-0.19665356346350915
3.4228289127349854,-0.093528613448143,-0.15574967861175537,0.07311075925827026,-1.1798876523971558,1.3200931549072266,-0.5940260291099548,-0.23708115584823597,0.04133636329954127,-0.20237790491795907
3.434084892272949,-0.10794073343276978,-0.14314109086990356,0.08735376596450806,-1.2478963136672974,1.3936361074447632,-0.5541871190071106,-0.24948071832643176,0.05361035438107787,-0.20770039498713427
3.442701816558838,-0.11171436309814453,-0.12920883297920227,0.06599193811416626,-1.2395670413970947,1.4642932415008545,-0.5355069637298584,-0.2622869444867353,0.06671094219617503,-0.21254116585121424
3.452752113342285,-0.11136362701654434,-0.08561015129089355,0.025581777095794678,-1.1304504871368408,1.4928832054138184,-0.5119305849075317,-0.2745789655291786,0.08033764276261744,-0.21706953925644165
3.46347713470459,-0.10587472468614578,-0.07129496335983276,-0.020870983600616455,-0.923557698726654,1.4855999946594238,-0.48879992961883545,-0.2853251581726112,0.0940956477863262,-0.22131880252828667
3.4728639125823975,-0.08541156351566315,-0.06544739007949829,-0.08677792549133301,-0.6291822195053101,1.4586788415908813,-0.48432525992393494,-0.29358463630331433,0.10762564526515193,-0.22555197310702138
3.4831748008728027,-0.06895355880260468,-0.05005532503128052,-0.15585780143737793,-0.3152836859226227,1.4059703350067139,-0.49277573823928833,-0.2988535678313356,0.1206631794142737,-0.23006288113181
3.4928979873657227,-0.05943472683429718,-0.022003203630447388,-0.21507197618484497,-0.03698515146970749,1.3269535303115845,-0.48829761147499084,-0.3011787214187185,0.1329143720871347,-0.23495701010748452
3.502835988998413,-0.05247727036476135,-0.006094306707382202,-0.23894333839416504,0.1529879868030548,1.2244884967803955,-0.44951266050338745,-0.3011690633787211,0.1442074135662011,-0.23994646334836894
3.5138988494873047,-0.0460820198059082,-0.002288222312927246,-0.23531430959701538,0.21548062562942505,1.1061443090438843,-0.3955690860748291,-0.29993202304006616,0.15450302073554797,-0.24462479751884406
3.522883892059326,-0.043123602867126465,-0.00455242395401001,-0.20507895946502686,0.15703116357326508,0.9838526844978333,-0.3327251374721527,-0.29859685542072234,0.16377060129920842,-0.24872304101810655
3.5331530570983887,-0.046420350670814514,-0.03697025775909424,-0.16743844747543335,0.021915264427661896,0.849724292755127,-0.26468798518180847,-0.29817437412622444,0.17200735587749666,-0.2519739974419482
3.5429959297180176,-0.047580137848854065,-0.08123940229415894,-0.13621705770492554,-0.15556365251541138,0.7009822130203247,-0.19313548505306244,-0.29923163715135886,0.17911878668423123,-0.2542082742051776
3.5532350540161133,-0.03951247036457062,-0.10880458354949951,-0.11990666389465332,-0.3314582407474518,0.5634856224060059,-0.12709255516529083,-0.30192357865326547,0.18509215317071148,-0.2553884802055294
3.5635437965393066,-0.029329150915145874,-0.11256194114685059,-0.12175852060317993,-0.48269808292388916,0.4439811110496521,-0.06940475851297379,-0.30614943574276055,0.19005830882901734,-0.2555925338920454
3.572925090789795,-0.030048087239265442,-0.11079064011573792,-0.12861281633377075,-0.5455612540245056,0.3369556665420532,-0.006159533746540546,-0.3113373334143302,0.19415111235616328,-0.25493295719343917
3.5829148292541504,-0.03534616529941559,-0.11013156175613403,-0.1333896517753601,-0.5260759592056274,0.2519496977329254,0.05583646148443222,-0.316596335998559,0.19750280332151363,-0.25356622968091824
3.5929689407348633,-0.04182256758213043,-0.09322032332420349,-0.13410747051239014,-0.45707181096076965,0.1823793202638626,0.11004148423671722,-0.3212677603767889,0.20026333452532394,-0.25167514699144544
3.602966785430908,-0.048170462250709534,-0.06792476773262024,-0.12777304649353027,-0.3801797032356262,0.1110401600599289,0.15915176272392273,-0.32511741586976584,0.20246479810462747,-0.2493887568183475
3.6135120391845703,-0.051246583461761475,-0.05630314350128174,-0.11370456218719482,-0.31730329990386963,0.0499318428337574,0.19983501732349396,-0.32815210393696725,0.20410118338093078,-0.24678303338553595
3.6229569911956787,-0.05323338508605957,-0.051763325929641724,-0.09392505884170532,-0.2698444128036499,-0.00222989683970809,0.23152050375938416,-0.3306109336294977,0.20526724633444624,-0.2439125254712915
3.632856845855713,-0.05916941165924072,-0.048640429973602295,-0.0701606273651123,-0.20885694026947021,-0.04858186095952988,0.26158663630485535,-0.3324399070553167,0.20600889356582117,-0.24082194513154098
3.6434168815612793,-0.06549951434135437,-0.04606708884239197,-0.04963719844818115,-0.16965734958648682,-0.06840643286705017,0.2627922594547272,-0.33373732729118166,0.206463240819974,-0.23766989798891958
3.653096914291382,-0.06871691346168518,-0.036084651947021484,-0.04545760154724121,-0.14311832189559937,-0.10733781009912491,0.2605127990245819,-0.3347515709322332,0.2066006487873203,-0.23461228204276205
3.664393901824951,-0.06471700966358185,-0.03395923972129822,-0.03487426042556763,-0.10433418303728104,-0.1439376175403595,0.2592661678791046,-0.3354254350961207,0.20630083565585855,-0.23163976401829747
3.67311692237854,-0.06335529685020447,-0.03737610578536987,-0.022551119327545166,-0.08029025048017502,-0.15695875883102417,0.2505694329738617,-0.3357960042225863,0.20571304130769072,-0.22878869560608806
3.683032989501953,-0.06611934304237366,-0.03341743350028992,-0.01977837085723877,-0.06461754441261292,-0.1737595796585083,0.24734698235988617,-0.3360152284995838,0.20497194804696503,-0.22605867430455523
3.6930150985717773,-0.06320755183696747,-0.028306126594543457,-0.01784414052963257,-0.053742244839668274,-0.19363611936569214,0.23794233798980713,-0.3360802861440295,0.20400562330415464,-0.22341095811217718
3.703153133392334,-0.05551286041736603,-0.03016042709350586,-0.008557617664337158,-0.02098696120083332,-0.20284000039100647,0.23308447003364563,-0.3359756229913247,0.2028547597652852,-0.22087233538120007
3.7142910957336426,-0.05360978841781616,-0.025941669940948486,0.0034780502319335938,-0.006678296253085136,-0.20485548675060272,0.23122191429138184,-0.33562847022061904,0.20161370976948892,-0.2184401271656769
3.7233338356018066,-0.0537988543510437,-0.020663917064666748,0.007998228073120117,0.00885352585464716,-0.20883317291736603,0.22372138500213623,-0.3351455567433191,0.20031606233320623,-0.21608208391616124
3.734365940093994,-0.04913553595542908,-0.017315030097961426,0.01400601863861084,0.002529599703848362,-0.2087976187467575,0.22127516567707062,-0.3346532628415184,0.19898551160997335,-0.2137889348525613
3.7431178092956543,-0.0456194132566452,-0.02483096718788147,0.019529104232788086,-0.02171049267053604,-0.1994430124759674,0.2226613461971283,-0.33430695234445434,0.19770194173901406,-0.21147997964786158
3.7532191276550293,-0.04268518090248108,-0.03172624111175537,0.0224609375,-0.05720190703868866,-0.19071875512599945,0.2159845381975174,-0.3342567217219214,0.1965405171127732,-0.20912058088272334
3.7634658813476562,-0.037035584449768066,-0.03460806608200073,0.021041929721832275,-0.10470231622457504,-0.18960928916931152,0.22114787995815277,-0.33460988607639447,0.195424363179394,-0.20667763822144095
3.773103952407837,-0.03130345046520233,-0.0399591326713562,0.020623743534088135,-0.16115549206733704,-0.18809913098812103,0.2139073759317398,-0.3355096405203027,0.19437189483251163,-0.20415124153608075
3.7831900119781494,-0.02837657928466797,-0.04576754570007324,0.020307183265686035,-0.20691019296646118,-0.18005745112895966,0.20390693843364716,-0.33691039578944826,0.19336738815046559,-0.20159969696559799
3.7931528091430664,-0.02811776101589203,-0.05265405774116516,0.020826637744903564,-0.2376842349767685,-0.1806785613298416,0.195846825838089,-0.3387106700207795,0.19240395714410657,-0.19908753474063454
3.803226947784424,-0.023377731442451477,-0.04922524094581604,0.014803767204284668,-0.24834007024765015,-0.1788441687822342,0.19424733519554138,-0.34075451510229665,0.1914621091440126,-0.19655349626681934
3.813884973526001,-0.016185611486434937,-0.03760939836502075,0.0029984712600708008,-0.24144573509693146,-0.16819661855697632,0.1926136016845703,-0.34280717528163873,0.19055842120957267,-0.1940246662838486
3.8233370780944824,-0.012484297156333923,-0.033643633127212524,-0.012091755867004395,-0.19929614663124084,-0.1648668795824051,0.19307512044906616,-0.3446401718519732,0.18971807194023502,-0.1915686543606187
3.8332719802856445,-0.0075106024742126465,-0.03061816096305847,-0.02317112684249878,-0.13363158702850342,-0.16530373692512512,0.18254715204238892,-0.34593295626279685,0.18885026134912866,-0.18927720135258203
3.843240976333618,-0.0026448220014572144,-0.02144646644592285,-0.03081953525543213,-0.0674818605184555,-0.16277186572551727,0.16863399744033813,-0.34658057971558887,0.1879058920268315,-0.18723477401710745
3.85367488861084,0.0014407038688659668,-0.00893491506576538,-0.034395039081573486,-0.015626518055796623,-0.16525773704051971,0.1566629856824875,-0.3466786081864181,0.18687645672258196,-0.1854499035053645
3.8633980751037598,0.002757832407951355,-0.00975850224494934,-0.03127342462539673,0.004743202589452267,-0.16635416448116302,0.1488732397556305,-0.34641863978945464,0.18574738441102512,-0.1838373683412953
3.8733699321746826,0.0015649348497390747,-0.012691468000411987,-0.02565896511077881,-0.009873690083622932,-0.1587192416191101,0.1319785714149475,-0.3461788011458016,0.1846283361934387,-0.18235374567214818
3.883288860321045,0.001028314232826233,-0.01077181100845337,-0.021907687187194824,-0.026209520176053047,-0.15684570372104645,0.10889962315559387,-0.3461332750949348,0.18348957649454609,-0.1810683432185917
3.8931689262390137,0.002495706081390381,-0.016992896795272827,-0.015606522560119629,-0.05854305997490883,-0.15383464097976685,0.09279458224773407,-0.34637181811188905,0.18231497937559069,-0.1799130556270329
3.9034199714660645,0.009063437581062317,-0.019667863845825195,-0.017157435417175293,-0.06629658490419388,-0.14730004966259003,0.06607828289270401,-0.34686350217598994,0.18113647827392992,-0.17896181454194515
3.914796829223633,0.01157456636428833,-0.016613483428955078,-0.01605457067489624,-0.05364926531910896,-0.13982518017292023,0.04859665781259537,-0.34736370690461726,0.1799395001382864,-0.1782360083880739
3.9232499599456787,0.01186150312423706,-0.009705573320388794,-0.014584183692932129,-0.026414183899760246,-0.12544703483581543,0.020246773958206177,-0.3477091343734776,0.178761389206428,-0.17779696968942396
3.9332849979400635,0.011715233325958252,-0.0012994110584259033,-0.016163170337677002,0.0014607070479542017,-0.1126893013715744,0.0047845132648944855,-0.34724001858521464,0.17773455012688838,-0.1776177295758174
3.943248987197876,0.009037628769874573,-0.0024985969066619873,-0.011823952198028564,0.029041733592748642,-0.09605678915977478,-0.009413330815732479,-0.34643835655926936,0.176833414688587,-0.17758710956061638
3.95320200920105,0.008060425519943237,-0.004556179046630859,-0.005372822284698486,0.048616282641887665,-0.07237795740365982,-0.029150869697332382,-0.3454140136325979,0.1760598280487295,-0.17782615964885082
3.9633851051330566,0.006714046001434326,-0.004628390073776245,0.0015166401863098145,0.06440829485654831,-0.059173740446567535,-0.05187881737947464,-0.3444530504228709,0.17536019936329994,-0.17831356264748033
3.9732680320739746,0.007167637348175049,-0.005628526210784912,0.014322459697723389,0.06406295299530029,-0.04094617813825607,-0.06312135607004166,-0.3433921604870101,0.17478723977864052,-0.17897135701676659
3.9836068153381348,0.007230788469314575,-0.010494440793991089,0.021389007568359375,0.052646245807409286,-0.015968656167387962,-0.07457241415977478,-0.3423049183628453,0.17455196070862872,-0.17969517951564348
3.993288993835449,0.006627976894378662,-0.010556042194366455,0.019832193851470947,0.036107853055000305,-0.0037040901370346546,-0.07099328935146332,-0.34147951854917996,0.17454136904695633,-0.18042902677373904
4.003379821777344,0.004634171724319458,-0.013931572437286377,0.022063136100769043,0.03041747398674488,0.010067116469144821,-0.0705898180603981,-0.34101347264976617,0.17462177920433272,-0.18110133967518802
4.01370906829834,0.00628991425037384,-0.020987987518310547,0.025621533393859863,0.028590895235538483,0.015277191065251827,-0.05913609266281128,-0.34079406666517764,0.17476404729136313,-0.1817647656075092
4.023343086242676,0.007298275828361511,-0.01797845959663391,0.022075951099395752,0.03992956876754761,0.02002214640378952,-0.05208989977836609,-0.3404989170828589,0.17492502803834262,-0.18233850923147887
4.033529996871948,0.007241666316986084,-0.012433648109436035,0.01897275447845459,0.04251118749380112,0.02809964492917061,-0.03750717639923096,-0.34012038942636663,0.17515957452182906,-0.18282795433927426
4.043478965759277,0.00457996129989624,-0.015198737382888794,0.01454383134841919,0.04002406448125839,0.026994433254003525,-0.02784602716565132,-0.3397515471884434,0.17545593808895996,-0.18319386016160227
4.053479909896851,0.003037184476852417,-0.020229876041412354,0.015151262283325195,0.037524037063121796,0.01824279874563217,-0.010341016575694084,-0.3394557601951866,0.17578433349769576,-0.18340383155085582
4.064405918121338,0.0037542134523391724,-0.023708075284957886,0.01691412925720215,0.030408333986997604,0.009577937424182892,0.00918261706829071,-0.33908272710205883,0.17610620992825549,-0.18341371124988678
4.073499917984009,0.003230080008506775,-0.019758135080337524,0.015664339065551758,0.028117667883634567,-0.005102870985865593,0.030997902154922485,-0.33872900782150334,0.17633624461835412,-0.18320767491502996
4.083579063415527,0.0011801719665527344,-0.01936507225036621,0.015111923217773438,0.03794499859213829,-0.020800873637199402,0.0564609169960022,-0.3382637833193535,0.17644414228402916,-0.18279587937366396
4.093508958816528,-0.0037612468004226685,-0.02241736650466919,0.013220548629760742,0.04305337369441986,-0.028104860335588455,0.07066313177347183,-0.33761737629133937,0.17651602253594809,-0.1821592581499567
4.103833913803101,-0.0054151564836502075,-0.014371484518051147,0.006069540977478027,0.052098266780376434,-0.05076463147997856,0.08377387374639511,-0.3369173181572102,0.1764786451884396,-0.18140654489068628
4.113708972930908,-0.003664836287498474,-0.009113699197769165,0.000708162784576416,0.057057756930589676,-0.07635054737329483,0.0970490351319313,-0.3361805972208013,0.1762076173696603,-0.18052837355159182
4.1235151290893555,-0.0036167949438095093,-0.007162600755691528,0.0011296272277832031,0.043139807879924774,-0.09209489077329636,0.10513226687908173,-0.3354069756502685,0.17573038092859963,-0.17953392238141247
4.133548974990845,-0.005423605442047119,-0.00013828277587890625,0.0007650256156921387,0.031977005302906036,-0.10798153281211853,0.10962431877851486,-0.3347227560173641,0.17512056672054777,-0.1784575655390661
4.143444061279297,-0.009311571717262268,-0.002070784568786621,0.0015294551849365234,0.016985803842544556,-0.11992102116346359,0.1140369102358818,-0.3341194252432391,0.17444056141426412,-0.17730557381935505
4.153671979904175,-0.008859708905220032,-0.005555689334869385,0.0040898919105529785,0.010922202840447426,-0.13736237585544586,0.12418195605278015,-0.33364113786581234,0.17363062561174436,-0.176050555563519
4.164346933364868,-0.007016286253929138,0.0024177730083465576,0.002791762351989746,0.00802894402295351,-0.14384450018405914,0.12687894701957703,-0.3331962708272989,0.17273793511954938,-0.1747528340815928
4.173688888549805,-0.005366191267967224,0.00715327262878418,-8.422136306762695e-05,0.016153650358319283,-0.1438375860452652,0.12062307447195053,-0.3326256229225401,0.17175081185897706,-0.1734527607514101
4.183837890625,-0.005504176020622253,0.004839807748794556,-0.00045412778854370117,0.023865098133683205,-0.14674709737300873,0.12100204080343246,-0.33207057374282556,0.17070271777583612,-0.17222819169755807
4.19373083114624,-0.0048249512910842896,0.005535513162612915,0.005443155765533447,0.024729544296860695,-0.14737962186336517,0.11584445834159851,-0.3315284194302989,0.16964692841742088,-0.17102311212105395
4.203796863555908,-0.0032975077629089355,0.00668179988861084,0.015406191349029541,0.019856492057442665,-0.14636017382144928,0.10714870691299438,-0.33105847571347313,0.1685863437622203,-0.16989811416295758
4.21412992477417,-0.0019633322954177856,0.006352066993713379,0.017493784427642822,0.016221843659877777,-0.14435917139053345,0.10637691617012024,-0.33079403679321184,0.16750008241705722,-0.16879906833281363
4.223628997802734,0.0005439519882202148,0.009159833192825317,0.019775569438934326,0.0038083165418356657,-0.13125160336494446,0.09957520663738251,-0.3305841250297278,0.16641931858755118,-0.16774503490750983
4.233677864074707,-1.5527009963989258e-05,0.005917400121688843,0.01781827211380005,-0.010171914473176003,-0.12654687464237213,0.10215932130813599,-0.33044694410649134,0.16545729295250966,-0.16669626212008612
4.243649005889893,-0.0004926174879074097,0.004053860902786255,0.020865142345428467,-0.008495986461639404,-0.11832597106695175,0.09076525270938873,-0.33051356436438545,0.16456599391527377,-0.16565929561651285
4.253718852996826,0.0008782446384429932,0.005135267972946167,0.024770498275756836,-0.004677396267652512,-0.11265232414007187,0.09054000675678253,-0.33062856110121686,0.16374118324909814,-0.1647068726183601
4.264178991317749,-3.2335519790649414e-06,0.003282099962234497,0.02428436279296875,0.0032953089103102684,-0.109000064432621,0.08993147313594818,-0.33061967963885536,0.16295207923729058,-0.1637628036091089
4.273705005645752,0.0015738606452941895,0.001770108938217163,0.023299753665924072,0.013670584186911583,-0.09891466796398163,0.08343075215816498,-0.3305565891310071,0.16223975494989978,-0.1628637742639545
4.283895969390869,0.0029030144214630127,0.002399235963821411,0.01748967170715332,0.02316448837518692,-0.09557773172855377,0.08668912947177887,-0.33045607344772576,0.1616275476667,-0.16198407388858227
4.293812990188599,0.003608003258705139,0.005680561065673828,0.013409316539764404,0.03252004086971283,-0.08912045508623123,0.08186124265193939,-0.3302617561388746,0.16107407463693785,-0.16112903803943662
4.3038201332092285,0.002110719680786133,-0.00020703673362731934,0.012248098850250244,0.033939238637685776,-0.08301888406276703,0.08266205340623856,-0.3300657976470939,0.16059136786675204,-0.16029199632580976
4.314011096954346,0.0025420039892196655,-0.0005109608173370361,0.00708085298538208,0.03507380932569504,-0.07374069839715958,0.08257374167442322,-0.3297741620185592,0.16016242583577217,-0.15944864559546512
4.3238139152526855,0.0014721006155014038,0.0017498135566711426,0.006032228469848633,0.023164954036474228,-0.06624443084001541,0.07474058866500854,-0.32954578935484224,0.15980868275939053,-0.15865410027308707
4.333871841430664,0.0015679001808166504,-0.0020274221897125244,0.005584359169006348,0.014818573370575905,-0.06741320341825485,0.06927284598350525,-0.3294739394335256,0.15948982824071076,-0.15790044476880966
4.343871116638184,0.0017641931772232056,-0.008012205362319946,0.010072410106658936,0.005894853267818689,-0.0632469579577446,0.063602976500988,-0.3294452218064525,0.1591311444385118,-0.15718140759676197
4.354055881500244,0.0017627477645874023,-0.007846415042877197,0.011740267276763916,0.004749061539769173,-0.06276998668909073,0.05369400233030319,-0.3294473618893886,0.1587898379904723,-0.1565648667558992
4.364182949066162,0.0016055256128311157,-0.002048403024673462,0.00966501235961914,0.009081492200493813,-0.05787988379597664,0.047452617436647415,-0.32941547564811846,0.15845010775086205,-0.15601371421587962
4.373798847198486,-0.0013272762298583984,-0.0034866929054260254,0.005638182163238525,0.01083276979625225,-0.04938054457306862,0.042661163955926895,-0.32940355491975853,0.15815885587405504,-0.15552977572924653
4.384342908859253,-0.0033477991819381714,-0.0032640397548675537,0.002415597438812256,0.01895621046423912,-0.04533546790480614,0.038931407034397125,-0.32924883926709164,0.15789596079377108,-0.1550996566329414
4.3938140869140625,-0.005721926689147949,-0.0038734078407287598,-0.0009413957595825195,0.02234310284256935,-0.04021425172686577,0.03329668939113617,-0.3290220843860988,0.15766472017944855,-0.15473484997838088
4.403863906860352,-0.00789208710193634,-0.007020384073257446,0.002388894557952881,0.017318516969680786,-0.03913087770342827,0.03654947131872177,-0.32883246428556107,0.15742952177790956,-0.15439346455279193
4.415935039520264,-0.007568418979644775,-0.006331086158752441,0.006549417972564697,0.011704156175255775,-0.02892959676682949,0.03638329356908798,-0.32863621582939234,0.15726854047677882,-0.15400848818844082
4.424036979675293,-0.009302705526351929,-0.005823373794555664,0.007143259048461914,-0.0016729014459997416,-0.021264217793941498,0.03312385082244873,-0.32847060495728075,0.15722136575829732,-0.15363139117526436
4.433950901031494,-0.01258648931980133,-0.011889934539794922,0.007961928844451904,-0.004573749843984842,-0.021638216450810432,0.031028367578983307,-0.32839929535563245,0.15720454848379192,-0.15326660491829555
4.443871021270752,-0.0112714022397995,-0.009640038013458252,0.0074656009674072266,0.004356894642114639,-0.02625773474574089,0.027781974524259567,-0.3284082110278723,0.15713672598973563,-0.1529329152447194
4.453977108001709,-0.009691581130027771,-0.004964113235473633,0.005932867527008057,0.00885058008134365,-0.034379132091999054,0.019483458250761032,-0.3282882513566562,0.15692566278949518,-0.15268774844490954
4.464370965957642,-0.009437456727027893,0.0009303390979766846,0.005207180976867676,0.006818587426096201,-0.04439954087138176,0.011557623744010925,-0.3281544661693613,0.1565487583097608,-0.15254578951593187
4.473927021026611,-0.010279238224029541,0.0028794705867767334,0.008217811584472656,-0.009400912560522556,-0.05296147242188454,0.010622109286487103,-0.32809420344463675,0.15602608048005037,-0.15246077031949828
4.483975887298584,-0.012067556381225586,0.005361050367355347,0.008295893669128418,-0.022710857912898064,-0.05381421744823456,0.011343559250235558,-0.3281645831689248,0.15544570432096788,-0.15234366595111504
4.494002819061279,-0.014584720134735107,0.005689263343811035,0.005371212959289551,-0.037458326667547226,-0.050671644508838654,0.0072270049713552,-0.32839815998317895,0.15490284786279165,-0.15221610203859862
4.504089832305908,-0.015760987997055054,0.0020457208156585693,0.0029926300048828125,-0.03303162381052971,-0.05336436629295349,0.00779798673465848,-0.32870099323755886,0.15433302083553724,-0.1521050268613792
4.515224933624268,-0.01590929925441742,0.0028385818004608154,0.00367891788482666,-0.03019530698657036,-0.055762942880392075,0.004764326382428408,-0.3288467154934527,0.15369985498019698,-0.1520342803972459
4.524057865142822,-0.014995202422142029,0.008460462093353271,0.004696846008300781,-0.02611055038869381,-0.05451657995581627,-0.002385728294029832,-0.3290009047337191,0.15307325848472442,-0.1520133370511184
4.534191131591797,-0.0129518061876297,0.015421807765960693,0.005010843276977539,-0.025278078392148018,-0.0566842183470726,-0.0014041935792192817,-0.32920699659514224,0.15244920607088794,-0.15199100665223444
4.544068813323975,-0.011912882328033447,0.011778920888900757,0.004652440547943115,-0.02625572495162487,-0.057297009974718094,-0.005228492897003889,-0.3295091882390574,0.1518273725864733,-0.15200976764898302
4.554107904434204,-0.010782778263092041,0.008695602416992188,0.0036525726318359375,-0.02116730622947216,-0.06008289381861687,-0.012593891471624374,-0.3298328529130559,0.15115806943175786,-0.1520828497718023
4.5644049644470215,-0.008486688137054443,0.0075629353523254395,0.004996180534362793,-0.018004003912210464,-0.06179184839129448,-0.014825087040662766,-0.33015914993377293,0.15041682312113622,-0.15222381001855753
