timestamp,accel_x,accel_y,accel_z,rotation_x,rotation_y,rotation_z, pitch,roll,yaw
0.04244399070739746,0.016965821385383606,-0.022849902510643005,0.012552261352539062,0.000315631041303277,-0.0007202839478850365,0.0032249665819108486,-0.19736163153279979,0.06340830134501506,0.006279655731861313
0.05572104454040527,0.015194587409496307,-0.01918230950832367,0.01145172119140625,-0.0015122129116207361,0.006858229171484709,0.000311734271235764,-0.19735604387710987,0.06345625138383158,0.006303616459544163
0.06802797317504883,0.012563362717628479,-0.016777902841567993,0.005800485610961914,0.003596529131755233,0.015228811651468277,-0.004419105127453804,-0.19734709091787522,0.06357214039510783,0.006288131291080106
0.07595300674438477,0.00954737514257431,-0.01618744432926178,0.0030936002731323242,0.016265984624624252,0.02307208627462387,-0.009974459186196327,-0.19724288738268766,0.06375255734666656,0.006211067983054266
0.0777890682220459,0.0073856934905052185,-0.014921382069587708,0.0035899877548217773,0.024989435449242592,0.03328850492835045,-0.01570211909711361,-0.19704102233245605,0.0640098525793272,0.006068893166682059
0.08376097679138184,0.0065574124455451965,-0.010575085878372192,-0.0008249878883361816,0.03644848242402077,0.035309046506881714,-0.02287321351468563,-0.19673236479709472,0.06432213935613752,0.005858156011668983
0.09223103523254395,0.00946766883134842,-0.00954727828502655,-0.006001532077789307,0.04370559751987457,0.03439238294959068,-0.031095722690224648,-0.1963378274263417,0.06463314471735014,0.00555697487903883
0.10086989402770996,0.012494884431362152,-0.00993114709854126,-0.00727313756942749,0.0490468330681324,0.02907964587211609,-0.03690274432301521,-0.19588912044097206,0.0648862727278359,0.0051810476306120195
0.11099982261657715,0.015697374939918518,-0.013143986463546753,-0.006295621395111084,0.04450542852282524,0.02192537486553192,-0.04056144878268242,-0.19543108996031736,0.06506932229948778,0.004751385072350203
0.12102484703063965,0.017745234072208405,-0.01555304229259491,-0.004870414733886719,0.0336628183722496,0.010743515565991402,-0.04083836451172829,-0.1950559289804824,0.06515475168633761,0.004305387325027423
0.13110709190368652,0.021503664553165436,-0.018837183713912964,-0.006308794021606445,0.028572717681527138,0.0028445792850106955,-0.040476974099874496,-0.1947639871022203,0.06514612500654363,0.003874698874374672
0.14110994338989258,0.025640681385993958,-0.023549586534500122,-0.007294595241546631,0.022349193692207336,-0.007552179973572493,-0.03532487526535988,-0.19452809352878656,0.06504765784331498,0.00347827043437321
0.15274310111999512,0.02481769025325775,-0.025321558117866516,-0.006119728088378906,0.01574215665459633,-0.013952288776636124,-0.02583390288054943,-0.19434346706161867,0.06488844592170671,0.003157148898191086
0.16104912757873535,0.024415284395217896,-0.028502464294433594,-0.0034427642822265625,0.01161099597811699,-0.018283654004335403,-0.01651960238814354,-0.19421072035984113,0.06470553808110545,0.0029285331566448096
0.1713418960571289,0.024794988334178925,-0.030058354139328003,0.000513613224029541,0.00875741895288229,-0.022506095468997955,-0.006229415535926819,-0.19410134242808597,0.06448778644579217,0.002798125864462687
0.18131399154663086,0.02737554907798767,-0.03388424217700958,0.0038909912109375,0.011051416397094727,-0.022417012602090836,0.004863768815994263,-0.19398834421748076,0.06426633345723634,0.002778524595859163
0.1912081241607666,0.025971591472625732,-0.03422105312347412,0.005702614784240723,0.017005445435643196,-0.019992204383015633,0.01634332537651062,-0.19383396798386807,0.06407753250158216,0.0028768584719362405
0.20264792442321777,0.024421490728855133,-0.03246307373046875,0.008965373039245605,0.01719438098371029,-0.019604669883847237,0.027134187519550323,-0.19320874048604905,0.06432811981825659,0.0031668072765783893
0.2112729549407959,0.025433428585529327,-0.03000578284263611,0.010320425033569336,0.019404537975788116,-0.020864078775048256,0.0352240726351738,-0.19247739365389974,0.06465668559284055,0.0035538769217583394
0.22130703926086426,0.02636827528476715,-0.028894543647766113,0.014378488063812256,0.01739717833697796,-0.02027587592601776,0.04235431179404259,-0.19162512312016605,0.06506235084131343,0.004035004010355404
0.23139595985412598,0.025285720825195312,-0.02998538315296173,0.01768481731414795,0.01096617802977562,-0.020231667906045914,0.04736052080988884,-0.19079348061231519,0.06545596225158355,0.004581525259058133
0.241196870803833,0.025032885372638702,-0.026086390018463135,0.020756959915161133,0.006555350963026285,-0.02105644717812538,0.04750736802816391,-0.18999281182212283,0.06582844504699364,0.005145904027578502
0.25241589546203613,0.027354247868061066,-0.024045735597610474,0.02043050527572632,-0.00019043637439608574,-0.0202774740755558,0.04737953841686249,-0.18925109795729284,0.06619067064113011,0.005716727494105314
0.2611968517303467,0.027338601648807526,-0.021395713090896606,0.018085718154907227,-0.005438860971480608,-0.018561065196990967,0.04581327736377716,-0.18851053028209522,0.06660203310027735,0.006283471553941145
0.2712380886077881,0.026449397206306458,-0.01622997224330902,0.01790916919708252,-0.009766764007508755,-0.015832923352718353,0.04541061073541641,-0.18784972485205678,0.06698708039594531,0.0068354177186173174
0.2811729907989502,0.02351464331150055,-0.015040189027786255,0.01942765712738037,-0.012838853523135185,-0.009777871891856194,0.039614345878362656,-0.1873531279881117,0.06734394401790854,0.007356947411778463
0.2912900447845459,0.020457901060581207,-0.011608272790908813,0.01756155490875244,-0.011023642495274544,-0.0037024025805294514,0.034071777015924454,-0.18699728081528,0.06771804146909867,0.007806841006543537
0.3036019802093506,0.01829542964696884,-0.009907945990562439,0.015436649322509766,-0.011245667934417725,0.0017699047457426786,0.028899330645799637,-0.1867110339283098,0.0681146862897686,0.00820750971878536
0.31141090393066406,0.015223577618598938,-0.00856749713420868,0.014944791793823242,-0.0071875425055623055,0.00837188120931387,0.0247727632522583,-0.18641835497169792,0.06852051899665376,0.008533390398067215
0.32154202461242676,0.014003559947013855,-0.008733019232749939,0.013132035732269287,-0.002501976676285267,0.011379832401871681,0.01812705583870411,-0.18616754797038196,0.06893678769724985,0.008802935899485814
0.33144688606262207,0.013152316212654114,-0.00902453064918518,0.01282113790512085,-0.004807209130376577,0.013258427381515503,0.014413544908165932,-0.18595179551647148,0.0693820267113322,0.009025623852753717
0.34152889251708984,0.013644635677337646,-0.011304453015327454,0.007468044757843018,-0.002598716178908944,0.013552527874708176,0.008778508752584457,-0.1857719617098163,0.06982689397801282,0.009195758943544925
0.3546288013458252,0.013598814606666565,-0.012959063053131104,0.005650818347930908,-0.0006189222913235426,0.011675799265503883,0.0053595430217683315,-0.18562348444190926,0.07024521163529239,0.009321724732575058
0.3616940975189209,0.01308044046163559,-0.013104408979415894,0.006024420261383057,-0.011571056209504604,0.003805669490247965,0.002421010984107852,-0.18553847204954843,0.07058605217486251,0.009418240266744095
0.3716769218444824,0.011893503367900848,-0.012048184871673584,0.0050046443939208984,-0.019746428355574608,0.0005227904766798019,0.0030511151999235153,-0.18559716800036577,0.07083255320677868,0.009501649557257848
0.3815138339996338,0.010535046458244324,-0.014187142252922058,0.0028659701347351074,-0.018513018265366554,0.0003618472255766392,0.005278955679386854,-0.1856930914851722,0.07105217766813403,0.009601736215898873
0.391528844833374,0.008799001574516296,-0.01735539734363556,0.0009601712226867676,-0.01529219001531601,-0.0017617573030292988,0.003480257000774145,-0.1857805699555381,0.07123659732348829,0.009702738760034375
0.4036519527435303,0.0052850618958473206,-0.016370058059692383,-0.00010907649993896484,-0.012545240111649036,-0.0022237272933125496,0.006247174460440874,-0.18580267787447532,0.07141262225258599,0.00979871102798947
0.41155409812927246,0.004188142716884613,-0.01564231514930725,0.0030431151390075684,-0.007720923982560635,0.0022003159392625093,0.008100735023617744,-0.1857608805853146,0.0716126691515654,0.009917531320811768
0.42157912254333496,0.002854742109775543,-0.01494818925857544,0.000307619571685791,-0.0042520565912127495,0.006566391326487064,0.009341021999716759,-0.18559801520104033,0.07188109436341064,0.0100481681213879
0.4315519332885742,-0.0003946647047996521,-0.015634670853614807,-0.0023996829986572266,0.0008652075193822384,0.008476410061120987,0.005755341611802578,-0.1853494207234776,0.07218829783759988,0.010162236580598037
0.4415450096130371,-0.0007479861378669739,-0.017317086458206177,-0.00303572416305542,0.009003461338579655,0.006411306094378233,0.00025586108677089214,-0.1850429805011028,0.07248229728886726,0.01023291310402014
0.4532511234283447,-0.001035444438457489,-0.014049917459487915,0.00010979175567626953,0.014065597206354141,0.0014072265475988388,-0.0010056783212348819,-0.18469963706048376,0.07269301614883249,0.010258752595906659
0.46170687675476074,0.0005476176738739014,-0.011852100491523743,0.0019426941871643066,0.01209329441189766,-0.0004645315930247307,-0.0032595116645097733,-0.1842955138449967,0.07284708565543493,0.010253962489108322
0.4716808795928955,0.002732492983341217,-0.009413793683052063,-0.003203094005584717,0.010614973492920399,-0.004549021366983652,-0.007176489103585482,-0.18386407765740947,0.07293167304969324,0.010219738801698859
0.4817209243774414,0.003002077341079712,-0.009883567690849304,-0.007829248905181885,0.01030624657869339,-0.009005644358694553,-0.011015968397259712,-0.18347275135093036,0.07290040672910342,0.010132256186918834
0.4917128086090088,0.003570757806301117,-0.010349035263061523,-0.005336284637451172,0.005845718085765839,-0.013104782439768314,-0.016640830785036087,-0.18313918432157103,0.07281391237623541,0.010005871773168506
0.5029218196868896,0.0034067779779434204,-0.007335662841796875,-0.0016324520111083984,-0.003294483758509159,-0.015276677906513214,-0.021915219724178314,-0.18288337649281786,0.0726664774669393,0.009822910858599104
0.5117459297180176,0.0021281614899635315,-0.008845522999763489,0.0012277960777282715,-0.0056260814890265465,-0.015304908156394958,-0.02418370172381401,-0.1826808896235021,0.07244276557745877,0.009592055951921101
0.5216867923736572,0.00040781497955322266,-0.01349484920501709,0.004260063171386719,-0.0039275833405554295,-0.010535364039242268,-0.0277491956949234,-0.18244344970794762,0.07224892004514508,0.009331331349035975
0.5316808223724365,0.000940568745136261,-0.010787487030029297,0.0031147003173828125,0.0012005993630737066,-0.006460461765527725,-0.026369411498308182,-0.18225060597307782,0.07210767956700517,0.009062709101995846
0.5418078899383545,0.001806885004043579,-0.006643429398536682,0.0010163187980651855,0.01737271063029766,-0.006551896687597036,-0.027043137699365616,-0.18199327932977827,0.07201443018022773,0.008787069906645253
0.5533487796783447,0.003733523190021515,-0.008592665195465088,0.003464639186859131,0.02658511884510517,-5.4848846048116684e-05,-0.026443392038345337,-0.18163246857882817,0.07197441531821738,0.00850305152360156
0.5617721080780029,0.003629527986049652,-0.009110048413276672,0.007064521312713623,0.02687518671154976,0.001362352166324854,-0.027422158047556877,-0.18121219373357486,0.07198154559726444,0.008228394697664563
0.5720009803771973,0.005027905106544495,-0.010787934064865112,0.007621407508850098,0.0188798438757658,0.000773260835558176,-0.025107871741056442,-0.18082378909909905,0.07199750681836058,0.00796104362089074
0.58182692527771,0.00764784961938858,-0.013970792293548584,0.008121907711029053,0.012697183527052402,-0.0017776922322809696,-0.02423771098256111,-0.180584782572354,0.07199901738622698,0.007704346868102202
0.5919058322906494,0.009164094924926758,-0.01316949725151062,0.008769810199737549,0.005801193416118622,-0.0044821323826909065,-0.023936772719025612,-0.18039069324460538,0.0719596270559447,0.00746257919094995
0.6037700176239014,0.008604973554611206,-0.01179833710193634,0.010481417179107666,0.005147953052073717,-0.007799898274242878,-0.02608189545571804,-0.1801602114195414,0.07185774288668186,0.007203844052098354
0.6124470233917236,0.007303997874259949,-0.012486308813095093,0.01350027322769165,0.00798342190682888,-0.006736231967806816,-0.027030248194932938,-0.17995991869624067,0.07175031735166551,0.00693551148830232
0.6221950054168701,0.007457397878170013,-0.013048529624938965,0.01524883508682251,0.001496676355600357,-0.003155034501105547,-0.024639422073960304,-0.17984897045921985,0.07168585297516807,0.006690772926170599
0.6319379806518555,0.00904969871044159,-0.010355651378631592,0.013060271739959717,0.007042975630611181,-0.0022508916445076466,-0.021800225600600243,-0.17971745209667564,0.07167864681241307,0.006467273651743915
0.6419939994812012,0.009699746966362,-0.010060489177703857,0.011493682861328125,0.014607317745685577,0.0007534204050898552,-0.016318799927830696,-0.17951049244501535,0.07169768215407019,0.006272139175853036
0.6539340019226074,0.009785078465938568,-0.00749582052230835,0.008166790008544922,0.015742624178528786,0.0023486539721488953,-0.013898254372179508,-0.17923015111682747,0.07176255808841323,0.006117073444164691
0.662125825881958,0.010924279689788818,-0.00444948673248291,0.006542384624481201,0.014710749499499798,-0.002781215589493513,-0.013813991099596024,-0.17889452608868397,0.07184124005379268,0.005980445302766646
0.6723921298980713,0.013475358486175537,-0.006381049752235413,0.010268151760101318,0.010518667288124561,-0.004645161796361208,-0.01048184372484684,-0.1785935046108141,0.07191213205243574,0.005878310324176701
0.6819608211517334,0.013857677578926086,-0.007719606161117554,0.013574421405792236,-0.0014202006859704852,-0.004002052824944258,-0.007230497896671295,-0.17841867124622438,0.07198673046315063,0.005810240617960593
0.6924998760223389,0.014508843421936035,-0.006711393594741821,0.010977685451507568,-0.008052270859479904,-0.012505261227488518,-0.006078947335481644,-0.17833999025648287,0.07200630188169917,0.005769175167727256
0.703125,0.01607174426317215,-0.007902547717094421,0.012104570865631104,-0.009189590811729431,-0.017968956381082535,-0.006707985885441303,-0.17829446439482521,0.07193690398023582,0.005716001216519111
0.7120389938354492,0.015965476632118225,-0.007101908326148987,0.015189826488494873,-0.011098810471594334,-0.01648744009435177,-0.004898633807897568,-0.17830267964601562,0.07187427537884726,0.005688502667421036
0.7219951152801514,0.016686610877513885,-0.001776367425918579,0.010957419872283936,-0.017352178692817688,-0.01456809975206852,-0.0037026081699877977,-0.1783489430375092,0.07183973962868705,0.005680345978668164
0.7318990230560303,0.016276098787784576,-0.004034683108329773,0.007903873920440674,-0.021263564005494118,-0.014923365786671638,-0.004510877653956413,-0.1784575109756556,0.07180855888719107,0.005663656556716551
0.7420179843902588,0.016023345291614532,-0.005166664719581604,0.006165623664855957,-0.021437818184494972,-0.015492528676986694,-0.004193109460175037,-0.17863092757878035,0.0717884906276947,0.0056597441080148015
0.7534101009368896,0.01455686241388321,-0.0011192113161087036,0.00849008560180664,-0.019581861793994904,-0.014481326565146446,-0.005029874388128519,-0.1787665437984859,0.07180746790013112,0.005652191535583902
0.7619719505310059,0.012167729437351227,-0.0009095519781112671,0.00943821668624878,-0.025839857757091522,-0.01237591914832592,-0.007811599411070347,-0.17891011888737707,0.07184935515574183,0.005639845648415023
0.7720580101013184,0.011257916688919067,-0.0017761290073394775,0.009459853172302246,-0.028968539088964462,-0.012900561094284058,-0.008194029331207275,-0.17910850705253625,0.07190831016475624,0.005621444737815015
0.7819869518280029,0.01039838045835495,-0.0031120777130126953,0.00885462760925293,-0.030423274263739586,-0.010270023718476295,-0.009746173396706581,-0.179303160283634,0.07199372620033323,0.0055842248125756305
0.792382001876831,0.006700493395328522,-0.007045000791549683,0.012103140354156494,-0.029626188799738884,-0.005348502192646265,-0.009360547177493572,-0.17951636013503242,0.07212626463488986,0.005548365188551483
0.802880048751831,0.0033051446080207825,-0.004893109202384949,0.009299516677856445,-0.02314072661101818,-0.002051243092864752,-0.010358752682805061,-0.17976409041229546,0.07230860325197794,0.005511644247658291
0.8121068477630615,0.003164231777191162,-0.004531413316726685,0.0073719024658203125,-0.014704631641507149,-0.00271783210337162,-0.009724920615553856,-0.17989275135295438,0.07248499838340859,0.005470004900712579
0.8221218585968018,0.0047293901443481445,-0.006180867552757263,0.004585444927215576,-0.017802918329834938,-0.005321338307112455,-0.00784334447234869,-0.17997181608014104,0.07263260228884624,0.005421435658851046
0.8321630954742432,0.003658674657344818,-0.005188405513763428,0.004653751850128174,-0.018100926652550697,-0.006711508613079786,-0.0024973147083073854,-0.18014177992339292,0.07274636800096775,0.005416949542687176
0.8421738147735596,0.00618569552898407,-0.00802813470363617,0.0055405497550964355,-0.04101483151316643,-0.009045502170920372,0.007939240895211697,-0.18043808006380352,0.07283411280749526,0.005487144627281042
0.8535969257354736,0.008727900683879852,-0.012144029140472412,0.0015066266059875488,-0.0571325458586216,-0.01921238750219345,0.021384742110967636,-0.18088387062796601,0.07286173587693759,0.005699089830066209
0.8626649379730225,0.01439337432384491,-0.015115544199943542,0.0011270642280578613,-0.08151552081108093,-0.029782116413116455,0.04622494801878929,-0.1814848584625868,0.07281855942722448,0.006108303657841079
0.872812032699585,0.023875609040260315,-0.019701063632965088,-0.0007265806198120117,-0.1236342117190361,-0.046214353293180466,0.07952245324850082,-0.18234618129777563,0.07266789815623086,0.006829259309179475
0.8821389675140381,0.03399870544672012,-0.023845329880714417,-0.0063974857330322266,-0.2275054007768631,-0.08300907164812088,0.12077636271715164,-0.18389177593569994,0.0722930494163969,0.007955255304186355
0.8923859596252441,0.0446365550160408,-0.04197587072849274,0.002685368061065674,-0.404358446598053,-0.11410973966121674,0.1731671243906021,-0.18678251308773736,0.0716291773521126,0.009693910039422979
0.9036080837249756,0.043946877121925354,-0.070773646235466,0.013589262962341309,-0.5240781307220459,-0.04599442332983017,0.20817290246486664,-0.19118356252208504,0.07127199264941453,0.011959345949119642
0.912322998046875,0.03398555517196655,-0.08654417097568512,0.008271455764770508,-0.6042800545692444,-0.07852812856435776,0.27521318197250366,-0.1964011243767534,0.0714515843082342,0.01481386345575608
0.9223129749298096,0.05444801598787308,-0.0778469443321228,0.0001944899559020996,-0.687020480632782,-0.3116453289985657,0.31427571177482605,-0.20223903380936906,0.07030198172706655,0.018343433397613282
0.9323740005493164,0.12437978386878967,-0.053972095251083374,0.01694047451019287,-0.8407487869262695,-0.4272345006465912,0.3694995641708374,-0.20938352268454094,0.06737283392090054,0.022313862619527867
0.9425580501556396,0.12936361134052277,-0.08566652238368988,0.011869728565216064,-0.9135535955429077,-0.4742620289325714,0.48824799060821533,-0.21795752631970822,0.06390210039555518,0.02729600200884111
0.9550540447235107,0.05940592288970947,-0.08236725628376007,-0.032589077949523926,-0.915700376033783,-0.5454626679420471,0.5590561032295227,-0.22679294666153674,0.06016634344670075,0.033315198615213336
0.9624879360198975,0.023199856281280518,-0.09348736703395844,-0.059668660163879395,-0.9108214974403381,-0.6330124139785767,0.5810245871543884,-0.23559918558059678,0.055745498463077144,0.03968319134386373
0.973010778427124,0.018967874348163605,-0.10167601704597473,-0.06996381282806396,-0.7946869134902954,-0.7348971962928772,0.6586639881134033,-0.24385614285751434,0.05054145930477595,0.046520711868084506
0.9823758602142334,0.007828831672668457,-0.08084115386009216,-0.072975754737854,-0.6658200621604919,-0.8186967968940735,0.7405397891998291,-0.2508053903097434,0.04459070539839785,0.05410062559869009
0.993074893951416,-0.015416219830513,-0.11209899187088013,-0.09006917476654053,-0.531042754650116,-0.8856342434883118,0.8150715231895447,-0.2564724700169423,0.03815763110584998,0.06240077269493791
1.0035998821258545,-0.039258603006601334,-0.15839457511901855,-0.10824018716812134,-0.39098671078681946,-0.9751124978065491,0.9013271927833557,-0.26078182909734526,0.03117759901416415,0.0714202636808362
1.0123939514160156,-0.05444090813398361,-0.1941639482975006,-0.10953986644744873,-0.2451498955488205,-1.10556960105896,1.0018447637557983,-0.26370752449192914,0.02334378695447014,0.08136850487588401
1.0223419666290283,-0.06022069603204727,-0.2327357828617096,-0.08106851577758789,-0.06780646741390228,-1.2632640600204468,1.1182913780212402,-0.26509618485024644,0.014398441865373628,0.09238406476534299
1.0323688983917236,-0.06649677455425262,-0.26308080554008484,-0.023633182048797607,0.10004778206348419,-1.4327486753463745,1.2404720783233643,-0.26474344668234384,0.004093604845221111,0.10461248178307747
1.0423557758331299,-0.08167050778865814,-0.28046509623527527,0.0361972451210022,0.09451468288898468,-1.5713953971862793,1.3382699489593506,-0.26367326970532157,-0.007533439888710611,0.11799798450004195
1.0529439449310303,-0.11602339893579483,-0.3470935821533203,0.12731629610061646,-0.055590126663446426,-1.6550266742706299,1.517930507659912,-0.2636663757889201,-0.01974634647460068,0.13284292036520753
1.062398910522461,-0.18005159497261047,-0.4725399911403656,0.23787111043930054,-0.2752273380756378,-1.6763964891433716,1.5855830907821655,-0.2657098016485761,-0.032299526615565705,0.14894092543246368
1.0729210376739502,-0.23864451050758362,-0.5704131722450256,0.28390800952911377,-0.49991050362586975,-1.6253687143325806,1.7160316705703735,-0.2701913082986893,-0.04436650886329,0.1658187602950944
1.0827438831329346,-0.26400139927864075,-0.5442028045654297,0.1777869462966919,-0.7977243661880493,-1.5698572397232056,1.881166934967041,-0.2774863717822028,-0.05537430003432845,0.18422744762994292
1.0951919555664062,-0.21324118971824646,-0.47642782330513,0.07359778881072998,-1.2674803733825684,-1.6345974206924438,1.9317046403884888,-0.28904480924094317,-0.06606529693783679,0.2033678221093497
1.1054160594940186,-0.1966598778963089,-0.5254190564155579,0.12676745653152466,-1.4421323537826538,-1.685767412185669,2.0847015380859375,-0.3041817564043633,-0.07685318182815644,0.22330564286588211
1.1125857830047607,-0.2683449387550354,-0.6284769773483276,0.19106203317642212,-1.4925510883331299,-1.6744931936264038,2.100181818008423,-0.32056961913434523,-0.08749070768904023,0.24406316096244451
1.1225109100341797,-0.34204062819480896,-0.628572940826416,0.1506650447845459,-1.3447211980819702,-1.4462320804595947,2.1822493076324463,-0.33685765571466075,-0.09632942669502922,0.2650685882690458
1.1324560642242432,-0.4054313004016876,-0.6521664261817932,0.07323724031448364,-0.8051166534423828,-1.125370979309082,2.4055984020233154,-0.3497924953837921,-0.10163537821083088,0.2883360367691106
1.142509937286377,-0.3738816976547241,-0.7144016027450562,-0.028676867485046387,-0.28328070044517517,-0.7058462500572205,2.5560638904571533,-0.35780603538774547,-0.10180070984541167,0.31400694648185107
1.1529200077056885,-0.27748656272888184,-0.5768150687217712,-0.10398578643798828,0.22419531643390656,-0.34150880575180054,2.7661824226379395,-0.3607746412717761,-0.09710182765288684,0.3422685202344897
1.1624689102172852,-0.2835392355918884,-0.4853241443634033,-0.03258782625198364,0.6843451261520386,0.07193092256784439,2.9153168201446533,-0.35875396975217816,-0.08760642442085054,0.37303674538721293
1.1725718975067139,-0.3085173964500427,-0.5110458135604858,0.10776466131210327,1.0427302122116089,0.47561582922935486,3.058293104171753,-0.3522546642982752,-0.07358070693719927,0.40566686436259825
1.1825909614562988,-0.275520920753479,-0.43615761399269104,0.22079592943191528,1.1112934350967407,0.9388362169265747,3.1523637771606445,-0.3433460365776235,-0.055147306349491984,0.43925093212872923
1.1932780742645264,-0.2543705105781555,-0.3274099826812744,0.2679147720336914,0.9308565258979797,1.4187241792678833,3.3313279151916504,-0.33438485333619894,-0.03167547674838808,0.47421807948643385
1.2030479907989502,-0.28377068042755127,-0.29678967595100403,0.1996026635169983,0.5863935947418213,1.6859759092330933,3.4087624549865723,-0.32745146191092456,-0.004364115963247314,0.5100248289736371
1.2128729820251465,-0.2961159348487854,-0.24389299750328064,0.2100505828857422,0.19698087871074677,1.8016746044158936,3.4988982677459717,-0.32318988771146,0.02482030805630677,0.5463950496572387
1.222566843032837,-0.27469542622566223,-0.20820480585098267,0.3807567358016968,-0.053151872009038925,1.914069414138794,3.865874767303467,-0.3207471435003297,0.05568452711918829,0.5853068443865178
1.232762098312378,-0.1437188982963562,-0.20968738198280334,0.5343405604362488,-0.650194525718689,2.1434669494628906,3.6284537315368652,-0.32150553824227335,0.08851915100447608,0.6251959678651433
1.2428998947143555,0.014370322227478027,-0.33372586965560913,0.4996306300163269,-0.9723501205444336,2.3077497482299805,3.75266695022583,-0.32591531252113315,0.12342000929366705,0.6645805262387349
1.256483793258667,0.08459292352199554,-0.3261868953704834,0.3868311643600464,-1.0626469850540161,2.388096332550049,3.894643783569336,-0.33050805889401497,0.16039435216288758,0.7063196178970207
1.262535810470581,0.3621256351470947,0.030552178621292114,0.2067278027534485,-1.1807981729507446,2.5161256790161133,3.8917324542999268,-0.33462057476633006,0.19886098942092437,0.7490290744995833
1.272773027420044,0.5159640312194824,0.13933134078979492,0.09461164474487305,-1.1600364446640015,2.652323007583618,3.874706983566284,-0.33770859014207455,0.23894466656078858,0.7919685364558613
1.282599925994873,0.5701711773872375,0.18795356154441833,0.060806870460510254,-0.9800413846969604,2.735585927963257,3.814293146133423,-0.33831502054756196,0.2800277101460777,0.8343601629834423
1.2931098937988281,0.672918438911438,0.276756227016449,0.057802796363830566,-0.6665404438972473,2.77815842628479,3.7469003200531006,-0.33500464126906887,0.3211613215138957,0.8752640114670234
1.3037331104278564,0.7431430816650391,0.2995360195636749,0.05278027057647705,-0.3712552785873413,2.7957165241241455,3.625576972961426,-0.3275352630682622,0.3616545308065476,0.9138811186967402
1.3129761219024658,0.8047093749046326,0.34173882007598877,0.01289832592010498,-0.036239467561244965,2.7678637504577637,3.458638906478882,-0.3162628116258197,0.40080839999036516,0.9493898511537273
1.3229689598083496,0.8671074509620667,0.330771267414093,-0.05050402879714966,0.33438414335250854,2.6531567573547363,3.304015874862671,-0.3010601174509182,0.437659438773706,0.9812098712930343
1.3327510356903076,0.9093360900878906,0.3681546449661255,-0.11138099431991577,0.5274702310562134,2.485088586807251,3.0709891319274902,-0.28303977105689465,0.47148609825916515,1.0091508802017175
1.3426578044891357,0.9110039472579956,0.4296143054962158,-0.16422325372695923,0.4859318435192108,2.2103984355926514,2.7923169136047363,-0.26468872363351936,0.5016406195485881,1.0335847574699928
1.3538048267364502,0.8525656461715698,0.399253785610199,-0.17559778690338135,0.19579872488975525,1.863870620727539,2.4144389629364014,-0.24871887909546567,0.5275949748732318,1.0553068601180955
1.3628339767456055,0.7411453723907471,0.41029083728790283,-0.1095389723777771,-0.24129916727542877,1.473306655883789,1.9811500310897827,-0.2375830828995767,0.5490186389468488,1.0748797958570562
1.3730189800262451,0.6142715811729431,0.4328233599662781,-0.03035801649093628,-0.6563845276832581,1.0818840265274048,1.5430629253387451,-0.23209664710457356,0.5659461660028915,1.0927438884883687
1.3828098773956299,0.4954029321670532,0.42183977365493774,-0.0020392537117004395,-0.998895525932312,0.7107947468757629,1.1339995861053467,-0.2318899952884368,0.5786189998397248,1.1089436283911611
1.3931069374084473,0.3836768865585327,0.4007171392440796,0.006455361843109131,-1.0233858823776245,0.43570858240127563,0.8058218955993652,-0.23525112897479186,0.5875279577176072,1.1231140038383136
1.4035627841949463,0.2891566753387451,0.34583762288093567,0.018928468227386475,-0.7745404839515686,0.278486430644989,0.5330220460891724,-0.23909065619239067,0.5936021221419736,1.1340243138090587
1.4129109382629395,0.2041911482810974,0.31202661991119385,0.01770651340484619,-0.4396463632583618,0.21621695160865784,0.3456960916519165,-0.24172746832837783,0.5977469432353634,1.1412763519418192
1.4228780269622803,0.13120567798614502,0.23737920820713043,0.02526801824569702,0.008108256384730339,0.25542011857032776,0.2396695613861084,-0.24191751985906443,0.600922783705683,1.1449946636358495
1.4329960346221924,0.05656188726425171,0.13222873210906982,0.04146099090576172,0.44063621759414673,0.3588796555995941,0.1939694583415985,-0.23882479402077655,0.6040978758488538,1.1454486776832402
1.4430229663848877,0.00307542085647583,0.07962353527545929,0.03380858898162842,0.6970241665840149,0.44506412744522095,0.20453496277332306,-0.23290111690887444,0.6077372482073286,1.1436889806782617
1.4535911083221436,-0.000773310661315918,0.03901048004627228,0.005459845066070557,0.7281234860420227,0.4867178201675415,0.21937356889247894,-0.22571871342887528,0.6118841959930353,1.1412050656951815
1.462846040725708,0.008225023746490479,0.01651144027709961,0.018121004104614258,0.5668594241142273,0.47594302892684937,0.20269589126110077,-0.21909338162928027,0.6162694214982243,1.1391071346862027
1.4729640483856201,0.011897861957550049,0.02365022897720337,0.06291961669921875,0.24490903317928314,0.4176965057849884,0.17493456602096558,-0.2146114584654851,0.620596805276566,1.1382175325433306
1.482818841934204,0.03482788801193237,0.04918563365936279,0.09334981441497803,-0.06439179182052612,0.3448329269886017,0.1505403369665146,-0.2129955551362787,0.6245591957232562,1.1390661170561398
1.4930388927459717,0.053905606269836426,0.043367981910705566,0.1063109040260315,-0.3016623854637146,0.28807058930397034,0.11276498436927795,-0.2137335149772162,0.6282155535239602,1.1412808198675561
1.5050029754638672,0.056069791316986084,0.042612239718437195,0.07991838455200195,-0.4295220375061035,0.2407524734735489,0.10784900933504105,-0.2161313388792327,0.6315186613229751,1.144465194470228
1.5129899978637695,0.057453036308288574,0.03106483817100525,0.047893643379211426,-0.34964239597320557,0.24546226859092712,0.09647864103317261,-0.2187686728547631,0.6346278484520451,1.1477397446634454
1.5229771137237549,0.030877113342285156,0.0077657550573349,0.024984657764434814,-0.18828058242797852,0.2732295095920563,0.10043658316135406,-0.22036224351989456,0.6377609266070549,1.1501902632641527
1.533073902130127,0.01043480634689331,0.00748230516910553,-0.01709771156311035,0.004024681635200977,0.30011650919914246,0.10557247698307037,-0.2205119912187502,0.6409368855465232,1.1516318862430088
1.5430281162261963,0.010682940483093262,0.0008298009634017944,-0.04415583610534668,0.17480848729610443,0.3302784562110901,0.09375544637441635,-0.21916704955590688,0.6441636286302714,1.151878755531404
1.553473949432373,0.0019907355308532715,0.0034523457288742065,-0.05651581287384033,0.2808251976966858,0.3408709168434143,0.07799939066171646,-0.21679350103980485,0.6473809371236691,1.151139617716582
1.5629630088806152,0.011278212070465088,0.0073118656873703,-0.048015475273132324,0.300403892993927,0.32506951689720154,0.06024015694856644,-0.21401416449035152,0.650455159717834,1.1498671827524658
1.5730929374694824,0.01841050386428833,0.0014506280422210693,-0.036644041538238525,0.2594335377216339,0.28683000802993774,0.05027540400624275,-0.2114247040239802,0.6532405006262122,1.1485654444305238
1.5830748081207275,0.034579694271087646,-0.009970307350158691,-0.03989696502685547,0.1508978009223938,0.2355448603630066,0.028504010289907455,-0.20952864260409182,0.655669952357152,1.147599693836924
1.5931570529937744,0.035734355449676514,-0.014450594782829285,-0.04351162910461426,0.03291363641619682,0.1771174967288971,0.016824983060359955,-0.208664799337531,0.6576424522948308,1.1472093265874608
1.603503942489624,0.024975895881652832,-0.01713825762271881,-0.04971426725387573,-0.06142088398337364,0.12683497369289398,0.006706942338496447,-0.2087293451644295,0.6591924451202074,1.147404603927755
1.61313796043396,0.01852428913116455,-0.01312267780303955,-0.05734127759933472,-0.1184128001332283,0.09789199382066727,0.0008943274151533842,-0.2094130929141116,0.6604265303414638,1.1480108876436013
1.6231169700622559,0.010457456111907959,-0.004568040370941162,-0.04939436912536621,-0.1485823094844818,0.08079250156879425,0.0013945222599431872,-0.2104796641288039,0.6614861112072987,1.1488582251952666
1.6333529949188232,0.0062105655670166016,-0.006064414978027344,-0.04110515117645264,-0.1414748579263687,0.0751761645078659,-0.0040359292179346085,-0.21163547119298126,0.6624570114713789,1.1497603717336542
1.6438758373260498,0.0073969364166259766,-0.011353641748428345,-0.04590505361557007,-0.11991911381483078,0.07661236822605133,-0.0017477946821600199,-0.21269115936385183,0.6633722414493474,1.1505693964849415
1.6535718441009521,0.0050446391105651855,-0.013903766870498657,-0.04858487844467163,-0.07280512899160385,0.07431779056787491,0.0019297644030302763,-0.21347371761296838,0.6642611077369581,1.151187549484287
1.6631348133087158,-0.0020692944526672363,-0.026718929409980774,-0.05425667762756348,-0.04592541977763176,0.05441935732960701,-0.005399041809141636,-0.21390863498034893,0.6649939280954993,1.151542373679935
1.6731460094451904,0.004933655261993408,-0.016648069024086,-0.07069027423858643,-0.07088296115398407,0.016221370548009872,-0.025286730378866196,-0.21443950178776253,0.6654032201402899,1.1517792767544262
1.6831037998199463,0.008399128913879395,-0.007679611444473267,-0.07121753692626953,-0.10641276836395264,-0.027891406789422035,-0.03735724091529846,-0.21525543919357376,0.6653421648714398,1.1520767748207525
1.6940569877624512,0.009943604469299316,-0.0008082687854766846,-0.05973947048187256,-0.12012112140655518,-0.042623747140169144,-0.05767796188592911,-0.2163595262998468,0.6649519135560575,1.1523963567142177
1.7037990093231201,0.005472838878631592,-0.012116029858589172,-0.021851778030395508,-0.11436126381158829,-0.046668022871017456,-0.06654740869998932,-0.21761056824390382,0.6644731691734994,1.152624486152525
1.7132699489593506,0.003699958324432373,-0.037687286734580994,-0.019264042377471924,-0.10259568691253662,-0.056947026401758194,-0.05937843769788742,-0.21876460722323654,0.6639030569200391,1.1527783050917386
1.7232778072357178,0.01727473735809326,-0.04020041227340698,-0.04530465602874756,-0.0910036489367485,-0.05631381645798683,-0.0692456066608429,-0.21982298440078926,0.6632612213173371,1.1528595893373557
1.733191967010498,0.017842888832092285,-0.030089378356933594,-0.04735851287841797,-0.08581394702196121,-0.06096343323588371,-0.08315210044384003,-0.22087632585409298,0.6625678707310773,1.15276942877793
1.7433578968048096,0.00600743293762207,-0.02414153516292572,-0.03190171718597412,-0.05866043642163277,-0.07828599959611893,-0.07336253672838211,-0.22178663740442658,0.6616696148088665,1.1525874798603803
1.7554028034210205,0.0053223371505737305,-0.030832156538963318,-0.014016568660736084,-0.006173526868224144,-0.084294892847538,-0.06913237273693085,-0.2223259236763774,0.6605929056818189,1.152163535292999
1.7642059326171875,-6.0677528381347656e-05,-0.03215502202510834,-0.011414527893066406,0.03359267860651016,-0.08940377086400986,-0.05737483873963356,-0.22244632357145963,0.6594216618936256,1.1515401315040044
1.7736639976501465,-0.002245306968688965,-0.03110605478286743,-0.022107958793640137,0.07025907933712006,-0.08729321509599686,-0.053552404046058655,-0.2222469163101526,0.6582227798415323,1.1507313533614458
1.7832558155059814,-0.0053784847259521484,-0.03278075158596039,-0.023531198501586914,0.08961062133312225,-0.08808945119380951,-0.049183063209056854,-0.22180507831643317,0.6571048880800611,1.1497960635023072
1.7933249473571777,-0.005541205406188965,-0.0219801664352417,-0.01824265718460083,0.09011316299438477,-0.08315861225128174,-0.04770367592573166,-0.22108832093368758,0.6559668026174276,1.148816991504508
1.8035337924957275,0.0016892552375793457,-0.017460182309150696,-0.00945371389389038,0.07663916796445847,-0.08908583223819733,-0.04797377437353134,-0.22034983856431772,0.6547969190146842,1.1478844237579255
1.8132619857788086,0.005742132663726807,-0.018207982182502747,0.0009667277336120605,0.03814849629998207,-0.10063330084085464,-0.052556540817022324,-0.2198652592027633,0.6535786152124958,1.1470690046693357
1.8234879970550537,0.00884711742401123,-0.016164451837539673,0.009669721126556396,0.008679121732711792,-0.1184997409582138,-0.05108104273676872,-0.21972572586746225,0.6522460911962444,1.146484607084686
1.8333749771118164,0.012195765972137451,-0.016864895820617676,0.015763580799102783,-0.01050069835036993,-0.12962350249290466,-0.04541277140378952,-0.21966166326491363,0.6508890476087664,1.1460699518645903
1.84346604347229,0.008517920970916748,-0.018842771649360657,0.028254449367523193,0.00039153103716671467,-0.11128780990839005,-0.028496211394667625,-0.21935872693549416,0.6495419414750452,1.145805250676372
1.8542258739471436,0.005389809608459473,-0.024187862873077393,0.05018818378448486,0.02351469360291958,-0.0762624442577362,0.00140043452847749,-0.21880057554625368,0.6483490140193421,1.1455584911228658
1.8634397983551025,-0.004416286945343018,-0.0424356609582901,0.05129760503768921,0.06544936448335648,-0.02906031161546707,0.03843408450484276,-0.21786102448606742,0.6475962261964007,1.1454047071658056
1.8734829425811768,0.0021186470985412598,-0.04494215548038483,0.037048399448394775,0.08214551955461502,0.012683405540883541,0.06685774028301239,-0.21667760366164054,0.6473933544121463,1.1453452069611103
1.8834099769592285,-0.0006619095802307129,-0.03110469877719879,0.0313563346862793,0.0813910961151123,0.038275718688964844,0.07805867493152618,-0.21538329471446224,0.6476921761070531,1.1454341630735376
1.8934547901153564,-0.0011309385299682617,-0.013204798102378845,0.031024932861328125,0.054425790905952454,0.03529909998178482,0.07850555330514908,-0.2141637423225874,0.6482691942360685,1.1456828899496199
1.903735876083374,-1.7821788787841797e-05,0.0029965490102767944,0.02770334482192993,0.016531337052583694,0.01904849335551262,0.06635157763957977,-0.2133085465779358,0.6488936465944317,1.1461277517705022
1.913417100906372,0.004207909107208252,0.01009252667427063,0.03144294023513794,-0.017340078949928284,-0.006299206987023354,0.05705954506993294,-0.21287076076223943,0.649352155836913,1.146703205768493
1.9234249591827393,0.0022020339965820312,0.010029509663581848,0.03663879632949829,-0.02041834220290184,-0.020367488265037537,0.04411578178405762,-0.2126698492914681,0.6496025262351258,1.1472900240356938
1.9333159923553467,0.0009086132049560547,0.010538354516029358,0.041234612464904785,0.0022504839580506086,-0.021755795925855637,0.04166780412197113,-0.21244588441111772,0.6498160537223159,1.1477842890774101
1.9434709548950195,-0.004084169864654541,0.006270959973335266,0.03237903118133545,0.03815042972564697,-0.012642811983823776,0.03961924463510513,-0.21183195500499388,0.6498960779995597,1.1480360228199258
1.9537858963012695,-0.009963274002075195,-0.004001259803771973,0.019504785537719727,0.06725451350212097,-0.012506725266575813,0.03250301256775856,-0.2109299265810858,0.6499115686699368,1.1480319914482142
1.9635798931121826,-0.009167253971099854,-0.0011035352945327759,0.009759902954101562,0.07752010226249695,-0.011855138465762138,0.020299024879932404,-0.21004202105883163,0.6498424537278271,1.1478140820473859
1.9737160205841064,-0.0019733309745788574,0.02017045021057129,0.004970431327819824,0.06528367847204208,-0.013811230659484863,-0.0005766962422057986,-0.20938349638857165,0.6497661165857956,1.1474634699550963
1.9834787845611572,-0.0006392598152160645,0.03354150056838989,0.005686640739440918,0.025901852175593376,-0.028212804347276688,-0.007871733978390694,-0.20916065027278327,0.6496237183669871,1.1471579362295241
1.9934461116790771,0.0068375468254089355,0.039333775639534,0.006215155124664307,0.004486307501792908,-0.02938166633248329,-0.011791108176112175,-0.2092448289621384,0.6494805786538809,1.1470379096879102
2.0039799213409424,0.0081443190574646,0.02793528139591217,0.0268784761428833,-0.017432473599910736,-0.03495495393872261,-0.013246685266494751,-0.2095726143611807,0.6493838634394623,1.1470322366230328
2.0138628482818604,-0.0031253695487976074,0.005583345890045166,0.03072035312652588,-0.012020929716527462,-0.04336095601320267,-0.0012089306255802512,-0.20994479997515295,0.6492593549728827,1.1471204794172942
2.0235719680786133,0.0007031559944152832,-0.009108677506446838,0.011135756969451904,-0.014419356361031532,-0.0446774885058403,-0.006641619373112917,-0.21023899351554373,0.6490346237920246,1.147221335171111
2.0336859226226807,-0.0013494491577148438,-0.0018548667430877686,0.005473077297210693,-0.024408606812357903,-0.04255654662847519,-0.0105546023696661,-0.21045140106684002,0.6486678772021613,1.1472714006120763
2.0435121059417725,-0.0028087496757507324,0.017193973064422607,0.001056969165802002,-0.05133632570505142,-0.04064812511205673,-0.02047695405781269,-0.2108511161877297,0.6482556855146685,1.1473824221571374
2.0540390014648438,0.0014855265617370605,0.022930562496185303,0.0061606764793396,-0.08166147768497467,-0.03924224153161049,-0.029371114447712898,-0.2118662353204732,0.6479815686529582,1.1476105432876391
2.063481092453003,-0.0011622309684753418,0.013398393988609314,0.016935884952545166,-0.0952218770980835,-0.028246363624930382,-0.029579905793070793,-0.21329767801830377,0.6478536693898882,1.1479440577504998
2.0737287998199463,-0.001262664794921875,0.005103066563606262,0.022292613983154297,-0.0845165029168129,-0.012608546763658524,-0.020678289234638214,-0.21477553056408497,0.6479711318443852,1.1483596672423801
2.083824872970581,-0.004044830799102783,-0.00781618058681488,0.018609941005706787,-0.0633377954363823,-0.007371129468083382,-0.007064103148877621,-0.21594194902528527,0.6484452231908232,1.1487973615046587
2.0942509174346924,-0.0038448572158813477,-0.013375967741012573,0.004017174243927002,-0.04655562341213226,-0.013572832569479942,-0.006406835280358791,-0.21655695658728838,0.6487415749372224,1.1491688117916585
2.1040260791778564,-0.003368556499481201,-0.015102922916412354,0.00443190336227417,-0.03350308537483215,-0.013969864696264267,-0.00898450892418623,-0.2166691051078534,0.6487560896503337,1.149368553870814
2.113905906677246,-0.0065004825592041016,-0.008914723992347717,0.008508384227752686,-0.03677797690033913,-0.018597107380628586,-0.012650882825255394,-0.21687925018224324,0.6486392749925491,1.1495050270655514
2.1238129138946533,-0.003666520118713379,-0.00015713274478912354,0.00808018445968628,-0.03529209643602371,-0.015335800126194954,-0.010704911313951015,-0.2174271274667327,0.6484814260713637,1.1496368428601091
2.1338019371032715,-0.0010506510734558105,-0.007700309157371521,0.006547093391418457,-0.04083094000816345,-0.010493641719222069,-0.016566794365644455,-0.2181358539976264,0.6484936859078267,1.1497800068590682
2.143772840499878,-0.0009099841117858887,-0.0033327192068099976,0.000752568244934082,-0.04009504243731499,-0.006956430617719889,-0.023585181683301926,-0.2188042901908922,0.6486019404492379,1.1499135744319295
2.1544740200042725,-0.0003852248191833496,0.002000376582145691,-0.004912376403808594,-0.043834388256073,-0.013392224907875061,-0.036751583218574524,-0.21942163050782595,0.6487377100000307,1.1499693054240507
2.163731813430786,-0.0010043978691101074,0.006782621145248413,-0.009698569774627686,-0.03772798925638199,-0.032704759389162064,-0.05111055076122284,-0.21989990172006146,0.6486141727078975,1.149900307486493
2.1739308834075928,0.00390470027923584,0.008481621742248535,-0.016354620456695557,-0.04080687090754509,-0.06467787176370621,-0.07912727445363998,-0.22033229238296673,0.6480258767254982,1.1495925695313172
2.1838338375091553,0.009171783924102783,0.01963368058204651,-0.020128250122070312,-0.04640689864754677,-0.09853729605674744,-0.10552548617124557,-0.2209599733892982,0.6470700425481007,1.1491190616561202
2.194551944732666,0.01133275032043457,0.026001960039138794,-0.01769179105758667,-0.021409405395388603,-0.1243012472987175,-0.137108713388443,-0.22179905667564714,0.6457895846315138,1.14832761790293
2.2041990756988525,0.00992584228515625,0.028141722083091736,-0.020356059074401855,0.0019037239253520966,-0.14575457572937012,-0.15886811912059784,-0.22273407534890027,0.6442494406310536,1.1471995982095964
2.2138099670410156,0.00935596227645874,0.025502890348434448,-0.02223372459411621,0.030371053144335747,-0.15239596366882324,-0.18167781829833984,-0.22345285007688961,0.642520632891365,1.1457206624502907
2.2238128185272217,0.008508801460266113,0.019565656781196594,-0.024626731872558594,0.044289279729127884,-0.15893974900245667,-0.2038591355085373,-0.22418995863891406,0.640644143033066,1.143927487166063
2.234328031539917,0.010650396347045898,0.02501903474330902,-0.035235047340393066,0.05210725590586662,-0.17460259795188904,-0.2317831814289093,-0.22504467487124702,0.6385781880681916,1.1418554276839903
2.24383807182312,0.015242338180541992,0.026389360427856445,-0.03706991672515869,0.04497461020946503,-0.2011038064956665,-0.2624429762363434,-0.22611228670531244,0.6362283745757291,1.139524972187228
2.2545149326324463,0.019677400588989258,0.029907971620559692,-0.04089546203613281,0.02081441506743431,-0.24811604619026184,-0.3050578236579895,-0.22751234712816157,0.6334583751007764,1.1369853053898922
2.2638580799102783,0.03205525875091553,0.03090113401412964,-0.04843264818191528,-0.01886703446507454,-0.31176093220710754,-0.3658871054649353,-0.22953187861605293,0.6301097653352782,1.134211045537914
2.2738449573516846,0.04311555624008179,0.03856344521045685,-0.05776184797286987,-0.08276745676994324,-0.3972422778606415,-0.4453379809856415,-0.2323665885260414,0.6259475829816104,1.1311598001528342
2.2840259075164795,0.05561816692352295,0.050621286034584045,-0.06693243980407715,-0.14561638236045837,-0.5000863075256348,-0.5472292304039001,-0.23623791315607237,0.6207118941468615,1.1277183494317893
2.2940289974212646,0.06817358732223511,0.056045159697532654,-0.06880545616149902,-0.20691728591918945,-0.6161887049674988,-0.6602274179458618,-0.241193199680214,0.6142330862506092,1.123721207054373
2.3045239448547363,0.09184640645980835,0.06686116755008698,-0.08042573928833008,-0.2519585192203522,-0.7407644987106323,-0.7886613607406616,-0.2472343253944369,0.606278023243733,1.118958753754964
2.314457893371582,0.12776225805282593,0.08393800258636475,-0.09375303983688354,-0.30254659056663513,-0.8649551272392273,-0.9385390281677246,-0.25439901144512095,0.5968238935657961,1.113222963137557
2.325591802597046,0.15896809101104736,0.09594869613647461,-0.09473830461502075,-0.3563511371612549,-0.9848710894584656,-1.1034005880355835,-0.26279379329648034,0.5858031784602169,1.1063419168855937
2.333920955657959,0.19218790531158447,0.10115781426429749,-0.07733964920043945,-0.43291592597961426,-1.1143102645874023,-1.3060280084609985,-0.2727085157476301,0.5731153484171337,1.0981316891617916
2.3440330028533936,0.23505902290344238,0.10964390635490417,-0.06288588047027588,-0.5180884599685669,-1.2458909749984741,-1.5375466346740723,-0.2843551905374227,0.5585989422637674,1.088323703840224
2.354275941848755,0.28692227602005005,0.13601341843605042,-0.05707496404647827,-0.5840722322463989,-1.3778061866760254,-1.7777704000473022,-0.29774892070891124,0.5420746889396951,1.0765887710146937
2.3639180660247803,0.33795592188835144,0.17376482486724854,-0.04777902364730835,-0.5926629304885864,-1.487328290939331,-2.0172061920166016,-0.31251375903494527,0.523503963482074,1.062586386124664
2.373863935470581,0.3821439743041992,0.18142849206924438,-0.04988586902618408,-0.4955747127532959,-1.605299949645996,-2.2447710037231445,-0.32779787806473465,0.5027229729263946,1.0458252033000877
2.383976936340332,0.42529207468032837,0.19043156504631042,-0.0696144700050354,-0.3266521096229553,-1.6965581178665161,-2.443387031555176,-0.3425659733941386,0.479640402638608,1.0259693622169412
2.3942549228668213,0.46387821435928345,0.18504741787910461,-0.08680731058120728,-0.0691707655787468,-1.761108636856079,-2.586613416671753,-0.3557332157252169,0.45443536170634574,1.0029901160201302
2.4045119285583496,0.4850676357746124,0.14390307664871216,-0.0906684398651123,0.2206019014120102,-1.7830811738967896,-2.724935531616211,-0.36634208260367773,0.42749163918427446,0.9769477688181077
2.4139058589935303,0.5030086040496826,0.1243320107460022,-0.07775110006332397,0.481023371219635,-1.7823591232299805,-2.842841863632202,-0.37432350259450337,0.39912968606274896,0.9480079222676985
2.4240357875823975,0.5141424536705017,0.10990631580352783,-0.038646042346954346,0.6806855201721191,-1.7706973552703857,-2.9887590408325195,-0.37982805348498067,0.36972479264985586,0.916526104284081
2.434081792831421,0.5179018378257751,0.12078112363815308,0.01108694076538086,0.7607073783874512,-1.7204467058181763,-3.1046204566955566,-0.3835819511682822,0.33974871683539215,0.8829573329987119
2.444037914276123,0.5231225490570068,0.19441166520118713,0.05847901105880737,0.7047134637832642,-1.6349982023239136,-3.1825830936431885,-0.3866534187263597,0.30990003199894406,0.8482010487537756
2.4543797969818115,0.5291141867637634,0.2618754804134369,0.09376347064971924,0.6252820491790771,-1.5363507270812988,-3.216078758239746,-0.3896156464687429,0.2806878157599335,0.8129778292810764
2.4641878604888916,0.5278850793838501,0.2702501714229584,0.12381011247634888,0.6183503866195679,-1.4384015798568726,-3.2102715969085693,-0.39212674230520334,0.25232367443219234,0.777644281589032
2.4744110107421875,0.5017428994178772,0.2509266436100006,0.12505614757537842,0.6817829012870789,-1.3340612649917603,-3.2267889976501465,-0.39345446297600284,0.22485596056047616,0.7421205795554398
2.484384775161743,0.44972288608551025,0.24258720874786377,0.10483705997467041,0.725070595741272,-1.2158101797103882,-3.259615659713745,-0.39336415644520784,0.1982871366249061,0.7061261026184718
2.4959990978240967,0.4087740182876587,0.2475128173828125,0.10410064458847046,0.688592791557312,-1.099564552307129,-3.274777412414551,-0.39237633757252804,0.17282679682438937,0.6699068953033491
2.505368947982788,0.3779100775718689,0.2493644654750824,0.09498453140258789,0.5815394520759583,-0.9974414706230164,-3.291508913040161,-0.39136344707405096,0.14851769508088838,0.6336946868650261
2.51412296295166,0.3622283339500427,0.2286069691181183,0.09998083114624023,0.5215815901756287,-0.9147571921348572,-3.261502504348755,-0.3903957067815891,0.12523433934411773,0.5977025956451641
2.5243008136749268,0.32146069407463074,0.16866376996040344,0.14801663160324097,0.4780004620552063,-0.8096727728843689,-3.2260684967041016,-0.3891327324820147,0.10310336798265483,0.5622210509283707
2.53413987159729,0.23676173388957977,0.09089124202728271,0.17438006401062012,0.4338463246822357,-0.6839808821678162,-3.1869640350341797,-0.3875813740140426,0.08237720475097086,0.5272117485932765
2.544329881668091,0.1679612100124359,0.014008522033691406,0.17707741260528564,0.4209512174129486,-0.567409873008728,-3.1336357593536377,-0.385597584703323,0.06313881510369106,0.4927993837256898
2.554713010787964,0.13441917300224304,-0.06238856911659241,0.17066830396652222,0.43483373522758484,-0.46937593817710876,-3.072835922241211,-0.3830588661170463,0.04531683906384861,0.45908281488166985
2.5641090869903564,0.09830650687217712,-0.1308867335319519,0.16909748315811157,0.4957628548145294,-0.3710208833217621,-3.0025668144226074,-0.37957520458242827,0.028841588023585985,0.426148149493734
2.5742239952087402,0.04186365753412247,-0.16973456740379333,0.16555607318878174,0.5403002500534058,-0.24594180285930634,-2.9127652645111084,-0.3749128498024703,0.013978256215679812,0.39417976283470835
2.584343910217285,-0.013329432345926762,-0.1791052222251892,0.13239169120788574,0.47821277379989624,-0.13749100267887115,-2.809037208557129,-0.37006561394499,0.0009092511002640542,0.36337871053012377
2.5944740772247314,-0.031806640326976776,-0.1633264720439911,0.1408531665802002,0.4652085602283478,-0.06479043513536453,-2.70361590385437,-0.3652243334283738,-0.010741683634788949,0.33382333016193827
2.6045758724212646,-0.05355321615934372,-0.20322424173355103,0.20628035068511963,0.4535752534866333,0.05090274289250374,-2.5577592849731445,-0.3602096470060922,-0.02082879541816076,0.30571179045236235
2.61423397064209,-0.10413685441017151,-0.23121342062950134,0.25480562448501587,0.3042166531085968,0.17985379695892334,-2.42471981048584,-0.3557017589744464,-0.028901732265246324,0.2792375872601972
2.6242120265960693,-0.1377447247505188,-0.2104329764842987,0.3179389238357544,0.13496263325214386,0.26080697774887085,-2.3125789165496826,-0.35282432350466725,-0.03541877788803733,0.2540204261546474
2.634176015853882,-0.15687108039855957,-0.24949979782104492,0.3926525115966797,-0.06783761084079742,0.38166362047195435,-2.1687326431274414,-0.35157715554528635,-0.04045330472006965,0.23015746111574362
2.6442677974700928,-0.16429784893989563,-0.32654306292533875,0.3762597441673279,-0.266978919506073,0.49095815420150757,-2.041961193084717,-0.3525867468159457,-0.043743818232189154,0.20768190099925735
2.6553189754486084,-0.15607760846614838,-0.3395043611526489,0.32526540756225586,-0.3504762053489685,0.5822460055351257,-1.9136683940887451,-0.35490354377028493,-0.045715155324722846,0.1864327489289983
2.6642158031463623,-0.14220191538333893,-0.38863152265548706,0.2545250654220581,-0.3854549825191498,0.680252730846405,-1.7695021629333496,-0.35781137208580727,-0.046292381321862246,0.1666045971973308
2.6743268966674805,-0.13282978534698486,-0.4045511484146118,0.1547468900680542,-0.3236438035964966,0.7674765586853027,-1.6442779302597046,-0.3606035745149535,-0.04551185854066137,0.14819226564715393
2.6846330165863037,-0.1281455159187317,-0.3887883126735687,0.08959227800369263,-0.25518301129341125,0.8357082605361938,-1.53277587890625,-0.3628218185055205,-0.04352405701738781,0.13107590163049904
2.694415807723999,-0.12958136200904846,-0.3661305010318756,0.04785794019699097,-0.15476876497268677,0.8888236880302429,-1.4000799655914307,-0.3642763830873186,-0.040506404997609956,0.1152467039768008
2.704509973526001,-0.13121561706066132,-0.34743553400039673,0.02741098403930664,-0.04631653428077698,0.9074050188064575,-1.251318097114563,-0.36476315577587415,-0.03654028922430288,0.10105252083765226
2.7143008708953857,-0.12444517016410828,-0.31422358751296997,0.0389324426651001,-0.0010012523271143436,0.9222148656845093,-1.163456678390503,-0.36452509510230424,-0.03200559961108601,0.08812936668753009
2.7244760990142822,-0.13192936778068542,-0.24047404527664185,0.08337604999542236,-0.016108117997646332,0.9223389625549316,-1.0522488355636597,-0.364243390602946,-0.026978706653848886,0.07623930537271818
2.734416961669922,-0.1377086192369461,-0.19701537489891052,0.08886975049972534,-0.11859162151813507,0.8789422512054443,-0.9581785202026367,-0.3646172579957746,-0.02177504721472644,0.06548443917634753
2.7444651126861572,-0.10706788301467896,-0.21075627207756042,0.059677302837371826,-0.2585008144378662,0.8128785490989685,-0.8829604387283325,-0.36632494485710204,-0.016837534649593772,0.05558157596883096
2.754624128341675,-0.07783706486225128,-0.23999544978141785,0.014273345470428467,-0.38920077681541443,0.7725148797035217,-0.8213042616844177,-0.3694519587941917,-0.012221275293165811,0.046397395535979546
2.764540910720825,-0.06813729554414749,-0.24740737676620483,-0.051364779472351074,-0.470974326133728,0.7386482357978821,-0.7600287795066833,-0.3737548544210583,-0.00774543101281228,0.03785718648574278
2.774739980697632,-0.06779983639717102,-0.231575608253479,-0.10154896974563599,-0.43620702624320984,0.6961665153503418,-0.701621949672699,-0.37833926785473815,-0.0034592367987567956,0.029962761441083344
2.7845969200134277,-0.06584304571151733,-0.21117019653320312,-0.12069964408874512,-0.31852132081985474,0.6635980010032654,-0.6395134925842285,-0.3820975096021983,0.000659235044588921,0.02271951136950434
2.794419050216675,-0.070442795753479,-0.17732414603233337,-0.13984793424606323,-0.18545542657375336,0.6185229420661926,-0.5846862196922302,-0.3846784556765425,0.004618171047872186,0.01612209169724024
2.804581880569458,-0.06803213804960251,-0.1450716257095337,-0.14324641227722168,-0.030821481719613075,0.5631529092788696,-0.5301286578178406,-0.3857865516253057,0.008276755830098011,0.01010856919171762
2.814534902572632,-0.05939440056681633,-0.1375216245651245,-0.13142085075378418,0.08594561368227005,0.5137422680854797,-0.4871193766593933,-0.38554289229396876,0.011601185711984485,0.004608637024190009
2.8245599269866943,-0.05413408204913139,-0.11788463592529297,-0.11820262670516968,0.15035998821258545,0.48170211911201477,-0.43929699063301086,-0.38437507862802406,0.01469469211169105,-0.0004170024035853519
2.8345229625701904,-0.05272483825683594,-0.10953763127326965,-0.1017560362815857,0.14200298488140106,0.4410915672779083,-0.39397186040878296,-0.3829595079074859,0.01762544994962936,-0.004936612670094356
2.844573974609375,-0.04709520936012268,-0.1146569550037384,-0.07866877317428589,0.11074092239141464,0.3965723514556885,-0.3535389006137848,-0.38176713463914996,0.020314986865850242,-0.008985916915247909
2.8586549758911133,-0.038133859634399414,-0.12550202012062073,-0.05687892436981201,0.04617737978696823,0.35159236192703247,-0.3122465908527374,-0.38102308535796736,0.022704586997299835,-0.012596218516995617
2.866454839706421,-0.032170116901397705,-0.13774418830871582,-0.044445157051086426,-0.030497409403324127,0.296540230512619,-0.26765280961990356,-0.38102807283826895,0.024795433412000974,-0.015721165722732532
2.874363899230957,-0.0244606826454401,-0.143541157245636,-0.027678191661834717,-0.10911392420530319,0.25359463691711426,-0.2268928587436676,-0.3817828439243521,0.026558845634906538,-0.018365167215692212
2.884566068649292,-0.017615491524338722,-0.1539134681224823,-0.022016406059265137,-0.1831752210855484,0.22635790705680847,-0.18285563588142395,-0.38330852126530157,0.028145230145002562,-0.020544276914543438
2.8945090770721436,-0.0184122696518898,-0.15019872784614563,-0.030439257621765137,-0.2301216870546341,0.19284549355506897,-0.13507825136184692,-0.38544088949419114,0.029639286187338475,-0.022194652213563853
2.9046239852905273,-0.01509985700249672,-0.1490238904953003,-0.029910624027252197,-0.21852442622184753,0.17136816680431366,-0.0832909643650055,-0.3877804068335091,0.031034865271036927,-0.0233026743753978
2.9147799015045166,-0.01016031950712204,-0.15049901604652405,-0.019988656044006348,-0.1684253066778183,0.16282181441783905,-0.035639818757772446,-0.3897537476832686,0.03246750405290007,-0.02388444798393561
2.9247899055480957,-0.008165854960680008,-0.13610419631004333,-0.01670360565185547,-0.1021043136715889,0.15156184136867523,0.018256591632962227,-0.39110053695177766,0.034026132982098396,-0.02392416258228993
2.9345290660858154,-0.000766608864068985,-0.11679065227508545,-0.01722007989883423,-0.04891806095838547,0.14748533070087433,0.07042552530765533,-0.39183127677160157,0.03572281936821697,-0.023413206670262934
2.9448089599609375,0.00800822302699089,-0.11234509944915771,-0.016004502773284912,-0.004373929463326931,0.14234107732772827,0.11801977455615997,-0.3920402602487719,0.037575321348187606,-0.022380537042149606
2.9549858570098877,0.009897205978631973,-0.11884590983390808,-0.005090296268463135,0.026689980179071426,0.14581544697284698,0.15559245645999908,-0.39184270253339715,0.0395748334002968,-0.020900666928317983
2.9648189544677734,0.009580273181200027,-0.11383599042892456,0.00665593147277832,0.019305983558297157,0.14539754390716553,0.18794241547584534,-0.39155660902851036,0.04174725110523909,-0.019051110975137172
2.975472927093506,0.010178249329328537,-0.10000160336494446,0.013593137264251709,0.013609481044113636,0.1365462690591812,0.20816192030906677,-0.3912983004574068,0.043986611691865254,-0.01690631069630002
2.9849131107330322,0.012866202741861343,-0.09457191824913025,0.023418068885803223,-0.003108661388978362,0.13426417112350464,0.22433923184871674,-0.39113586133016004,0.04624459843279491,-0.014561541236655111
2.994933843612671,0.014127910137176514,-0.08330824971199036,0.02289283275604248,0.0009260277729481459,0.13142256438732147,0.23736421763896942,-0.3910504303786886,0.048528348075812175,-0.012065811282962217
3.004944086074829,0.01420867070555687,-0.06533041596412659,0.0211525559425354,0.004072885029017925,0.12411912530660629,0.24261315166950226,-0.3908986630107606,0.050800784304531305,-0.00947515858035429
3.0147809982299805,0.018634144216775894,-0.04732656478881836,0.018400907516479492,0.018788713961839676,0.12269166857004166,0.2465445101261139,-0.3906692849198366,0.053042843774874594,-0.006830399495752859
3.0248258113861084,0.0213947631418705,-0.03291991353034973,0.015368640422821045,0.03187740221619606,0.11621551960706711,0.2494792491197586,-0.3902872051153984,0.055250008131080885,-0.004161352350547148
3.0347020626068115,0.02286265417933464,-0.03111475706100464,0.008774340152740479,0.055194441229104996,0.11149720102548599,0.24473750591278076,-0.38902859314330224,0.0574314378180614,-0.0015062342811915045
3.0448191165924072,0.02350854128599167,-0.02867758274078369,0.0036466121673583984,0.07316268980503082,0.10856851935386658,0.2365233600139618,-0.387598839477125,0.05953863671950054,0.0010720585196567888
3.054863929748535,0.02124304696917534,-0.02343839406967163,0.0009813308715820312,0.08861807733774185,0.10238253325223923,0.22860977053642273,-0.38611013047906406,0.06155648813398437,0.0035439802367380905
3.064911127090454,0.019745249301195145,-0.015680581331253052,-0.003157496452331543,0.0839504599571228,0.09373711049556732,0.2195003181695938,-0.38460483091633957,0.06346773655776537,0.005914396892727832
3.0748260021209717,0.018945060670375824,-0.010482192039489746,-0.007396996021270752,0.07445202767848969,0.08684644848108292,0.2031698226928711,-0.38321124273327717,0.06525271674214903,0.008152174790476717
3.0865139961242676,0.0162440687417984,-0.007167220115661621,-0.008394300937652588,0.04801487550139427,0.07762183994054794,0.1874253749847412,-0.3821379971422104,0.06688927324228136,0.010239791909886057
3.0949599742889404,0.014938503503799438,-0.0044228434562683105,-0.007651984691619873,0.03423381596803665,0.06317418813705444,0.17480731010437012,-0.3813675618365261,0.06837726197617114,0.012188915943803615
3.105050802230835,0.012776568531990051,-0.00563010573387146,-0.003340482711791992,0.022861020639538765,0.05300384387373924,0.16398657858371735,-0.380827073531911,0.06970822369550608,0.014025517309238835
3.1150801181793213,0.008860521018505096,-0.004332602024078369,-0.0018047094345092773,0.014021988958120346,0.05008022487163544,0.15132831037044525,-0.3803334659296628,0.07095702879918205,0.015750325264731753
3.1250739097595215,0.005122147500514984,0.0011405646800994873,-0.004047989845275879,0.014759018085896969,0.04591885581612587,0.14237698912620544,-0.379829225200594,0.07216160074542315,0.017381770177363393
3.137403964996338,0.0005166083574295044,-0.0010297000408172607,-0.0024374723434448242,0.014445031993091106,0.040843404829502106,0.13172248005867004,-0.37930728276208525,0.07331308834662692,0.01891265225077684
3.1450579166412354,-0.004181019961833954,-0.007198423147201538,-0.0007277131080627441,0.014577208086848259,0.03361758217215538,0.11907140910625458,-0.3787697877563,0.07441494048126503,0.02033547299436496
3.15503191947937,-0.009431704878807068,-0.012328773736953735,0.003091752529144287,0.027900204062461853,0.019099893048405647,0.10756655037403107,-0.3782479370682645,0.07535626380535894,0.021624640699242324
3.164949893951416,-0.011677905917167664,-0.017993897199630737,0.004817068576812744,0.04898366704583168,0.012257566675543785,0.09716759622097015,-0.3776120881247769,0.07606495713561152,0.022748901898877752
3.1749918460845947,-0.011346787214279175,-0.020749419927597046,0.0056885480880737305,0.06644494831562042,0.0071091428399086,0.09526769816875458,-0.3768667223645686,0.07667281831938438,0.02378890218497182
3.1869359016418457,-0.010746940970420837,-0.01628360152244568,0.004653275012969971,0.08439871668815613,0.002496459288522601,0.09082213789224625,-0.37596971636862203,0.07718340642288701,0.024768576636425205
3.1949949264526367,-0.012728378176689148,-0.014516592025756836,0.007726848125457764,0.09896301478147507,-0.001601613126695156,0.09325972944498062,-0.3749560599911507,0.07757776518740431,0.025704848348764263
3.2050509452819824,-0.01582176983356476,-0.013142049312591553,0.009812414646148682,0.09980473667383194,-0.004678628873080015,0.09604284167289734,-0.37398738225329187,0.0778889706774922,0.026628577931022114
3.2149579524993896,-0.014214642345905304,-0.008841395378112793,0.008743703365325928,0.08602287620306015,-0.010744243860244751,0.09377888590097427,-0.37307210548722103,0.07806931700921328,0.027529510510999843
3.225158929824829,-0.01109132170677185,-0.00941506028175354,0.011675417423248291,0.06616368889808655,-0.017126066610217094,0.08968251943588257,-0.3722135740815802,0.07813031509500327,0.02840024335616517
3.237090826034546,-0.011456675827503204,-0.011644363403320312,0.013836562633514404,0.04301415756344795,-0.020691506564617157,0.08458603173494339,-0.37152727408336633,0.07805916325799345,0.02921432529293272
3.2452828884124756,-0.011306501924991608,-0.011334836483001709,0.012930750846862793,0.032548271119594574,-0.022480972111225128,0.07495715469121933,-0.37090043021501556,0.07789488544576917,0.02994612953777919
3.255250930786133,-0.010543853044509888,-0.006765931844711304,0.009328126907348633,0.03089471161365509,-0.021522503346204758,0.06798340380191803,-0.37030412215632186,0.07772935794830273,0.030609836377879427
3.2652628421783447,-0.010781712830066681,-0.0009613931179046631,0.002354264259338379,0.04238230735063553,-0.01619870960712433,0.05866239219903946,-0.369741006526005,0.07759069053752414,0.031193717975549665
3.2751028537750244,-0.008809275925159454,0.0017687976360321045,-0.004710495471954346,0.06683705002069473,-0.013548864051699638,0.04869338124990463,-0.3690549854515508,0.07741799430056875,0.03164134561532955
3.286987066268921,-0.007789447903633118,0.004778653383255005,-0.004910945892333984,0.10046310722827911,-0.012896876782178879,0.03448978438973427,-0.36813479373386193,0.07716347331976364,0.03192182189054532
3.295175790786743,-0.004848144948482513,0.008473724126815796,-0.0003895759582519531,0.12582944333553314,-0.015464963391423225,0.018763817846775055,-0.3669876296644435,0.07687091838965136,0.03203245247596684
3.305137872695923,-0.0021144822239875793,0.012221068143844604,0.0031800270080566406,0.1427570879459381,-0.027123086154460907,0.005265533458441496,-0.3656542643187106,0.07650127596677599,0.03199772517000189
3.3151071071624756,0.0010457336902618408,0.012083649635314941,0.00975346565246582,0.13543924689292908,-0.034263551235198975,-0.00721190869808197,-0.3642659064856082,0.0759838892968482,0.03180984613812106
3.325284957885742,0.004682116210460663,0.012599259614944458,0.012464821338653564,0.10832417756319046,-0.03604112192988396,-0.016412969678640366,-0.36306111962569515,0.0754036446733732,0.03152317470784275
3.3365418910980225,0.003933317959308624,0.013687431812286377,0.01270449161529541,0.0693482831120491,-0.038379646837711334,-0.024074885994195938,-0.36228896239344416,0.0747936105247117,0.031186458198982508
3.3451919555664062,0.0025304406881332397,0.008510202169418335,0.014516890048980713,0.03562824800610542,-0.03901423513889313,-0.02883928082883358,-0.36195112685906705,0.07414494165242659,0.030802978865674374
3.3552210330963135,0.0007507279515266418,-0.0005099475383758545,0.0158652663230896,0.02314894273877144,-0.037314869463443756,-0.035538993775844574,-0.36183926675651273,0.07353051049721113,0.030398649034987242
3.3651859760284424,-0.0017951354384422302,-0.0057014524936676025,0.018155813217163086,0.019966579973697662,-0.03225544095039368,-0.0398792028427124,-0.36185936737830293,0.07295597582567348,0.029957245182563787
3.3754208087921143,-0.002535782754421234,-0.0018887817859649658,0.016984522342681885,0.03452581539750099,-0.033684223890304565,-0.0409679040312767,-0.36186151387114546,0.07244137568844673,0.029499209450214947
3.387208938598633,-0.00014410167932510376,-0.0015407204627990723,0.013498306274414062,0.04610485956072807,-0.03124508261680603,-0.0389002226293087,-0.3617993606897849,0.0719695295390875,0.029042640637312638
3.395374059677124,0.00036829710006713867,-0.001672983169555664,0.012409090995788574,0.0594230592250824,-0.02732943743467331,-0.040547654032707214,-0.36163075876051165,0.07157923233805943,0.028595790365678803
3.4052278995513916,0.0015468299388885498,-0.003992170095443726,0.016190946102142334,0.06076696142554283,-0.02076501026749611,-0.0388798788189888,-0.3613859335476104,0.07130708329549112,0.02817076043266396
3.415424108505249,-0.0007370039820671082,-0.006861358880996704,0.01958686113357544,0.05087944120168686,-0.018743405118584633,-0.03810436651110649,-0.3611907555848386,0.07106753042390061,0.027758007735431203
3.4253828525543213,0.0030221864581108093,-0.010089486837387085,0.018044233322143555,0.04052167385816574,-0.014233429916203022,-0.03508694842457771,-0.3610204395681334,0.0708444572795965,0.02737149612599927
3.4363930225372314,0.008149884641170502,-0.011884540319442749,0.015642404556274414,0.03551945835351944,-0.008099636994302273,-0.03313644975423813,-0.3607699516170256,0.07065711728139461,0.02700381617232564
3.4452688694000244,0.01055726408958435,-0.011324584484100342,0.012404978275299072,0.03530728444457054,-0.009137338027358055,-0.031906869262456894,-0.3604650258868421,0.0704728994993388,0.026645006659644175
3.4553329944610596,0.012500643730163574,-0.008132964372634888,0.00928032398223877,0.030935177579522133,-0.0073578134179115295,-0.029629334807395935,-0.360234037287265,0.07026471088374911,0.0262907651849003
3.4653050899505615,0.016233526170253754,-0.009603023529052734,0.01022958755493164,0.03411206230521202,-0.004455056507140398,-0.031809981912374496,-0.3599950400171236,0.0701008477456907,0.02595063781524863
3.4754209518432617,0.014433018863201141,-0.014290720224380493,0.009060502052307129,0.022381635382771492,-0.0025817896239459515,-0.030964162200689316,-0.35978658617991,0.06996457070724407,0.02560666160768021
3.4877078533172607,0.01582113653421402,-0.011338621377944946,0.004316985607147217,0.022064518183469772,-0.008877769112586975,-0.029384268447756767,-0.35963220952698627,0.0698302302435544,0.025286231951637976
3.4954419136047363,0.019259139895439148,-0.0118865966796875,0.005105257034301758,0.018456202000379562,-0.011951323598623276,-0.026426563039422035,-0.3594677777366959,0.06962471576141832,0.024972314720695016
3.505898952484131,0.01963961124420166,-0.013159036636352539,0.0047484636306762695,0.013855856843292713,-0.009314615279436111,-0.021703500300645828,-0.35929484977433335,0.06947419699540225,0.024711155306981564
3.5156590938568115,0.01831616461277008,-0.007127910852432251,0.0015538930892944336,0.005698595196008682,-0.007382225710898638,-0.015967849642038345,-0.35914397457641334,0.06943321675479996,0.02453207777922811
3.525460958480835,0.018807485699653625,-0.006497234106063843,-0.00030368566513061523,0.0006023868918418884,-0.008583445101976395,-0.010686375200748444,-0.35904074908473604,0.06945993522228287,0.024437970889013467
3.537061929702759,0.0167771577835083,-0.009769469499588013,0.0027698278427124023,0.004077279474586248,-0.007666784804314375,-0.006719330791383982,-0.3589665986875217,0.06952432709325224,0.024410710793234005
3.545517921447754,0.013100765645503998,-0.013343989849090576,0.005064129829406738,0.005520196631550789,-0.011127075180411339,-0.00018425291636958718,-0.3588404732818886,0.06965067448883401,0.024453132331493353
3.555730104446411,0.009415440261363983,-0.01619318127632141,0.008185088634490967,0.006991859525442123,-0.01125943474471569,0.003535117954015732,-0.3586241223326284,0.0697515586875868,0.0245286648928492
3.565422773361206,0.007770717144012451,-0.01316097378730774,0.011785924434661865,0.013408961705863476,-0.009750353172421455,0.007230573799461126,-0.35838428053834775,0.06987248488897041,0.024652608247714456
3.5753610134124756,0.00380079448223114,-0.009836137294769287,0.011692047119140625,0.020948372781276703,-0.0025667427107691765,0.011090559884905815,-0.35804384084745194,0.07009504508167733,0.024832676766233845
3.5865039825439453,-0.00016796588897705078,-0.008640438318252563,0.009070038795471191,0.02153937518596649,-0.0001581348478794098,0.010925070382654667,-0.3576306523056595,0.07039604040391705,0.02503036115087179
3.595590829849243,-0.001164950430393219,-0.007112771272659302,0.005088627338409424,0.02135162241756916,-0.006040525157004595,0.008301324211061,-0.35731925988292945,0.07063828116009133,0.02520864347594492
3.605681896209717,-9.047240018844604e-05,-0.009320199489593506,0.008327603340148926,0.021879296749830246,-0.003761214204132557,0.008322203531861305,-0.3570043968278912,0.07085172914853663,0.025367531723463184
3.615665912628174,-0.0030245110392570496,-0.010816574096679688,0.013387680053710938,0.008986400440335274,0.003118529450148344,0.010086813941597939,-0.3567123304557028,0.07109353582084788,0.025533685972847373
3.6255829334259033,-0.0060999467968940735,-0.007045865058898926,0.015254557132720947,-0.0033225633669644594,0.006945136468857527,0.014906815253198147,-0.3565150002759435,0.07135848766382051,0.02572724310849097
3.636619806289673,-0.005708135664463043,-0.004836022853851318,0.015419304370880127,0.0014937634114176035,0.011785165406763554,0.01978013478219509,-0.35633880619308744,0.07163656885223009,0.025951665631849922
3.6457178592681885,-0.0056312307715415955,-0.0087338387966156,0.01334679126739502,0.017488393932580948,0.02198627218604088,0.023485708981752396,-0.3561344264229697,0.07197322181280043,0.026208991961045234
3.6557400226593018,-0.007465451955795288,-0.006787478923797607,0.007573068141937256,0.030175425112247467,0.027305936440825462,0.024821018800139427,-0.3558160728434939,0.07234345597277075,0.026459131302195002
3.665550947189331,-0.005705133080482483,-0.003080904483795166,0.004395425319671631,0.046370506286621094,0.02917511947453022,0.02625422552227974,-0.3553616936587806,0.07270061138935044,0.026700372742011428
3.6755928993225098,-0.0025009885430336,-0.0024712681770324707,0.008013129234313965,0.0514661967754364,0.028165780007839203,0.022750571370124817,-0.35480914950557985,0.07302853046738077,0.026905509680376437
3.6867918968200684,-6.113201379776001e-05,-0.0002264082431793213,0.010888099670410156,0.04842660203576088,0.03337598964571953,0.016440797597169876,-0.3542377326199291,0.07337359092665925,0.027062722826614368
3.695621967315674,8.509308099746704e-05,-0.0003180205821990967,0.012376964092254639,0.027752481400966644,0.02924516052007675,0.009904866106808186,-0.3537985567015226,0.0736783554254863,0.027156879637597227
3.7056658267974854,-0.002097614109516144,-0.0009583830833435059,0.01662522554397583,0.014153948053717613,0.02688266895711422,0.005553421098738909,-0.35360285182048773,0.07390211059422674,0.027195591779396563
3.7156379222869873,-0.0018924996256828308,-0.001102358102798462,0.017177700996398926,-0.0020905351266264915,0.026728473603725433,0.002121405676007271,-0.35359365037535456,0.07412297084911383,0.027215434540961665
3.725644826889038,-0.002139262855052948,-0.0010298192501068115,0.01318049430847168,-0.009122895076870918,0.021422790363430977,-0.002715321257710457,-0.3536464723601313,0.07429032393205577,0.02719158762469201
3.737497091293335,-0.0023693665862083435,-0.0011960268020629883,0.012006044387817383,-0.005667443387210369,0.023874763399362564,-0.004815489985048771,-0.35370977921115687,0.07440754733406732,0.027127430553192007
3.7457621097564697,-0.005230836570262909,-0.0008183419704437256,0.008930742740631104,0.002079808386042714,0.02553440071642399,-0.0073972116224467754,-0.3537463285156879,0.07456398509095563,0.027035977676483726
3.7560489177703857,-0.0054303184151649475,0.0005155503749847412,0.004032552242279053,0.00915209949016571,0.025283263996243477,-0.009264886379241943,-0.353706998025165,0.07475983860838847,0.026926911500664417
3.7656819820404053,-0.006240181624889374,-0.002331554889678955,0.0028687715530395508,0.019799651578068733,0.022931603714823723,-0.01166567299515009,-0.353635221460189,0.07495480282270044,0.026809937617632177
3.7757928371429443,-0.00714951753616333,-0.005074918270111084,0.007936716079711914,0.027322014793753624,0.015570094808936119,-0.012189783155918121,-0.3534691657094473,0.07509038461714201,0.026663928940330872
3.7867400646209717,-0.00738891214132309,-0.0021935701370239258,0.013910055160522461,0.030015751719474792,0.011374950408935547,-0.013877108693122864,-0.3532604792184648,0.07514475605760676,0.02649132913339299
3.7956697940826416,-0.01062127947807312,0.0034730136394500732,0.013041257858276367,0.023789547383785248,0.008680097758769989,-0.01373676024377346,-0.3530756501352868,0.07516957711873916,0.026317540912438864
3.8058009147644043,-0.011075042188167572,0.0012451112270355225,0.006837248802185059,0.02467130310833454,0.0020305837970227003,-0.014875954017043114,-0.352929429422393,0.07514493090213356,0.02614595561079923
3.815830945968628,-0.00953434407711029,-0.003596574068069458,-0.00015991926193237305,0.033846959471702576,-0.0018262057565152645,-0.013145698234438896,-0.35270672857540986,0.075057694249261,0.025960015873910326
3.825929880142212,-0.010675586760044098,-0.002374798059463501,-0.006160736083984375,0.041356056928634644,-0.006076744291931391,-0.014987592585384846,-0.35239665310301066,0.07489900226099115,0.025757982447207305
3.837425947189331,-0.008268781006336212,0.0027407407760620117,-0.008917450904846191,0.05573206767439842,-0.01346009224653244,-0.0132112642750144,-0.35198612326633577,0.0746638357963232,0.025541473703723144
3.8459150791168213,-0.0054100751876831055,-0.0003603696823120117,-0.00746387243270874,0.06928399950265884,-0.022559313103556633,-0.014124622568488121,-0.3513723182034345,0.07434796332797032,0.02532252771486865
3.8561089038848877,-0.004481762647628784,-0.002037614583969116,-0.003974735736846924,0.07287873327732086,-0.03367268666625023,-0.013727812096476555,-0.3506722834905509,0.07392420982074371,0.02507901567372998
3.865809917449951,-0.00193052738904953,0.0009534955024719238,-0.0016573667526245117,0.06655009835958481,-0.045718517154455185,-0.010885579511523247,-0.3500707685696723,0.07339978772827863,0.024858857131313732
3.8761417865753174,0.002440899610519409,0.000658184289932251,-0.003347635269165039,0.061697281897068024,-0.04964428395032883,-0.003993851598352194,-0.34960547478973936,0.07277684680991653,0.024685617368544906
3.8878400325775146,0.0027796179056167603,-0.0014681220054626465,-0.004458308219909668,0.04463047906756401,-0.05537594109773636,0.0030766811687499285,-0.3491889304161392,0.07212757462426045,0.024593113922215595
3.8959319591522217,0.006420843303203583,-0.0001716315746307373,-0.006116032600402832,0.024875152856111526,-0.05599405989050865,0.013419866561889648,-0.34884848533696616,0.07150603592451452,0.024624264540365686
3.9059298038482666,0.010427236557006836,-0.004662811756134033,-0.0010924935340881348,0.012593336403369904,-0.05724712088704109,0.024296214804053307,-0.3486428149582781,0.07090555535153861,0.02477386556302485
3.9158718585968018,0.01370634138584137,-0.010998338460922241,0.0033434033393859863,0.0055386219173669815,-0.057315561920404434,0.033910494297742844,-0.348581216562236,0.07036849413862084,0.025052325210779335
3.925935983657837,0.017397701740264893,-0.010499686002731323,0.006680011749267578,0.0030553743708878756,-0.05519866198301315,0.04211169853806496,-0.34850523860729754,0.06991221924314764,0.025442142490279693
3.937256097793579,0.019358031451702118,-0.009328365325927734,0.014195084571838379,-0.003195597091689706,-0.04592686519026756,0.051982440054416656,-0.34846033667670206,0.06956162043591976,0.025947053712307242
3.9459309577941895,0.01712872087955475,-0.012399047613143921,0.016869664192199707,-0.013382621109485626,-0.037347935140132904,0.0600271038711071,-0.3485292189238928,0.0693697164072665,0.02655551085360446
3.9559547901153564,0.013355590403079987,-0.015362799167633057,0.019541800022125244,-0.019410420209169388,-0.02632777765393257,0.06394727528095245,-0.3486628701563669,0.069345026200264,0.027245730201755674
3.9660098552703857,0.0095578134059906,-0.017509788274765015,0.02603769302368164,-0.022709093987941742,-0.010260969400405884,0.06278592348098755,-0.34878794309902306,0.06946033059198656,0.02796344977134174
3.9761788845062256,0.0016378387808799744,-0.016457736492156982,0.030087947845458984,-0.020501598715782166,0.005411733407527208,0.05797732248902321,-0.3489349722191726,0.06975774595786514,0.028657992866451834
3.9872729778289795,-0.0037637054920196533,-0.014312386512756348,0.029546678066253662,-0.007438395172357559,0.018254738301038742,0.05095285922288895,-0.34895773258589197,0.07021402137371031,0.0292978147402584
3.9959518909454346,-0.004805423319339752,-0.011879056692123413,0.026180565357208252,0.006059037521481514,0.028394989669322968,0.04303022101521492,-0.3487877048062782,0.07076747598870504,0.029842497479213314
4.00597882270813,-0.005287162959575653,-0.004274636507034302,0.01904165744781494,0.02195143513381481,0.040920060127973557,0.03283713385462761,-0.34852206058427926,0.07140469681375074,0.03028779059946689
4.015959024429321,-0.007161878049373627,8.615851402282715e-05,0.01149076223373413,0.038217224180698395,0.04738781228661537,0.02616218663752079,-0.3481520857390653,0.07210890164738332,0.03063618504830009
4.026058912277222,-0.008462652564048767,0.00035256147384643555,0.008829474449157715,0.050952326506376266,0.05210888758301735,0.02069721929728985,-0.34762526528258814,0.07281512232526491,0.030898190081347504
4.0368359088897705,-0.007463596761226654,0.005091071128845215,0.00735163688659668,0.05020850524306297,0.053642068058252335,0.0160212405025959,-0.3470322314508283,0.07349134453634908,0.031070317579629005
4.045939922332764,-0.006243668496608734,0.009007364511489868,0.0023363828659057617,0.05527042597532272,0.05227014049887657,0.013191847130656242,-0.3464374928933834,0.07412701991574017,0.03119996840143314
4.0562639236450195,-0.002210862934589386,0.004928529262542725,3.832578659057617e-05,0.05189007520675659,0.04735101759433746,0.008565936237573624,-0.3458585575093998,0.07465971845450772,0.03127525573419129
4.066241025924683,-0.0005453228950500488,0.004851937294006348,-0.0025267601013183594,0.05229569226503372,0.04216082766652107,0.006616608239710331,-0.3453237119701533,0.07508188927895963,0.03129400500176427
4.076869964599609,0.00019897520542144775,0.007942736148834229,-0.004236042499542236,0.04560636356472969,0.03596578165888786,0.007354037836194038,-0.3448444072718596,0.07543024599131527,0.03130487504866591
4.086872816085815,0.0017994791269302368,0.007267951965332031,-0.004409670829772949,0.037263110280036926,0.02574234828352928,0.006431731395423412,-0.344491364449531,0.07568257158185836,0.03131852056248874
4.096110105514526,0.002612069249153137,0.004883825778961182,-0.0036893486976623535,0.027530325576663017,0.020207233726978302,0.007003512233495712,-0.3442683877250211,0.07583493827541186,0.031331095331316686
4.1064629554748535,0.00023212283849716187,0.0016412436962127686,-0.0004246234893798828,0.014146525412797928,0.013857681304216385,0.007956977002322674,-0.3441631257534,0.07591291316890905,0.03134742710456548
4.116301774978638,-0.0013951733708381653,-0.0013152062892913818,0.002345263957977295,0.010500923730432987,0.010332722216844559,0.01043744571506977,-0.34417533716062865,0.07595625484041794,0.03140195126894498
4.1263267993927,-0.0038611814379692078,-0.0016196370124816895,0.003734111785888672,0.00861783605068922,0.008181331679224968,0.010469935834407806,-0.3442556013346266,0.07600091362823319,0.03148747066658029
4.137390851974487,-0.005887731909751892,-0.0027365684509277344,0.0030517578125,0.012985419481992722,0.0056936731562018394,0.01343723013997078,-0.34422643104715034,0.07607834315431054,0.03159306802750348
4.146209955215454,-0.004533246159553528,-0.0071811676025390625,0.0018575191497802734,0.018938783556222916,0.0013555609621107578,0.014390535652637482,-0.3441337023776015,0.07614462175236013,0.03172866812913908
4.156258821487427,-0.0021895915269851685,-0.006735563278198242,0.0038637518882751465,0.020865313708782196,-0.005495687481015921,0.017659831792116165,-0.3440169542671248,0.07616429053042285,0.031879915469551136
4.166301012039185,-0.002986498177051544,-0.005318254232406616,0.00925588607788086,0.016804426908493042,-0.005981092341244221,0.022219324484467506,-0.34390538344975263,0.07618117243887858,0.03207688491985876
4.176573038101196,-0.0030109360814094543,-0.0057891011238098145,0.011098027229309082,0.006609578616917133,-0.009058641269803047,0.022385772317647934,-0.34382200590016493,0.07620491325120037,0.03230035457296928
4.187792062759399,-0.0029078349471092224,-0.009756922721862793,0.011288464069366455,-0.0021529861260205507,-0.015473220497369766,0.02789265662431717,-0.34380638371159666,0.07617593190684828,0.03256365570245235
4.196999788284302,-0.001951664686203003,-0.012874066829681396,0.014156699180603027,-0.005390058271586895,-0.019670628011226654,0.027307292446494102,-0.34382719552972973,0.07608444656106163,0.03285675203912785
4.206752061843872,-0.003158293664455414,-0.009780645370483398,0.016389012336730957,-0.001936737447977066,-0.02302168309688568,0.027073200792074203,-0.34384781227449746,0.07592372209971673,0.0331324272973426
4.216217994689941,-0.004502691328525543,-0.00583261251449585,0.014150857925415039,-0.012223197147250175,-0.03277577832341194,0.02447661943733692,-0.34388444851253186,0.07568263707958399,0.03339543273500929
4.22627592086792,-0.004274427890777588,-0.003947466611862183,0.011927187442779541,-0.020130937919020653,-0.03963444009423256,0.019268326461315155,-0.3439404423071756,0.07535971867899195,0.033624044115247255
