timestamp,accel_x,accel_y,accel_z,rotation_x,rotation_y,rotation_z, pitch,roll,yaw
0.04339194297790527,-0.005723483860492706,-0.004778850823640823,0.006842851638793945,0.017008190974593163,0.01363353244960308,-0.0073648737743496895,0.03496222202374977,0.07343086879406026,-0.001284360721848585
0.05659317970275879,-0.0016162395477294922,-0.008592303842306137,0.005559325218200684,0.019134191796183586,0.01465192623436451,-0.008068215101957321,0.035131422213637256,0.07358176655849245,-0.0013757103442890149
0.07094597816467285,-0.0005955696105957031,-0.010658640414476395,0.007878541946411133,0.01147723849862814,0.013213463127613068,-0.01017402857542038,0.035277699179677637,0.07372160064840406,-0.0014819771497614751
0.07231903076171875,0.0005620718002319336,-0.01664336398243904,0.010004639625549316,0.0018397911917418242,0.009011262096464634,-0.010073361918330193,0.03533549250084947,0.07383096013924288,-0.001576441199631508
0.07895493507385254,0.0034415200352668762,-0.02019171044230461,0.012044191360473633,-0.005286877509206533,0.005260865204036236,-0.008454639464616776,0.035311912209138485,0.07391192755768762,-0.001661838496325919
0.08335399627685547,0.003179684281349182,-0.019561219960451126,0.010366976261138916,-0.007003817707300186,-0.0006063450127840042,-0.003377589164301753,0.035240447870545095,0.07392948251300807,-0.0017119358720171264
0.09218406677246094,0.002693548798561096,-0.01881379634141922,0.007317602634429932,0.0011706885416060686,-0.0012430180795490742,0.0019484134390950203,0.035209657794887717,0.07391194819548147,-0.0017080813824069028
0.09852194786071777,0.0017963126301765442,-0.01766018196940422,0.004996538162231445,0.008075200021266937,0.001485656714066863,0.009158123284578323,0.03526467116207687,0.07390904027786606,-0.0016536365918214345
0.10853886604309082,0.0001751333475112915,-0.01558799296617508,0.0013914704322814941,0.009529352188110352,-0.0001520095393061638,0.013729492202401161,0.03536854428751379,0.07391308234691221,-0.0015407433354978964
0.11916708946228027,-0.0019084513187408447,-0.015516452491283417,0.0008243322372436523,0.007060336414724588,-0.001383987721055746,0.014095943421125412,0.03545540013199842,0.07390642422038868,-0.0013991806926569443
0.12854886054992676,-0.0037842392921447754,-0.017438117414712906,0.004807531833648682,-0.0008460730314254761,-0.0029500597156584263,0.019175229594111443,0.03550214866224803,0.07387487599911144,-0.0012339900074752287
0.1385819911956787,-0.002239026129245758,-0.017304670065641403,0.006870746612548828,-0.006183047778904438,-0.002863507252186537,0.020857548341155052,0.035482996790133066,0.07384011300449929,-0.0010355318381934397
0.14864802360534668,-0.004660382866859436,-0.014426685869693756,0.00612640380859375,-0.005059277173131704,-7.75512307882309e-06,0.018267998471856117,0.03543125489982194,0.07381985070920934,-0.0008374361640140456
0.15877795219421387,-0.0032502710819244385,-0.014806333929300308,0.007744193077087402,0.003039928385987878,-0.000563823152333498,0.021394548937678337,0.03543308063398858,0.07381354306629766,-0.000638144738589866
0.16867899894714355,-0.003068283200263977,-0.010218337178230286,0.008321404457092285,0.008379366248846054,0.0017311116680502892,0.01847119629383087,0.03550452240833111,0.07381485713313451,-0.0004313400680957349
0.17888307571411133,-0.0027583837509155273,-0.0045573897659778595,0.00616532564163208,0.011669169180095196,0.0007358882576227188,0.014466867782175541,0.03561133843046902,0.0738256985573176,-0.00027426610436720504
0.18889307975769043,-0.002242565155029297,-0.005741376429796219,0.007226407527923584,0.01648319885134697,0.002486828016117215,0.009540126658976078,0.03577022556224685,0.07384442383071335,-0.00016398024964357012
0.19937396049499512,-0.003336407244205475,-0.006278723478317261,0.008368909358978271,0.007193560712039471,0.0019336894620209932,0.004486778751015663,0.036255532551023296,0.07384091668951562,-9.89630896034326e-05
0.20877408981323242,-0.002845190465450287,-0.0041651651263237,0.0065888166427612305,-0.005589312873780727,-0.004168589133769274,-0.0005451575852930546,0.036660374751435146,0.07377781305674957,-7.774422908933509e-05
0.21907901763916016,-0.0002990514039993286,-0.005221989005804062,0.006416499614715576,-0.01408506277948618,-0.0050578187219798565,-0.004483972676098347,0.036931244129965166,0.07370407610422289,-9.686819463062587e-05
0.228956937789917,-0.002272762358188629,-0.008430339395999908,0.005228817462921143,-0.016299713402986526,-0.0025854287669062614,-0.004124978557229042,0.0370646663449563,0.07360261919604685,-0.00013440800677593212
0.23866915702819824,-0.0036357492208480835,-0.006347820162773132,0.0043256282806396484,-0.011680461466312408,0.0011390019208192825,-0.006333804689347744,0.03722468817740218,0.07356209010700988,-0.00016831090017614393
0.2486870288848877,-0.0034116357564926147,-0.005410481244325638,0.004812121391296387,-0.007122944109141827,-0.00022049760445952415,-0.008988017216324806,0.03732286228786108,0.07353652441959074,-0.00024262903698742586
0.25873494148254395,-0.002495497465133667,-0.007409349083900452,0.006156623363494873,-0.0020621391013264656,-0.00032622506842017174,-0.009745419956743717,0.037338163540046404,0.07350533352256286,-0.00033015384105708956
0.26879096031188965,-0.002830296754837036,-0.009103961288928986,0.011493325233459473,0.0014966598246246576,0.004665471147745848,-0.008510353043675423,0.0374136248061424,0.07351995354304541,-0.0004206300678606894
0.27916598320007324,-0.0049098581075668335,-0.009915638715028763,0.012919425964355469,0.006475439295172691,0.006512106861919165,-0.006208582781255245,0.03756335670224321,0.07355537306201207,-0.0004999457184025455
0.2888510227203369,-0.0060989707708358765,-0.012172315269708633,0.01361173391342163,0.0025453793350607157,0.01249605230987072,-0.00858412217348814,0.037671862342377675,0.0736311427084424,-0.0005779393009665516
0.2994048595428467,-0.004355736076831818,-0.012607675045728683,0.012407898902893066,0.005806153640151024,0.00933647807687521,-0.003537698183208704,0.037801175233650966,0.0737502582385307,-0.0006389060885566774
0.3090250492095947,-0.0018724426627159119,-0.010915908962488174,0.008853316307067871,0.009819870814681053,0.01066894643008709,-0.0003038217546418309,0.03802825720856788,0.07383134316586434,-0.0006702290272677791
0.3187592029571533,-0.0007224529981613159,-0.009787891060113907,0.00623011589050293,0.014394115656614304,0.010806632228195667,0.002349219052121043,0.038256171175121985,0.07390294886360639,-0.0006579558991175048
0.3289601802825928,-0.0009420514106750488,-0.011030633002519608,0.0053021907806396484,0.011423309333622456,0.008407611399888992,-0.00034632591996341944,0.03847844115128484,0.07395552241311748,-0.0006535324158114133
0.33894896507263184,-0.0013633295893669128,-0.011940047144889832,0.006357729434967041,0.0069768959656357765,0.007437155582010746,0.001342384610325098,0.0386983420807847,0.07401140434967783,-0.0006543342995372033
0.34897899627685547,-0.001119472086429596,-0.01366393268108368,0.004959762096405029,-0.0014090822078287601,0.005624741315841675,0.0051879361271858215,0.03888193950714541,0.07404283921956309,-0.0006274911750060063
0.3595120906829834,-0.0006766840815544128,-0.014212582260370255,0.006099343299865723,-0.0014674053527414799,0.0010153423063457012,0.007257744669914246,0.03903531089672313,0.0740276906592773,-0.0005575364437878902
0.3690509796142578,-0.004194982349872589,-0.012872882187366486,0.0072269439697265625,-0.0033504432067275047,-0.0039628599770367146,0.006016125436872244,0.03923075515087108,0.07394519189329321,-0.0004859428271680112
0.37912607192993164,-0.00322066992521286,-0.009263280779123306,0.006036996841430664,-0.007540128193795681,-0.004640900995582342,0.007541051600128412,0.03939199186791729,0.07385604343559572,-0.00040331645585854435
0.3892219066619873,-0.0026307255029678345,-0.0070833489298820496,0.003090798854827881,-0.004469037521630526,-0.0023817410692572594,0.006926553323864937,0.03952735363954498,0.07380035965742313,-0.00032630467941106443
0.3998270034790039,-0.00448472797870636,-0.009162180125713348,-0.0004833340644836426,-0.0012527378275990486,-0.00115269236266613,0.008863736875355244,0.03966115403554775,0.07377784137819643,-0.00025165351167813477
0.409060001373291,-0.005123838782310486,-0.006935950368642807,-0.0011296868324279785,0.004766172729432583,-0.004970955662429333,0.003282763296738267,0.039858117635440414,0.07374602938526367,-0.0001993249970866193
0.41906094551086426,-0.005766876041889191,-0.006064604967832565,0.0035785436630249023,0.00994948297739029,-0.003558681346476078,0.006361111998558044,0.040134593511337135,0.07368777189026518,-0.0001628953922702176
0.42930006980895996,-0.007073156535625458,-0.00662434846162796,0.007230818271636963,0.007310423068702221,-0.0007846434600651264,0.0027201443444937468,0.04044484985425855,0.07365207132599175,-0.0001219802726514518
0.44076108932495117,-0.008448503911495209,-0.009559988975524902,0.008899807929992676,0.0030874491203576326,-0.0034872195683419704,0.0002612476237118244,0.04072904915159362,0.07362436138715768,-0.00010954806319306766
0.44925713539123535,-0.007087841629981995,-0.012366890907287598,0.010926306247711182,0.000703287310898304,-0.006505557801574469,0.0003631401341408491,0.040943560289602936,0.07354579889543256,-0.00011320196368487307
0.4590320587158203,-0.00443807989358902,-0.010687917470932007,0.009644627571105957,0.0013525658287107944,-0.005690896417945623,0.0026254956610500813,0.04109678543874157,0.07345967079968278,-9.816978463233171e-05
0.46921205520629883,-0.004040151834487915,-0.007467348128557205,0.006045877933502197,0.0009604319930076599,-0.008031326346099377,0.0012691474985331297,0.041204658261653676,0.07336692391353151,-8.704837504327443e-05
0.47911500930786133,-0.0048400163650512695,-0.006738480180501938,0.004889011383056641,0.008007423020899296,-0.009062502533197403,0.005824218038469553,0.041369091647571854,0.07323603659076987,-5.2546407521313896e-05
0.48914217948913574,-0.004369854927062988,-0.0049357302486896515,0.00527268648147583,0.010089898481965065,-0.0061785210855305195,0.0052375770173966885,0.04155456479347328,0.07310164446493558,7.08341934297385e-07
0.4991328716278076,-0.006534501910209656,-0.0031233802437782288,0.005776822566986084,0.003027993720024824,-0.0038730227388441563,0.001767478184774518,0.041703837426762,0.07300812591760623,2.7385014350033158e-05
0.5092189311981201,-0.006099075078964233,-0.007004924118518829,0.008450806140899658,-0.0038391666021198034,-0.0033237007446587086,-0.000373916351236403,0.04178965639350052,0.07290829538560589,3.1824813796405154e-05
0.5194509029388428,-0.00406087189912796,-0.007535122334957123,0.01019364595413208,-0.004906561691313982,-0.0017846603877842426,-0.0022314712405204773,0.041885148899555885,0.07280789070848763,2.44743131931855e-05
0.5292110443115234,-0.0040662214159965515,-0.00549432635307312,0.012099921703338623,-0.004348063375800848,0.0003703692927956581,-0.00325939804315567,0.04203398433907951,0.07273715268032081,3.033911755303531e-08
0.540783166885376,-0.005146592855453491,-0.0062575675547122955,0.01139289140701294,0.003292545909062028,0.002197564346715808,-0.0018955932464450598,0.042186409967065,0.07271930174113678,-3.0205784900504674e-05
0.5492751598358154,-0.004432283341884613,-0.003002732992172241,0.00732874870300293,0.009021904319524765,0.0002315300516784191,-0.00032262399327009916,0.042359123180223855,0.07269207066131388,-4.520273989210431e-05
0.5592482089996338,-0.0031219571828842163,-0.0014500059187412262,0.006758391857147217,0.013798017054796219,-0.0009272117167711258,-0.0021141325123608112,0.042569264274416284,0.07264871569588013,-7.136795927469372e-05
0.5693581104278564,-0.0005216747522354126,-0.0022275522351264954,0.0050165653228759766,0.005850478075444698,-0.005935729946941137,-0.004162529483437538,0.04273791725159625,0.07258167904445054,-0.00011057071036544314
0.57930588722229,0.001246124505996704,-0.0021438635885715485,0.006670951843261719,-0.0018151641124859452,-0.006981020327657461,-0.004701819270849228,0.042791136727989225,0.07246156396024803,-0.0001436092232129861
0.5894038677215576,0.001989804208278656,-0.0038099773228168488,0.007516264915466309,-0.004923422820866108,-0.0061669363640248775,-0.005277541466057301,0.04284932114893845,0.07234326312112527,-0.0001928914631781207
0.5992791652679443,-0.0005029588937759399,-0.006110645830631256,0.00576627254486084,-0.006068581715226173,-0.006707026157528162,-0.006217637564986944,0.04288327843627865,0.07225708538550726,-0.0002428641795162221
0.609281063079834,-0.0004614144563674927,-0.0035424306988716125,0.004992246627807617,0.0009645768441259861,-0.00675376458093524,-0.0025220753159374,0.04293383629519237,0.07216961178111164,-0.00028178967502318634
0.61928391456604,0.0011517032980918884,-0.0015805065631866455,0.0027651190757751465,0.00813300721347332,-0.002718809060752392,-0.0024371205363422632,0.043064825296524,0.0720824709415591,-0.0003038968117757279
0.6293940544128418,-0.00012331455945968628,-0.0010803565382957458,0.0027183890342712402,0.010187570005655289,-0.005327552556991577,-0.0007817528676241636,0.04319889494957697,0.07201490451332457,-0.0003268293673593769
0.6415650844573975,0.001680999994277954,-0.002266034483909607,0.0021401643753051758,0.005645282566547394,-0.008112953044474125,0.0029024642426520586,0.043295045163960016,0.07193484644219482,-0.0003227574949647855
0.6494250297546387,0.002696521580219269,-0.005200713872909546,0.004096329212188721,0.002187516773119569,-0.009100230410695076,8.659763261675835e-05,0.04336640846866081,0.07185002975617663,-0.0003225342797814397
0.6593849658966064,0.002336069941520691,-0.009047593921422958,0.00854259729385376,-0.007907727733254433,-0.012247821316123009,0.0005715591832995415,0.04336474716058606,0.07176768579510276,-0.0003193660979995655
0.6696021556854248,0.003100067377090454,-0.007734309881925583,0.008291125297546387,-0.007059844210743904,-0.010784768499433994,0.00037847994826734066,0.043335226890875655,0.07167465443362508,-0.00031026456419126406
0.6795680522918701,0.0019797608256340027,-0.006606388837099075,0.008325815200805664,0.0007554686162620783,-0.005621432326734066,0.0031609507277607918,0.04337981727302528,0.07158935766349357,-0.00028837829862171226
0.690850019454956,-0.00046540796756744385,-0.006289441138505936,0.004952371120452881,0.005688192322850227,5.913432687520981e-05,0.007543821819126606,0.043452695878947595,0.07156273794188278,-0.0002399442952655266
0.6993920803070068,-0.0013502687215805054,-0.0027632787823677063,0.0020772814750671387,0.013196974992752075,-0.0009813625365495682,0.010952134616672993,0.043576260356274946,0.07157827487976995,-0.00014474735293143218
0.7093970775604248,-0.0004409030079841614,-0.0016361437737941742,0.005428016185760498,0.014831206761300564,-0.005523073021322489,0.01033081952482462,0.043757522029966335,0.07155440273666445,-5.78773064175194e-05
0.7194290161132812,0.0005303770303726196,-0.0026052482426166534,0.006920576095581055,0.0066278716549277306,-0.00619019428268075,0.012479724362492561,0.043887178141859134,0.0715141847761319,4.441872881670675e-05
0.729417085647583,0.0007217228412628174,-0.002493731677532196,0.009835958480834961,-0.00762250367552042,-0.011233333498239517,0.003924265503883362,0.04395298100382667,0.07146018377831204,0.00012646028908649233
0.740792989730835,0.0018450990319252014,-0.007071845233440399,0.00834512710571289,-0.006232599727809429,-0.01136755757033825,0.005183940753340721,0.04401359804521502,0.07135897948192525,0.00016577755793960962
0.7495028972625732,0.00043098628520965576,-0.0032726526260375977,0.011520981788635254,-0.0008894328493624926,-0.008561206981539726,0.00636324193328619,0.04407444780299325,0.07129294893802923,0.00024246658564664784
0.7594611644744873,-0.0023262053728103638,0.0001619383692741394,0.0057683587074279785,0.0038627120666205883,-0.011660061776638031,0.00022225873544812202,0.044182726771542426,0.07122737538271968,0.0002673243826347271
0.7697789669036865,-0.0005953982472419739,0.0013986453413963318,0.0044286251068115234,0.008198021911084652,-0.013303985819220543,0.003583860583603382,0.0443209384540329,0.07109872771426759,0.00028556722944509484
0.7806189060211182,-0.0005736649036407471,0.003326069563627243,0.004066586494445801,0.002230677055194974,-0.010483166202902794,0.0014314940199255943,0.04443267785434636,0.07097008215990959,0.0003054475829125788
0.7909390926361084,-0.003967300057411194,0.0008718222379684448,0.003554403781890869,-0.005499481223523617,-0.010118313133716583,0.0006923601031303406,0.04441982260229431,0.07088437339439439,0.0003133204186112076
0.7994801998138428,-0.006425574421882629,-0.0028985291719436646,0.00824803113937378,-0.012141138315200806,-0.010856008157134056,-0.005714938975870609,0.04435729550517713,0.07079390820886333,0.00030644345686921644
0.8095929622650146,-0.004324063658714294,-0.006819438189268112,0.011661648750305176,-0.01397570688277483,-0.012125225737690926,-0.007727010175585747,0.0442509809318825,0.07070592523469567,0.0002513948455575975
0.8195979595184326,-0.0054886192083358765,-0.0016656331717967987,0.010145187377929688,-0.013165307231247425,-0.013003271073102951,-0.007448710501194,0.044201489622178035,0.07060349133687292,0.00018415926310270446
0.8295891284942627,-0.0023232996463775635,-0.0010592900216579437,0.010216712951660156,-0.012370070442557335,-0.009186295792460442,-0.006269036326557398,0.04412110902673786,0.07050459037629629,0.00012518672922669336
0.8408639430999756,-0.003184698522090912,-0.003435622900724411,0.0080605149269104,-0.009774819947779179,-0.0049524023197591305,-0.006653330288827419,0.04401823206007656,0.07041932570229044,7.320781922682455e-05
0.8496520519256592,-0.0054626911878585815,-0.0023513920605182648,0.006191551685333252,-0.014594359323382378,-0.0026971041224896908,-0.007650312036275864,0.04388162555730672,0.07039273534783386,7.286184127032437e-06
0.8596131801605225,-0.0030314847826957703,-0.00199773907661438,0.004066646099090576,-0.021081019192934036,-0.0005378131754696369,-0.006652691401541233,0.04365523502295463,0.07037165493947597,-5.491911927691211e-05
0.869948148727417,-0.003242082893848419,-0.004964571446180344,0.004717767238616943,-0.018561221659183502,0.0020235709380358458,-0.005202013999223709,0.04345004552684367,0.07035267352596349,-9.292649475140304e-05
0.880094051361084,-0.0055968910455703735,-0.004360530525445938,0.006648004055023193,-0.025263331830501556,0.00697305565699935,0.0015730673912912607,0.04329099751007246,0.07034184739194843,-9.264831046079406e-05
0.8912498950958252,-0.004820153117179871,0.0011337175965309143,0.005666255950927734,-0.022873476147651672,-0.013901688158512115,-0.007555609568953514,0.04315462505548157,0.07028166033880562,-9.108984561822312e-05
0.8998391628265381,0.004485368728637695,-0.0056792087852954865,0.010698378086090088,-0.026918552815914154,-0.02608458511531353,-0.016756298020482063,0.04291801709089766,0.07003832007196946,-0.00020045253089072689
0.909555196762085,0.002555571496486664,-0.010103609412908554,0.01913905143737793,-0.048104383051395416,-0.024880792945623398,-0.012672553770244122,0.04258266981140577,0.06976895129125633,-0.00032926334924132005
0.9200689792633057,-0.002279408276081085,-0.003129012882709503,0.012897312641143799,-0.08236914873123169,-0.032372262328863144,-0.014784174039959908,0.04200364407463642,0.06947429149941714,-0.0004184341920545414
0.9298350811004639,0.0029584839940071106,-0.010066501796245575,0.008526802062988281,-0.11533915251493454,-0.04788508638739586,-0.0014242138713598251,0.04104677209293881,0.06903874116061663,-0.00043186877589739757
0.9411830902099609,0.00565367192029953,-0.010564416646957397,0.016773641109466553,-0.13503003120422363,-0.051669973880052567,0.026007410138845444,0.039861246742398715,0.06852063061582962,-0.00022817133014725507
0.9499709606170654,0.004156135022640228,-0.006217788904905319,0.020724356174468994,-0.13977840542793274,-0.06960076838731766,0.02364896796643734,0.03862220171771053,0.06790724069683736,0.00011533377295434681
0.9604361057281494,0.0010353177785873413,-0.005843114107847214,0.01864832639694214,-0.15836088359355927,-0.08399569243192673,0.031256284564733505,0.03728693335300375,0.06708541035687408,0.0004752019046620593
0.9698379039764404,0.0008343160152435303,-0.010765109211206436,0.02553337812423706,-0.22507131099700928,-0.08893492072820663,0.030577288940548897,0.03546126275726278,0.06619604966991334,0.0009286061112655764
0.9797360897064209,-0.002760156989097595,-0.01798466593027115,0.04322701692581177,-0.26358115673065186,-0.1286192238330841,0.08558887988328934,0.0331536741567374,0.06517436350483712,0.0016149945023377862
0.9914209842681885,-0.0021170079708099365,-0.0029688123613595963,0.062980055809021,-0.2682591676712036,-0.22785697877407074,0.10566847026348114,0.03074276112978368,0.06339253464713744,0.002819478081126424
0.9996368885040283,0.016563281416893005,-0.0049229152500629425,0.05866241455078125,-0.29677069187164307,-0.30142495036125183,0.054431114345788956,0.02803981130528531,0.060722751893235095,0.003798264977424537
1.0100290775299072,0.015058841556310654,-0.05304218456149101,0.05494660139083862,-0.3238449990749359,-0.3369438350200653,0.09468191862106323,0.02505498630990854,0.05754665096430235,0.00465345889801591
1.020888090133667,0.008173123002052307,-0.0518624447286129,0.0333561897277832,-0.2852581739425659,-0.4098191261291504,0.148477241396904,0.022175085305768217,0.0538169001724196,0.0060609635133603975
1.0315501689910889,0.014570135623216629,-0.028808683156967163,0.021170377731323242,-0.2430821806192398,-0.47979721426963806,0.1721770316362381,0.01970034766951604,0.04937871061282832,0.007805556780021401
1.0409891605377197,0.018753591924905777,-0.05245749279856682,0.014782309532165527,-0.19033214449882507,-0.5617794394493103,0.23131093382835388,0.01771867408539287,0.04417983960541703,0.009908011197838885
1.049748182296753,0.022057749330997467,-0.07348797470331192,-0.0028291940689086914,-0.15543070435523987,-0.6153090596199036,0.3098747432231903,0.016142920305537233,0.03822889945102864,0.012679856632183115
1.0597960948944092,0.015347614884376526,-0.08260277658700943,0.002210080623626709,-0.17315591871738434,-0.653613805770874,0.4082316756248474,0.01462681754139593,0.03181094574556321,0.01629872019153305
1.0697309970855713,-0.0002335570752620697,-0.10462819039821625,0.031023502349853516,-0.19368867576122284,-0.7083459496498108,0.5323216319084167,0.012910693305175375,0.02494234010376386,0.021061004828044644
1.0798189640045166,-0.016526462510228157,-0.13302361965179443,0.061266183853149414,-0.22605539858341217,-0.7739579677581787,0.6459328532218933,0.010943344787031111,0.017413531626560466,0.027010788876110567
1.0904409885406494,-0.03485375642776489,-0.17636960744857788,0.0946771502494812,-0.2908661663532257,-0.8124927282333374,0.7590435147285461,0.008475540193505748,0.009387448982742377,0.03408282642366521
1.099642038345337,-0.05817452073097229,-0.23743973672389984,0.10748553276062012,-0.43657490611076355,-0.8476360440254211,0.8222317695617676,0.004915695390824017,0.001045764159571855,0.04204980219448811
1.1098589897155762,-0.08173946291208267,-0.3029017150402069,0.13607996702194214,-0.5658904910087585,-0.8509461879730225,0.8799341320991516,-0.00016726396138369654,-0.00753965250680298,0.05054423560852045
1.1197350025177002,-0.10534876585006714,-0.35745444893836975,0.20372676849365234,-0.6775206327438354,-0.7996209859848022,0.9323262572288513,-0.006487026291635631,-0.015806880476157314,0.059546084007707896
1.1297929286956787,-0.14294849336147308,-0.37111514806747437,0.24833530187606812,-0.8203946948051453,-0.6706751585006714,1.002593994140625,-0.014181957170516808,-0.023117158934842064,0.06904067739330753
1.1403520107269287,-0.19036650657653809,-0.3854323923587799,0.25950896739959717,-0.8924694061279297,-0.5290511846542358,1.0786128044128418,-0.02306863417038201,-0.02891387431174565,0.0792556130728499
1.1502091884613037,-0.2099095582962036,-0.4579118490219116,0.2847951650619507,-0.8332039713859558,-0.44726061820983887,1.1880581378936768,-0.03221238291900883,-0.033461073035894844,0.09026491159562243
1.1597521305084229,-0.20053072273731232,-0.45188912749290466,0.3327168822288513,-0.538873553276062,-0.4148305058479309,1.3793479204177856,-0.039652746583308626,-0.03730008259992633,0.10283752750781494
1.1701760292053223,-0.17453768849372864,-0.3645944893360138,0.4001367688179016,-0.22739091515541077,-0.3831517696380615,1.5750930309295654,-0.043975654587626097,-0.04072275747455985,0.11751508638040223
1.179678201675415,-0.16606739163398743,-0.3529053330421448,0.4464139938354492,-0.08798135817050934,-0.3187972605228424,1.7278780937194824,-0.04617422095663314,-0.04351100646211697,0.1339875258779476
1.193248987197876,-0.17979216575622559,-0.41988682746887207,0.4655417799949646,-0.05286252126097679,-0.19671371579170227,1.8851803541183472,-0.047605544401067526,-0.04524997803878457,0.1520695259943946
1.1997120380401611,-0.18597657978534698,-0.5057267546653748,0.4684674143791199,-0.14963939785957336,-0.16852815449237823,2.030136823654175,-0.049417438367236693,-0.04609048756006933,0.1716085650104745
1.2101500034332275,-0.1788175106048584,-0.5179221630096436,0.45049232244491577,-0.32610684633255005,-0.18570873141288757,2.199385404586792,-0.05270597280870073,-0.04675869765531326,0.19266024987441124
1.220048189163208,-0.12410785257816315,-0.48149698972702026,0.39826804399490356,-0.5767710208892822,-0.1279303878545761,2.3893320560455322,-0.05826633134341897,-0.04720851727368999,0.21541060513103036
1.2303390502929688,-0.03989391401410103,-0.4702412188053131,0.3530324101448059,-0.8654336929321289,0.04224027693271637,2.5718834400177,-0.06658854645679517,-0.046085584971702793,0.2399511341618732
1.2415211200714111,-0.010325446724891663,-0.4698181748390198,0.33772242069244385,-1.1441154479980469,0.2919856011867523,2.7637383937835693,-0.07786795920283465,-0.04265778801150375,0.2662278566112256
1.250128984451294,-0.03338640183210373,-0.39659085869789124,0.2952319383621216,-1.4136179685592651,0.5990257859230042,2.9150137901306152,-0.09177263173808312,-0.03583319685752675,0.2942495390662055
1.26009202003479,-0.03277261182665825,-0.34463903307914734,0.21229302883148193,-1.4724886417388916,1.046071171760559,3.168483257293701,-0.10737258591008703,-0.0246225272597769,0.324396084067737
1.2702081203460693,0.011236198246479034,-0.2810494899749756,0.11625254154205322,-1.5111026763916016,1.5196661949157715,3.38948655128479,-0.12289599317668758,-0.007816118272222368,0.3572487382058448
1.280203104019165,0.001968536525964737,-0.11296771466732025,0.00010401010513305664,-0.9681059122085571,1.9071662425994873,3.635674238204956,-0.13532238351789158,0.013644395216783673,0.3927901839044208
1.291290044784546,-0.016168244183063507,-0.11554044485092163,0.002135157585144043,-0.19539351761341095,2.3369436264038086,3.873823881149292,-0.14004551102524776,0.04020858854457035,0.4309267830675728
1.3001749515533447,0.0888516902923584,0.04867012798786163,-0.05377960205078125,0.06695021688938141,2.6801486015319824,3.8586678504943848,-0.1384784734826718,0.07091319767668873,0.4700452987587243
1.310128927230835,0.071173295378685,0.24737073481082916,-0.14201748371124268,-0.0830872505903244,2.7794995307922363,3.8938374519348145,-0.1349814353457187,0.10344287131785476,0.5090739351409069
1.3206140995025635,-0.12540902197360992,0.2113530933856964,-0.07986599206924438,-0.49269577860832214,3.0024399757385254,3.860229730606079,-0.13304838172817188,0.13781657204734685,0.5483239445546055
1.3302628993988037,-0.037381693720817566,-0.07857951521873474,0.10860574245452881,-0.8148226737976074,2.9168288707733154,3.868274688720703,-0.1336799440252869,0.1729256762948207,0.5879102440514958
1.3421080112457275,0.05698879063129425,-0.21275973320007324,0.19333738088607788,-0.6291449666023254,2.9265873432159424,4.037808895111084,-0.13333562459030707,0.20730620716239628,0.6285096036116296
1.35024094581604,0.2244361788034439,-0.021317675709724426,0.19855231046676636,-0.6224392652511597,2.874870538711548,3.9220213890075684,-0.1304518867590806,0.2418959875128028,0.6691956609355703
1.360285997390747,0.3240698575973511,0.03158523142337799,0.07895928621292114,-0.508321225643158,2.773376941680908,3.9969234466552734,-0.12595874846155114,0.2752341285952794,0.7091698712012091
1.370319128036499,0.3706807494163513,-0.0208192840218544,0.01051032543182373,-0.2861849069595337,2.7884368896484375,4.082879066467285,-0.11810893233676513,0.307903653380402,0.7493741278721647
1.3808491230010986,0.5356777906417847,0.07452177256345749,-0.1257566213607788,-0.20375660061836243,2.8898582458496094,4.053988933563232,-0.1073399756613795,0.3407522016484445,0.7890397627005453
1.3919410705566406,0.5571977496147156,0.07931706309318542,-0.21046185493469238,-0.2470003068447113,2.9691193103790283,4.042787551879883,-0.09514269075552356,0.3741109317380213,0.8279905865822826
1.4004440307617188,0.5827862024307251,0.10302142053842545,-0.18072223663330078,-0.4741509258747101,2.9610953330993652,3.8934824466705322,-0.08326235032364149,0.4072263000315968,0.8662858986167928
1.4103760719299316,0.6169207096099854,0.14715330302715302,-0.07826411724090576,-0.6575517058372498,2.8539376258850098,3.733217239379883,-0.07283584975427916,0.4393427786780408,0.9035632059957953
1.4204130172729492,0.655497670173645,0.14935076236724854,-0.030982792377471924,-0.6241716742515564,2.622204542160034,3.5241763591766357,-0.06274164606854543,0.469234532033006,0.939189936474177
1.4307990074157715,0.7489291429519653,0.2051856964826584,-0.11522823572158813,-0.5736967921257019,2.274165630340576,3.26352596282959,-0.05220786865848387,0.4957281260743242,0.9721749884038243
1.4415040016174316,0.7845391035079956,0.2858806252479553,-0.26845771074295044,-0.6800436973571777,1.8081303834915161,2.845142364501953,-0.04268445702115245,0.5176357853402144,1.0020239717344777
1.4505131244659424,0.733299732208252,0.3569950461387634,-0.35885101556777954,-1.0400094985961914,1.2339123487472534,2.2457635402679443,-0.037117323951685106,0.5339627178347179,1.0284217792805783
1.460433006286621,0.6292011737823486,0.4595646560192108,-0.3435392379760742,-1.5712989568710327,0.6326498985290527,1.5128121376037598,-0.038659537185840954,0.5441433014583135,1.0513574058953004
1.4703800678253174,0.48484164476394653,0.6102123856544495,-0.2970131039619446,-1.9214706420898438,0.10118042677640915,0.8073186278343201,-0.04774931897754226,0.5485784835418374,1.070414406645748
1.4804320335388184,0.36151838302612305,0.7313357591629028,-0.31954073905944824,-1.9692765474319458,-0.31962379813194275,0.23915211856365204,-0.061916529774568956,0.5481959268765523,1.085116580727551
1.4920098781585693,0.2738397717475891,0.7388824224472046,-0.3293023705482483,-1.5833196640014648,-0.5383843779563904,-0.18728755414485931,-0.07726484205701112,0.5444265933424786,1.0946893318561908
1.5005428791046143,0.18821442127227783,0.5968761444091797,-0.24738860130310059,-0.8366592526435852,-0.5576958060264587,-0.4450373351573944,-0.08947659224502888,0.5390992469803545,1.098225652697374
1.510495901107788,0.10053551197052002,0.44629615545272827,-0.16896289587020874,0.09007924050092697,-0.4338754415512085,-0.5353710651397705,-0.09535202448649706,0.5338448476381871,1.0958826818854015
1.5203440189361572,0.055562734603881836,0.28006434440612793,-0.12039870023727417,0.9860212206840515,-0.21024315059185028,-0.510752260684967,-0.0932854898114845,0.5298945088071249,1.0884713342137715
1.5305001735687256,0.01079624891281128,0.11545366048812866,-0.06099998950958252,1.5758743286132812,0.028174303472042084,-0.3865402042865753,-0.08427665870742408,0.5280561430909511,1.0779338072773177
1.541198968887329,-0.02761167287826538,-0.006734319031238556,0.018605947494506836,1.7836549282073975,0.2132757157087326,-0.25184497237205505,-0.07117108824424286,0.5284369598555513,1.0665634255997778
1.5505249500274658,-0.04389762878417969,-0.09116923809051514,0.09156322479248047,1.5942673683166504,0.3134157657623291,-0.13905516266822815,-0.05735654998413364,0.5304912415025079,1.0561692981079671
1.5605599880218506,-0.04431670904159546,-0.10558928549289703,0.12358492612838745,1.1056931018829346,0.3005441725254059,-0.01254807785153389,-0.04598926613670946,0.5332204979500509,1.0486480212930727
1.5704891681671143,-0.024419009685516357,-0.10731908679008484,0.13240784406661987,0.5310550928115845,0.24865975975990295,0.05034550651907921,-0.03881671801654722,0.535826553649124,1.0445842444841977
1.5806710720062256,-0.016001999378204346,-0.11287771165370941,0.12900447845458984,-0.020945265889167786,0.16310490667819977,0.12523359060287476,-0.036225321283200065,0.537872220143662,1.0440798854107134
1.5920510292053223,0.014143586158752441,-0.10555387288331985,0.08859908580780029,-0.4137055277824402,0.09256256371736526,0.19171738624572754,-0.03735563522226098,0.5392022015151666,1.0466168737859889
1.600661039352417,0.03186607360839844,-0.10476409643888474,0.0754936933517456,-0.6385180950164795,0.07049188762903214,0.23521213233470917,-0.04090205571289792,0.540185067094997,1.0512389414529462
1.610835075378418,0.024469614028930664,-0.09492720663547516,0.07971566915512085,-0.6642491817474365,0.08752728253602982,0.2571493685245514,-0.045290422002349305,0.5411846005336871,1.0567718276521714
1.6205341815948486,0.004369676113128662,-0.08301854133605957,0.06176799535751343,-0.5232002139091492,0.11318577826023102,0.24934767186641693,-0.049148399615989075,0.5424581091219168,1.0620883767842515
1.6306450366973877,-0.005253791809082031,-0.05637690797448158,0.011118531227111816,-0.3396660089492798,0.11269335448741913,0.2121494710445404,-0.05160839284794217,0.5438301058792463,1.0663102600294994
1.6420738697052002,0.007976770401000977,-0.018108244985342026,-0.028681397438049316,-0.1927226334810257,0.08091013133525848,0.12420710176229477,-0.05296868186002412,0.5449613766872643,1.0691485681071355
1.650542974472046,0.020989298820495605,0.010279808193445206,-0.027857303619384766,-0.06707967072725296,0.024480720981955528,0.03450459614396095,-0.053664870486166076,0.5455774804987037,1.0704825175204917
1.660640001296997,0.0368841290473938,0.023927640169858932,-0.025142133235931396,0.04478747397661209,-0.019627617672085762,-0.03397219628095627,-0.053780636856365256,0.5455690158538188,1.0705311108710605
1.6705970764160156,0.05066901445388794,0.0394715890288353,-0.018750131130218506,0.20892445743083954,-0.019154639914631844,-0.06871744245290756,-0.05300608918145882,0.5452864729636274,1.0694146507557714
1.6807069778442383,0.033920466899871826,0.028634730726480484,0.00012737512588500977,0.3565368056297302,0.021831940859556198,-0.07229140400886536,-0.05091592592807832,0.5451959892797484,1.0673118057931181
1.6917800903320312,0.024004638195037842,0.019008498638868332,-0.013757586479187012,0.4372017979621887,0.058986056596040726,-0.05464690178632736,-0.04782780814744619,0.545475938788208,1.0646913938305331
1.7007691860198975,0.014621198177337646,0.010373000055551529,-0.026966750621795654,0.4689141809940338,0.0838882103562355,-0.029829436913132668,-0.044145566407064005,0.5460691263285933,1.061958707982157
1.7109191417694092,0.009669899940490723,0.010495446622371674,-0.022086620330810547,0.4325394332408905,0.09037966281175613,-0.005826312117278576,-0.040342359162112096,0.5468381526825422,1.0594470887907967
1.720823049545288,0.009671628475189209,0.008604921400547028,-0.010158121585845947,0.30077236890792847,0.08002689480781555,0.019232701510190964,-0.03713405799709791,0.5476365980430151,1.057564962682934
1.7310678958892822,0.013080596923828125,-0.007871244102716446,-0.0051444172859191895,0.11074473708868027,0.06374374777078629,0.03341717645525932,-0.03520684487432687,0.5483200905700332,1.056709582432129
1.742501974105835,0.015572667121887207,-0.012836869806051254,0.0027511119842529297,-0.06210959702730179,0.03609427809715271,0.04153023287653923,-0.03484694813765628,0.5488255554549878,1.0569428084696146
1.7507350444793701,0.014761507511138916,-0.012899380177259445,0.007751643657684326,-0.1720018982887268,0.004805819597095251,0.0324847511947155,-0.0356729150372594,0.5490789111074809,1.0578779037428598
1.7608799934387207,0.012259125709533691,-0.009800143539905548,-0.0010625720024108887,-0.23657715320587158,-0.013647222891449928,0.03134198859333992,-0.037274459077075016,0.5490608861586312,1.0592555386627471
1.7708370685577393,0.012314438819885254,-0.006575971841812134,-0.009405016899108887,-0.2649654448032379,-0.021814826875925064,0.01783246546983719,-0.03931606115622044,0.548954321589317,1.0607786247892712
1.7808291912078857,0.003847360610961914,-0.007611539214849472,-0.010287821292877197,-0.23592711985111237,-0.027592822909355164,0.018819432705640793,-0.04140617223539043,0.5487535667485716,1.0622874270615068
1.791701078414917,0.0017298460006713867,-0.008049089461565018,-0.009472787380218506,-0.15975287556648254,-0.019214028492569923,0.0168001689016819,-0.04303536693358012,0.5485409803421891,1.0634813261405534
1.8007800579071045,0.000749051570892334,-0.006267726421356201,0.00395888090133667,-0.058806825429201126,0.002377282828092575,0.005955245345830917,-0.043940417112193784,0.5484983687323634,1.0641639248601014
1.810826063156128,-0.004505932331085205,0.002744898200035095,0.006740391254425049,0.021183544769883156,0.024056658148765564,-0.0071222069673240185,-0.043930449727773796,0.5486662628163338,1.0642521125513007
1.820862054824829,-0.012065291404724121,0.007860779762268066,-0.002003312110900879,0.09031867235898972,0.028507065027952194,-0.025642894208431244,-0.043315324364270116,0.5490330780230395,1.063818462030489
1.8309149742126465,-0.015516936779022217,0.005831040441989899,-0.004965543746948242,0.1395258903503418,0.015930864959955215,-0.04684879630804062,-0.04226183313832399,0.5494031638481648,1.0629063090499542
1.841660976409912,-0.011042892932891846,0.006813164800405502,-0.0017850995063781738,0.1724548041820526,-0.009291667491197586,-0.0633808970451355,-0.04101921466574286,0.5494750782513784,1.0616208542388654
1.850848913192749,-0.009152710437774658,0.0109095498919487,0.004532754421234131,0.17958971858024597,-0.025874994695186615,-0.06250365078449249,-0.03972940623452533,0.5492663431671969,1.0601461487482255
1.8608369827270508,-0.0093308687210083,0.011897455900907516,0.012511134147644043,0.1718689352273941,-0.014436718076467514,-0.05893129110336304,-0.03843534657745823,0.5489431843180125,1.0586854654767972
1.8709070682525635,-0.012554764747619629,0.001063317060470581,0.014739036560058594,0.13672587275505066,0.0044110058806836605,-0.040504880249500275,-0.03730577177530422,0.5487788220391687,1.0574296793094193
1.88106107711792,-0.017016828060150146,-0.0038123391568660736,0.010129213333129883,0.08576495200395584,0.026174357160925865,-0.015776894986629486,-0.03650462317175096,0.548947403978534,1.056616826816321
1.892099142074585,-0.012860894203186035,-0.001911889761686325,0.0039727091789245605,0.013711698353290558,0.026989197358489037,0.00132347596809268,-0.03625194300722017,0.5492395551110487,1.0562913085213823
1.9010350704193115,-0.011757850646972656,0.006412036716938019,0.004365146160125732,-0.037156008183956146,0.016193274408578873,0.005097175016999245,-0.036534160207187194,0.5493480383700164,1.0564077118618627
1.9110939502716064,-0.00493544340133667,0.006845995783805847,0.010658800601959229,-0.07734279334545135,-0.0004192134365439415,-0.0007501676445826888,-0.03712296554794855,0.5492698386899428,1.0566991597491546
1.920896053314209,-0.0030114054679870605,0.00973060354590416,6.008148193359375e-05,-0.11652056127786636,-0.01407270785421133,-0.004951570648699999,-0.03808424661017201,0.5491112365857019,1.05718898626762
1.9312031269073486,0.0017345547676086426,0.0113055519759655,-0.009303450584411621,-0.11583475768566132,-0.022601746022701263,-0.006439159158617258,-0.03930255350758291,0.5489068074659949,1.057760319294301
1.9411060810089111,-0.00026363134384155273,0.005026541650295258,4.4226646423339844e-05,-0.1058841198682785,-0.013385611586272717,-0.005580822471529245,-0.040455538829898476,0.5487551227354842,1.0582895485160724
1.951085090637207,-0.001745462417602539,0.002346780151128769,0.005093097686767578,-0.07177147269248962,-0.004733134992420673,-0.003157292492687702,-0.0411980625600442,0.548650433408708,1.0587288895800204
1.961219072341919,-0.000753939151763916,0.001683264970779419,0.004778742790222168,-0.05973345786333084,0.0019721719436347485,-0.011819223873317242,-0.04166359058995852,0.5485193258935814,1.0589995084863926
1.9710171222686768,-0.0005587339401245117,0.012839086353778839,0.002401590347290039,-0.07422930002212524,0.004843281581997871,-0.025897812098264694,-0.04219647602994241,0.54844723802046,1.0591703580655356
1.9811890125274658,-0.002606689929962158,0.016474351286888123,0.005852997303009033,-0.12703046202659607,-0.007327097933739424,-0.04517590254545212,-0.0432160639494893,0.5483703026442059,1.0593931385666115
1.992060899734497,0.0003491640090942383,0.019166529178619385,0.017198801040649414,-0.19942688941955566,-0.02477613091468811,-0.0628875195980072,-0.04492007191063946,0.5482602051689696,1.0597801252371368
2.00108003616333,0.0027693510055541992,0.01897214725613594,0.026253938674926758,-0.25807422399520874,-0.04317111521959305,-0.07463499158620834,-0.047283724411725424,0.5479221822725271,1.0603878067209687
2.0111658573150635,0.004634857177734375,0.0186055488884449,0.032128751277923584,-0.2893519401550293,-0.05035170912742615,-0.07711844146251678,-0.05007977663793708,0.5474638093390257,1.0611689155342365
2.0211451053619385,0.006817519664764404,0.01217702403664589,0.022527575492858887,-0.3050675094127655,-0.04250470548868179,-0.06711534410715103,-0.05294153834121952,0.5470519786265127,1.0621093541838278
2.032902956008911,0.0032597780227661133,-0.005266323685646057,0.011520743370056152,-0.29096052050590515,-0.042136434465646744,-0.03853520005941391,-0.05569473473426018,0.5466987058713645,1.0632136854040892
2.0413269996643066,-0.0015079975128173828,-0.020938534289598465,0.012639760971069336,-0.23332040011882782,-0.01683294028043747,-0.021910686045885086,-0.05792755446670328,0.5464800729226185,1.064324975656959
2.051038980484009,-0.002472221851348877,-0.021585825830698013,0.019579410552978516,-0.19094759225845337,0.005144263152033091,-0.006431275978684425,-0.05976822903144512,0.5465137058686091,1.0653088550750027
2.0611178874969482,-0.009007632732391357,-0.017784129828214645,0.02057623863220215,-0.15485218167304993,0.02101164311170578,-0.003987293224781752,-0.06127936601424798,0.5467359021175697,1.066183358043452
2.0711991786956787,-0.010958731174468994,-0.018280692398548126,0.017511188983917236,-0.1001548171043396,0.025778701528906822,-0.014793548732995987,-0.0624954225124473,0.5471374508566901,1.066782477649277
2.0812630653381348,-0.013463437557220459,-0.010852731764316559,0.013909339904785156,-0.026184186339378357,0.020126674324274063,-0.020675672218203545,-0.06323236834355878,0.5475622532518157,1.0669828809147264
2.0919759273529053,-0.011744499206542969,-0.011908210813999176,0.008583784103393555,0.05063283070921898,0.021664293482899666,-0.03635668382048607,-0.0633573067787639,0.547931488921798,1.0666810921043477
2.1011431217193604,-0.008224189281463623,-0.02058260887861252,0.008111298084259033,0.09652948379516602,0.027685435488820076,-0.05019979551434517,-0.06298249282005071,0.5482626202930417,1.0659281060493468
2.1111559867858887,-0.006896674633026123,-0.03129331022500992,0.007797539234161377,0.12792670726776123,0.03004956804215908,-0.052323080599308014,-0.062186495131944575,0.5485367319203688,1.0648858535936303
2.121170997619629,0.0013816356658935547,-0.03500999137759209,-0.0015168190002441406,0.12238706648349762,0.02228964865207672,-0.05729679763317108,-0.06117102153301682,0.5487397745596082,1.0637479944381705
2.1311628818511963,0.00580441951751709,-0.027157869189977646,-0.0013845562934875488,0.09748311340808868,0.005655456800013781,-0.0523025244474411,-0.06030583739816436,0.5488356122261108,1.0627006035396531
2.1414029598236084,0.005617618560791016,-0.024041201919317245,-0.0030171871185302734,0.057941291481256485,-0.017480220645666122,-0.04857995733618736,-0.05976691879910961,0.5487127017025045,1.0618390952476824
2.151228189468384,0.00549393892288208,-0.01534319669008255,-0.01075965166091919,0.015442434698343277,-0.0369236059486866,-0.04919557273387909,-0.05953714222744878,0.5483659054827664,1.061232007792438
2.161245107650757,0.005232512950897217,-0.014550678431987762,-0.012903928756713867,-0.029093075543642044,-0.056077856570482254,-0.04093684256076813,-0.059752084873599925,0.5478030020619782,1.060872636478673
2.1713411808013916,0.003943502902984619,-0.015565041452646255,-0.015769481658935547,-0.06677079945802689,-0.06225217878818512,-0.03560253232717514,-0.0602485675222506,0.547131481296867,1.0607909988715558
2.1813480854034424,0.004285037517547607,-0.018297966569662094,-0.012769222259521484,-0.10992838442325592,-0.06455154716968536,-0.0315241664648056,-0.0609686249979917,0.5464532504519768,1.0609696812627865
2.1919901371002197,0.0036352872848510742,-0.02323826774954796,-0.013394594192504883,-0.1416274756193161,-0.07284733653068542,-0.03598746657371521,-0.06185175926943461,0.5457453188438592,1.0613374482899922
2.2014448642730713,0.00577777624130249,-0.015078261494636536,-0.016863524913787842,-0.1740642488002777,-0.08499427884817123,-0.053041283041238785,-0.06300186536845594,0.5449589805439891,1.0617863311869455
2.2123501300811768,0.008253097534179688,-0.0034468993544578552,-0.017181217670440674,-0.1845858246088028,-0.10314905643463135,-0.0764317736029625,-0.06452668149313949,0.5440844820827156,1.0621912398219746
2.221369981765747,0.009776771068572998,0.004220135509967804,-0.024491071701049805,-0.1764032542705536,-0.1305774748325348,-0.11352188140153885,-0.06621689580972762,0.5429569053697693,1.0623226308293152
2.2313148975372314,0.01458895206451416,0.014737345278263092,-0.03394049406051636,-0.1808115392923355,-0.17306630313396454,-0.1657194048166275,-0.06818581465871264,0.5414411329674944,1.0620488948725189
2.2415249347686768,0.025272727012634277,0.03249022364616394,-0.048338472843170166,-0.19779478013515472,-0.22831358015537262,-0.23686841130256653,-0.07058029660866298,0.539397407949421,1.0612961635267733
2.251322031021118,0.03147763013839722,0.04838624596595764,-0.058678388595581055,-0.23398612439632416,-0.3027735948562622,-0.32436737418174744,-0.07368955195977737,0.5366516165304467,1.0599903691656491
2.2614240646362305,0.04454183578491211,0.07065656781196594,-0.0630539059638977,-0.28192222118377686,-0.39384543895721436,-0.4261893332004547,-0.0776910680279658,0.533039728788241,1.0580695194092657
2.2713639736175537,0.05945539474487305,0.09018370509147644,-0.06668257713317871,-0.33140042424201965,-0.4761723279953003,-0.536981999874115,-0.08270092172513234,0.5284769324327693,1.0554746437087106
2.281553030014038,0.06978029012680054,0.1026340052485466,-0.06695163249969482,-0.35471534729003906,-0.5520021319389343,-0.6589664816856384,-0.0886286701684929,0.5230415916714667,1.0520272530408374
2.2927658557891846,0.07561531662940979,0.11552884429693222,-0.06674462556838989,-0.35129857063293457,-0.6171761751174927,-0.7905076742172241,-0.09530860567852237,0.5167658330285978,1.0474787267570187
2.3016300201416016,0.0777946412563324,0.12474498897790909,-0.06932544708251953,-0.3366943299770355,-0.668179988861084,-0.9316458702087402,-0.10256165849705115,0.5097467346576842,1.0416416069511631
2.3116261959075928,0.08702018857002258,0.128882497549057,-0.07213258743286133,-0.2901849150657654,-0.7188004851341248,-1.0804080963134766,-0.1102167387303247,0.5020314499981162,1.0343381961991758
2.3214800357818604,0.08597004413604736,0.11848823726177216,-0.06918895244598389,-0.23403267562389374,-0.7679193019866943,-1.2376818656921387,-0.11803736214491836,0.49356558627052427,1.0253352044710944
2.331573009490967,0.09868383407592773,0.10222259163856506,-0.06380748748779297,-0.18079406023025513,-0.8222641944885254,-1.4054802656173706,-0.12610810046672422,0.48428481433979126,1.0145608333515002
2.342349052429199,0.12162455916404724,0.08778530359268188,-0.04964637756347656,-0.11160086840391159,-0.8673147559165955,-1.5715833902359009,-0.13426679224178487,0.47418365600634516,1.0019104781167532
2.351602077484131,0.15593242645263672,0.08369909226894379,-0.04674363136291504,-0.027568448334932327,-0.9120025634765625,-1.7298533916473389,-0.14238254763226108,0.46324796313982497,0.9873309249425657
2.361732006072998,0.19792267680168152,0.09119835495948792,-0.05688673257827759,0.06402378529310226,-0.930578351020813,-1.8738590478897095,-0.1502413239402282,0.4516315967497965,0.9708822016307515
2.3715670108795166,0.2276868224143982,0.08002318441867828,-0.07351744174957275,0.22032083570957184,-0.9545707702636719,-2.0105278491973877,-0.1573345873040768,0.43936381815782954,0.9525173559433378
2.381511926651001,0.2455706000328064,0.07141925394535065,-0.08595657348632812,0.35725098848342896,-0.9856618642807007,-2.109889507293701,-0.16336079289995345,0.4264296866172691,0.9322844625754847
2.3916170597076416,0.2706299424171448,0.08578908443450928,-0.10910606384277344,0.46565955877304077,-1.02266526222229,-2.1882214546203613,-0.16843937173207196,0.41279387162408104,0.9106357577211168
2.4014480113983154,0.3006567060947418,0.07395260035991669,-0.11639171838760376,0.6719195246696472,-0.9954235553741455,-2.2267181873321533,-0.1720579131887722,0.3987740678409146,0.8877758563326639
2.4114990234375,0.31596875190734863,0.062282994389534,-0.08031105995178223,0.8696463704109192,-0.987096905708313,-2.316742181777954,-0.17354148474521708,0.3846946113948519,0.863445591160555
2.4214119911193848,0.3005965054035187,0.0805564671754837,-0.010448455810546875,0.9189337491989136,-1.0143097639083862,-2.4001195430755615,-0.17385797665748037,0.37024175308885193,0.837772360257992
2.4316608905792236,0.30055952072143555,0.08686399459838867,0.02560138702392578,0.9196552634239197,-1.0281485319137573,-2.4479236602783203,-0.17388323434436176,0.35545217169082105,0.8114084446910058
2.4419710636138916,0.3353673815727234,0.09055186808109283,-0.003571033477783203,0.9221072196960449,-1.0382131338119507,-2.4929306507110596,-0.17365567004968893,0.34047115132474287,0.7845799758827307
2.4517509937286377,0.3455287516117096,0.10984547436237335,-0.04623270034790039,0.9731542468070984,-1.0393295288085938,-2.487260341644287,-0.1729829879052532,0.32540083792147995,0.7575194203844975
2.461876153945923,0.34156185388565063,0.10678230226039886,-0.07644432783126831,1.022584080696106,-1.0261112451553345,-2.503545045852661,-0.17129091950401024,0.3103360061976431,0.7302511003589595
2.4718611240386963,0.32241833209991455,0.0847177505493164,-0.08751064538955688,1.0359920263290405,-1.0017434358596802,-2.47991943359375,-0.16882959119090815,0.2956144235696133,0.7029399441527757
2.48197603225708,0.2854858338832855,0.08321058750152588,-0.06642371416091919,1.0136440992355347,-0.9508246183395386,-2.461869239807129,-0.16608695115981248,0.2812943426500244,0.6759568299498778
2.4918081760406494,0.2638455033302307,0.09242905676364899,-0.02925795316696167,0.9984840750694275,-0.8914315104484558,-2.46317195892334,-0.16309949735276577,0.26772394123267584,0.6491502182474431
2.501617193222046,0.24885904788970947,0.10468006134033203,0.023707151412963867,1.0422320365905762,-0.8831485509872437,-2.455017566680908,-0.15962290055114425,0.25456528218835744,0.6223678164420405
2.5116169452667236,0.22575539350509644,0.13595248758792877,0.04916870594024658,1.1130255460739136,-0.90483158826828,-2.421640634536743,-0.15518155905081982,0.2414474138219468,0.5957312258498147
2.521620988845825,0.22191093862056732,0.14230474829673767,0.03749585151672363,1.1370400190353394,-0.9325329661369324,-2.4080865383148193,-0.14980450349546487,0.2282482304643003,0.5692851798484216
2.531691074371338,0.22670134902000427,0.1209402084350586,0.016779541969299316,1.1157150268554688,-0.9737898111343384,-2.3962316513061523,-0.14408405840282335,0.21485564945239216,0.5430477180835895
2.541806936264038,0.2188834846019745,0.09491689503192902,0.003016829490661621,1.0359296798706055,-0.9936953186988831,-2.3787801265716553,-0.13843488476804397,0.20134931268796974,0.517160118976522
2.5517830848693848,0.19390754401683807,0.08029963076114655,-0.004237174987792969,0.9470221996307373,-1.0287882089614868,-2.354292392730713,-0.13332117678823577,0.18780343052633416,0.49174419385802354
2.561815023422241,0.17007949948310852,0.07142972946166992,0.003230273723602295,0.9066342711448669,-1.0473496913909912,-2.3221192359924316,-0.12837006234940287,0.1741440541791529,0.46683583160495357
2.5717809200286865,0.14674115180969238,0.05732344835996628,0.013359606266021729,0.8525804281234741,-1.0556018352508545,-2.2965805530548096,-0.12362464288712939,0.16054179962866982,0.4423806483713292
2.581770181655884,0.12235178053379059,0.0521206334233284,0.031496644020080566,0.9332345128059387,-1.0729784965515137,-2.2727296352386475,-0.11833652841357406,0.14696210350627217,0.41826267169236414
2.5921530723571777,0.11226534843444824,0.043861113488674164,0.07484394311904907,0.9309633374214172,-1.1105090379714966,-2.263293504714966,-0.11224285426182233,0.13328907289532516,0.39430379765477147
2.6017849445343018,0.09766814857721329,0.13439491391181946,0.11419898271560669,0.9633817076683044,-1.1748400926589966,-2.218850612640381,-0.10568502239779061,0.1192974513209392,0.37068209012107545
2.611826181411743,0.08340933918952942,0.19793856143951416,0.172923743724823,0.9684551358222961,-1.2186558246612549,-2.1493921279907227,-0.0984697758814118,0.10494332141585912,0.34773314445794645
2.6217660903930664,0.06263025104999542,0.12291776388883591,0.1818791627883911,0.8381586670875549,-1.2020355463027954,-2.104085683822632,-0.09148889508707385,0.09070505234362851,0.32556735862736585
2.631836175918579,0.021321333944797516,0.04885946959257126,0.15904027223587036,0.6269372701644897,-1.1519765853881836,-2.0644688606262207,-0.08590486614418114,0.07699993255424888,0.30406572411891064
2.642421007156372,-0.018029071390628815,-0.03706296533346176,0.1360122561454773,0.5258980393409729,-1.091940999031067,-2.01580810546875,-0.08169411006046139,0.06400151772921771,0.28323784082282394
2.6520001888275146,-0.04315810650587082,-0.11598119139671326,0.1196938157081604,0.40653201937675476,-0.9951501488685608,-1.9799113273620605,-0.07826495418276315,0.05194648663838262,0.26291885946051474
2.6619009971618652,-0.0566716268658638,-0.1231195405125618,0.08330392837524414,0.3413871228694916,-0.9098413586616516,-1.9092798233032227,-0.07533914334256878,0.04091479357742389,0.24322038868612653
2.672039031982422,-0.04350501298904419,-0.12820753455162048,0.0656248927116394,0.3241758644580841,-0.8861569762229919,-1.8261243104934692,-0.07282133450584824,0.030559862106061965,0.22436003628522347
2.6821930408477783,-0.023206595331430435,-0.18366774916648865,0.08518791198730469,0.33747273683547974,-0.8461107611656189,-1.7462440729141235,-0.06995516733627165,0.020572938400979394,0.20635213049810008
2.692913055419922,-0.032242629677057266,-0.22753861546516418,0.10208463668823242,0.3287619352340698,-0.7497330904006958,-1.6619905233383179,-0.06688280773400657,0.011409744973357458,0.18921553488503035
2.7019460201263428,-0.05058508738875389,-0.19083289802074432,0.128403902053833,0.2941965162754059,-0.6870492100715637,-1.601972222328186,-0.06386205562095115,0.0031673574877209864,0.17283233687979538
2.7121951580047607,-0.0662095844745636,-0.15231862664222717,0.19599217176437378,0.25210362672805786,-0.5395813584327698,-1.6099659204483032,-0.06124660838074602,-0.004202233881988384,0.1568757079514815
2.72189998626709,-0.098228320479393,-0.13412787020206451,0.26301974058151245,0.27159398794174194,-0.3082897663116455,-1.5360819101333618,-0.05847751825132938,-0.00911758750379276,0.14090974313369073
2.731935977935791,-0.21435664594173431,-0.16011741757392883,0.26351892948150635,0.2135847806930542,-0.34765610098838806,-1.4062343835830688,-0.05589838718942571,-0.013157446973843006,0.12629534317723679
2.7422730922698975,-0.1307181864976883,-0.15074962377548218,0.2700430154800415,0.11756717413663864,-0.4159741699695587,-1.3544963598251343,-0.05415736753166532,-0.017807270977099915,0.11247964750516781
2.7519240379333496,-0.017487920820713043,-0.16727180778980255,0.2615548372268677,0.15117335319519043,-0.3751894235610962,-1.3145599365234375,-0.052733179879267345,-0.02255375467932947,0.09917358796282794
2.7619411945343018,-0.06171927601099014,-0.20901203155517578,0.21587270498275757,0.23829787969589233,-0.3020387589931488,-1.3024990558624268,-0.05046403440932387,-0.02658967053707762,0.0860759664097668
2.7722630500793457,-0.11814935505390167,-0.22248771786689758,0.14344626665115356,0.3005778193473816,-0.2650300860404968,-1.2352215051651,-0.047380251201931886,-0.03005160267593199,0.07340064173176769
2.783143997192383,-0.10678030550479889,-0.19920653104782104,0.1009475588798523,0.4368041157722473,-0.2133767455816269,-1.1645488739013672,-0.043382056081233585,-0.03299657833884941,0.0614973567724959
2.792487859725952,-0.07176725566387177,-0.1720861792564392,0.08484721183776855,0.5571432709693909,-0.17959198355674744,-1.0782992839813232,-0.038062104487685794,-0.03538230961329864,0.05041395161459496
2.8019778728485107,-0.07105499505996704,-0.10172463953495026,0.09349215030670166,0.6161906123161316,-0.17165710031986237,-0.9456620812416077,-0.03170729921192216,-0.03746245192342793,0.04046339629816715
2.8121280670166016,-0.06624016165733337,-0.013426750898361206,0.12992870807647705,0.4975418448448181,-0.2061847597360611,-0.8197108507156372,-0.02571284169594734,-0.03958757238429381,0.031875132012952535
2.821972131729126,-0.05794639140367508,-0.05468656122684479,0.180586040019989,0.26832595467567444,-0.24051342904567719,-0.7466356158256531,-0.02156133398631551,-0.04203594902572565,0.024208847018116497
2.8320391178131104,-0.054565105587244034,-0.19304104149341583,0.21897083520889282,-0.06787560880184174,-0.24862505495548248,-0.6792183518409729,-0.020145005172678417,-0.04462549476451919,0.017105728135690234
2.8422391414642334,-0.05366898700594902,-0.22413446009159088,0.1792498230934143,-0.3893428444862366,-0.2715146839618683,-0.6624811887741089,-0.022186141888014835,-0.04738871357869105,0.010311894440324963
2.852046012878418,-0.03479277715086937,-0.19689902663230896,0.13743895292282104,-0.6435688138008118,-0.26064273715019226,-0.624169647693634,-0.02711773835296516,-0.05025342149652941,0.0035493998546856764
2.8622171878814697,-0.03470125049352646,-0.23427966237068176,0.09681439399719238,-0.739639163017273,-0.23676028847694397,-0.5338008403778076,-0.03381606990094368,-0.0529237490570792,-0.0025752368471014
2.8721959590911865,-0.044388264417648315,-0.20944350957870483,0.05811530351638794,-0.758226752281189,-0.19415797293186188,-0.49612605571746826,-0.04107425451969568,-0.05529576221906706,-0.008114590407636162
2.8820960521698,-0.050240058451890945,-0.1586981564760208,0.03374713659286499,-0.7305671572685242,-0.13805235922336578,-0.44009339809417725,-0.04828899719179921,-0.05717262265293401,-0.013250864973297409
2.892285108566284,-0.05713754892349243,-0.14649125933647156,0.023828089237213135,-0.6098580956459045,-0.0864269807934761,-0.38793885707855225,-0.05478274959388593,-0.058538317164285314,-0.017765285222435333
2.9020919799804688,-0.05396520346403122,-0.1408255249261856,0.02481210231781006,-0.49605563282966614,-0.05200615152716637,-0.34526410698890686,-0.06011214928248601,-0.05944295644612124,-0.021777951279606966
2.9121501445770264,-0.05209820717573166,-0.11114032566547394,0.025649070739746094,-0.3220107853412628,-0.02128201723098755,-0.29011058807373047,-0.0640496456642667,-0.059999077480169985,-0.025190860944516856
2.9220268726348877,-0.05004116892814636,-0.09627098590135574,0.055372416973114014,-0.13441026210784912,-0.002994091250002384,-0.26372507214546204,-0.06613725292436397,-0.06029542585446292,-0.028082496966400337
2.9323060512542725,-0.04725905507802963,-0.08856256306171417,0.06850630044937134,-0.016347019001841545,-0.003976131789386272,-0.2273871898651123,-0.06670033008727584,-0.06050189098029445,-0.030608015649981977
2.9425718784332275,-0.03717406466603279,-0.07199309021234512,0.07001447677612305,0.023897338658571243,-0.023996710777282715,-0.1884898543357849,-0.06648781050391578,-0.06077572848908383,-0.03264948365152533
2.952465057373047,-0.022686734795570374,-0.08541959524154663,0.0720781683921814,-0.02021421119570732,-0.026391560211777687,-0.17012646794319153,-0.06631836374064155,-0.06114951610479668,-0.034433851009056854
2.9634780883789062,-0.022767703980207443,-0.10569454729557037,0.06871217489242554,-0.10222972184419632,-0.014052867889404297,-0.1425803303718567,-0.0668496177349843,-0.06146874136358011,-0.03605822921295985
2.9725759029388428,-0.028724733740091324,-0.12201842665672302,0.06678646802902222,-0.16696295142173767,0.006876871455460787,-0.1134372428059578,-0.06813125252833557,-0.061605858102006604,-0.03742271945426206
2.982309103012085,-0.03140566870570183,-0.12258870154619217,0.06094503402709961,-0.17314521968364716,0.03354150429368019,-0.10131453722715378,-0.06975824596211475,-0.061479489464059255,-0.03859547410080166
2.9925060272216797,-0.030527856200933456,-0.10982640832662582,0.03445714712142944,-0.19161947071552277,0.04990352317690849,-0.0719483345746994,-0.07157262692641764,-0.061112326238349925,-0.039601179164112564
3.002281904220581,-0.021206330507993698,-0.09679636359214783,-0.001040339469909668,-0.1654760092496872,0.0655679702758789,-0.04838043078780174,-0.07334826758958482,-0.06059745630785664,-0.04030033313961085
3.0123889446258545,-0.004524316638708115,-0.09166029840707779,-0.018209874629974365,-0.0830930769443512,0.08516115695238113,-0.04053811356425285,-0.07459378160103454,-0.05988675543020166,-0.040834887192404024
3.0222508907318115,-0.00881192460656166,-0.08402807265520096,-0.039766550064086914,-0.00629816297441721,0.08647462725639343,-0.025450773537158966,-0.07500408735500211,-0.05904562417849035,-0.04116207903636672
3.032336950302124,-0.00545593723654747,-0.05332193523645401,-0.055886685848236084,0.06439384818077087,0.0798574686050415,-0.02138679102063179,-0.07472318396281373,-0.058215727354350925,-0.04138805836557291
3.042565107345581,0.0018753781914710999,-0.04940841346979141,-0.048760831356048584,0.14592333137989044,0.06822797656059265,-0.012646561488509178,-0.07364483063974925,-0.057482540899140164,-0.041489951478328284
3.052440881729126,0.001701153814792633,-0.0560603141784668,-0.04311186075210571,0.18229632079601288,0.05863136798143387,-0.012051078490912914,-0.07199156716586233,-0.05685625283991252,-0.04152292888126609
3.06257700920105,-0.0006740354001522064,-0.028510108590126038,-0.04118281602859497,0.20236164331436157,0.04160071909427643,0.005090091377496719,-0.06970418171409916,-0.05636196666019922,-0.04145383505197424
3.072622060775757,-0.004084933549165726,-0.013302847743034363,-0.031387925148010254,0.21531745791435242,0.025054853409528732,0.01115240529179573,-0.06730868278018091,-0.056038118950586184,-0.041250893658976565
3.0825140476226807,-0.004171337932348251,-0.012794412672519684,-0.02921539545059204,0.1853792667388916,0.0065192533656954765,0.01048874482512474,-0.06505580466513647,-0.055866447139285604,-0.041020582991932085
3.0928220748901367,-0.0038599148392677307,-0.011048980057239532,-0.03234785795211792,0.13025414943695068,-0.01268946286290884,0.006107312627136707,-0.0632303335006832,-0.05585084493616122,-0.04083824159790811
3.102299928665161,-0.001681838184595108,-0.013585604727268219,-0.03185504674911499,0.06596489995718002,-0.028391726315021515,0.0004560844972729683,-0.06201090262907086,-0.05604168248727639,-0.04076107449886768
3.112823009490967,-0.001493200659751892,-0.02320420742034912,-0.029992282390594482,0.0219661146402359,-0.04767389968037605,0.0036080421414226294,-0.06142025179107339,-0.05639736116556823,-0.04072148403767578
3.1224071979522705,-0.0011724792420864105,-0.015937112271785736,-0.024476468563079834,0.0031346366740763187,-0.05688098073005676,-0.0003107992233708501,-0.061110583102372766,-0.05687124791127485,-0.040698138878259044
3.1324188709259033,-0.0013864114880561829,-0.0011790432035923004,-0.02067619562149048,-0.00023099943064153194,-0.06378264725208282,-0.005098576657474041,-0.06083258449470189,-0.05742120007202191,-0.04071419299298964
3.1425111293792725,-0.0014545582234859467,0.0064537376165390015,-0.018015921115875244,0.011849897913634777,-0.06949512660503387,-0.0071572004817426205,-0.060645747536636326,-0.05805653093453888,-0.040771949676976095
3.152433156967163,-0.0016981251537799835,0.007654104381799698,-0.014074265956878662,0.03272588551044464,-0.07267308235168457,-0.015819665044546127,-0.060375679873986156,-0.05877586058069252,-0.040861399285523445
3.162606954574585,-0.0022186152637004852,0.008604470640420914,-0.004488229751586914,0.054536107927560806,-0.07173164933919907,-0.02829950489103794,-0.05985161188808319,-0.059507329949849266,-0.041047881294184706
3.172680139541626,-0.005430024117231369,0.010658342391252518,0.002126753330230713,0.04027867689728737,-0.06372414529323578,-0.03539837524294853,-0.05929210783308275,-0.06018733879697495,-0.04133790678453547
3.1826741695404053,-0.003921236842870712,0.008930288255214691,0.00651317834854126,0.02939753420650959,-0.05353569611907005,-0.04459613189101219,-0.058837362834233034,-0.06076577908845331,-0.041713008957341556
3.192560911178589,-0.0030448511242866516,-0.0021780841052532196,0.024901270866394043,0.027553744614124298,-0.03853006660938263,-0.05635734647512436,-0.05834821471025393,-0.061214779104222766,-0.04219121071974604
3.202562093734741,-0.009728752076625824,-0.00967181846499443,0.04508316516876221,0.019110724329948425,-0.022189179435372353,-0.0683910995721817,-0.05789134678021368,-0.06148823441787225,-0.04279965345256389
3.213106870651245,-0.013776622712612152,-0.0033307932317256927,0.05280435085296631,0.0021333214826881886,-0.0038058669306337833,-0.07345958054065704,-0.057745150140997105,-0.06162122129129989,-0.043504978925961654
3.2225921154022217,-0.009568251669406891,0.003941725939512253,0.05360305309295654,0.016221176832914352,0.016590485349297523,-0.07794966548681259,-0.05768994322105054,-0.061587335424386366,-0.04426560050052262
3.2326810359954834,-0.003963135182857513,0.0018340535461902618,0.054790377616882324,0.044557228684425354,0.03080444224178791,-0.0804305151104927,-0.057416795319149436,-0.06139245575624406,-0.045049815395312956
3.2429330348968506,-0.002050783485174179,0.010935347527265549,0.04829901456832886,0.083932064473629,0.03996305167675018,-0.08055222034454346,-0.056783096028599635,-0.06108900350749179,-0.04581614417014995
3.252549886703491,0.001597825437784195,0.019613154232501984,0.034393131732940674,0.09676679968833923,0.05188851058483124,-0.07564251869916916,-0.05593169821416895,-0.060705060519490456,-0.04654172361351553
3.2627530097961426,0.008525162935256958,0.018332701176404953,0.021889328956604004,0.11391542851924896,0.059387173503637314,-0.06922749429941177,-0.054921781746560545,-0.060226890099073394,-0.047200297143923174
3.2729320526123047,0.007398609071969986,0.015817202627658844,0.015246212482452393,0.13198143243789673,0.06971220672130585,-0.0484212301671505,-0.05369706832628816,-0.05964377059148968,-0.047724091804785734
3.284477949142456,0.0047078803181648254,0.01714538037776947,0.012087702751159668,0.13061150908470154,0.06629936397075653,-0.044448062777519226,-0.05232118256524516,-0.059067864372372006,-0.04810788514413625
3.292672872543335,0.0023237988352775574,0.026110224425792694,0.011211693286895752,0.10345824807882309,0.04685588926076889,-0.038761038333177567,-0.05118257283936206,-0.05861680543186921,-0.04846048353068289
3.3027150630950928,0.004792574793100357,0.02046230062842369,0.016452789306640625,0.06839346885681152,0.023848310112953186,-0.037607889622449875,-0.05040554704349095,-0.05838176074469817,-0.048799897488065284
3.312682867050171,0.006102468818426132,0.007559727877378464,0.022502481937408447,0.016266601160168648,0.005598331801593304,-0.041557785123586655,-0.050032499184739454,-0.05831707862318219,-0.049166888411816885
3.3226101398468018,0.0005847439169883728,0.007745519280433655,0.023968815803527832,-0.03756014257669449,-0.0052268849685788155,-0.036015480756759644,-0.05022842349081084,-0.05838484143497071,-0.04956279202330004
3.332677125930786,-0.0031214170157909393,0.00857517495751381,0.01702219247817993,-0.10182278603315353,-0.013573940843343735,-0.022896217182278633,-0.051047764892385404,-0.0585267422204616,-0.049900507769682155
3.342926025390625,-0.0019873157143592834,0.00340120866894722,0.00849539041519165,-0.11768164485692978,-0.01901557855308056,-0.014400199986994267,-0.05227133673295398,-0.05870378237119549,-0.05015500882615108
3.3526718616485596,-0.0038692615926265717,-0.0030497275292873383,0.009077191352844238,-0.09800136834383011,-0.018369007855653763,-0.018540777266025543,-0.053459655985442056,-0.05890134023979616,-0.050382684868316326
3.36274790763855,-0.0058509670197963715,-0.005854308605194092,0.005292057991027832,-0.0713961273431778,-0.017955685034394264,-0.020127488300204277,-0.054388755834417636,-0.059105250645843405,-0.05062106762979411
3.375239133834839,-0.00831526517868042,0.003093767911195755,-0.0008202791213989258,-0.0501580610871315,-0.018847089260816574,-0.019255036488175392,-0.0551616876319976,-0.05931442277790576,-0.05085436295778213
3.3828420639038086,-0.005878381431102753,0.004226259887218475,-0.0024770498275756836,-0.023412201553583145,-0.021010374650359154,-0.016094662249088287,-0.055662654591836974,-0.059510552576915295,-0.05104102556853681
3.393099069595337,-0.006303709000349045,-0.004513688385486603,0.0031969547271728516,-0.004052985459566116,-0.015068063512444496,-0.01737537607550621,-0.055812135094848336,-0.059666076325397,-0.05121032674357482
3.40273118019104,-0.009646866470575333,-0.003723781555891037,0.005456149578094482,-0.008805129677057266,-0.012493053451180458,-0.0188869871199131,-0.055907390137659066,-0.059818007573765104,-0.05138716306937868
3.4128830432891846,-0.011600159108638763,-0.003458213061094284,0.00636523962020874,-0.01985296979546547,-0.008748872205615044,-0.01565779745578766,-0.05613045019339965,-0.059971690934182184,-0.051569650129738465
3.4229300022125244,-0.011076264083385468,-0.011609673500061035,0.00986945629119873,-0.036143526434898376,-0.0034728827886283398,-0.01482715830206871,-0.05640881852270252,-0.0600543008626007,-0.05174059212854836
3.4328980445861816,-0.009595081210136414,-0.0144035704433918,0.012628138065338135,-0.042865827679634094,0.005206936039030552,-0.016377490013837814,-0.05670073838975329,-0.060087001774358696,-0.05192550933390851
3.4432342052459717,-0.012169353663921356,-0.010900575667619705,0.00992816686630249,-0.041187770664691925,0.014712823554873466,-0.01965637505054474,-0.05699766245390787,-0.06004656056175976,-0.0521318811172271
3.453148126602173,-0.010338887572288513,-0.010990161448717117,0.0030445456504821777,-0.023727869614958763,0.015881728380918503,-0.020267942920327187,-0.057362504774659435,-0.05998597569558655,-0.052353625317641116
3.463402032852173,-0.005818687379360199,-0.006780605763196945,-0.005884647369384766,0.005848930682986975,0.014714732766151428,-0.028076330199837685,-0.05748665105852295,-0.05991346066019478,-0.052609458879747766
3.4752981662750244,-0.004308685660362244,-0.0015944913029670715,-0.011265993118286133,0.029350463300943375,0.013734865933656693,-0.0347282700240612,-0.05719813158339158,-0.05985060111453637,-0.05291754494290263
3.483119010925293,-0.004142463207244873,-0.0055068135261535645,-0.011557817459106445,0.04404125735163689,0.016081644222140312,-0.04264451563358307,-0.05673042493697408,-0.059816753210188194,-0.053287471284911396
3.493220090866089,-0.0052125826478004456,-0.008706524968147278,-0.011633157730102539,0.05423635244369507,0.01446736790239811,-0.04702078178524971,-0.05617558563552471,-0.05981286309300598,-0.05371513194040404
3.5028951168060303,-0.005762804299592972,-0.007940813899040222,-0.007900238037109375,0.0511699877679348,0.012028978206217289,-0.05086558684706688,-0.055439246020183915,-0.05982480084066077,-0.05418516359649367
3.512882947921753,-0.004873376339673996,-0.010532516986131668,-0.008046507835388184,0.049741603434085846,0.0037848083302378654,-0.04993518441915512,-0.05473398290596311,-0.05985752346827506,-0.05465967889721187
3.526517152786255,-0.0035253167152404785,-0.008690625429153442,-0.0037021636962890625,0.053343795239925385,-0.0037162513472139835,-0.05372166633605957,-0.05408130713742627,-0.06001377676211822,-0.05515982502643516
3.533622980117798,-0.0014314353466033936,-0.008433587849140167,-0.0007951855659484863,0.048404477536678314,-0.011861751787364483,-0.04946471005678177,-0.05342660123294903,-0.06021410663753758,-0.05565141266697495
3.5429680347442627,0.001103907823562622,-0.0016747452318668365,-0.007633626461029053,0.040464263409376144,-0.023015867918729782,-0.0441298633813858,-0.05290786599897197,-0.06045976653651655,-0.05609276562245486
3.552896022796631,0.006352875381708145,0.0013185851275920868,-0.009739160537719727,0.033461764454841614,-0.027765126898884773,-0.036633919924497604,-0.05255381059942822,-0.06076473900625351,-0.056474167026000235
3.5629708766937256,0.007344663143157959,-0.004574347287416458,-0.007222890853881836,0.03005797788500786,-0.03190021961927414,-0.029715824872255325,-0.05219014791212226,-0.061100322410196535,-0.056782313306315356
