timestamp,accel_x,accel_y,accel_z,rotation_x,rotation_y,rotation_z, pitch,roll,yaw
0.04136300086975098,0.009076978079974651,-0.01681615225970745,0.007659316062927246,-0.008064121939241886,0.02662154659628868,-0.014498837292194366,0.020553605217371835,0.013753198292489688,-0.00014134613435685294
0.054045915603637695,0.007821925915777683,-0.0163772813975811,0.006008505821228027,-0.001229385263286531,0.02890734001994133,-0.00820685364305973,0.020504183759214176,0.014031758854634745,-0.00024584144548472784
0.05524611473083496,0.008225778117775917,-0.015642894431948662,0.007316470146179199,0.001454897690564394,0.030237631872296333,-0.00887988694012165,0.02050614977909852,0.01432990408221272,-0.00033800188308678874
0.05617213249206543,0.005724540911614895,-0.01832873374223709,0.009539961814880371,-0.005637416150420904,0.030560627579689026,-0.010283266194164753,0.020490594743738988,0.014649231441379477,-0.0004334035401431331
0.06520700454711914,0.004949145019054413,-0.01995513215661049,0.008881092071533203,-0.012384268455207348,0.02914702147245407,-0.00974983535706997,0.020405315692368694,0.014951675271036765,-0.0005261081421360837
0.07532191276550293,0.005339291878044605,-0.02064187452197075,0.007673382759094238,-0.010214108973741531,0.02841922454535961,-0.01251925714313984,0.020298386877031352,0.015248235922370257,-0.0006373845921615671
0.08582401275634766,0.0039047542959451675,-0.021245019510388374,0.004114687442779541,0.0006808836478739977,0.028814705088734627,-0.009496568702161312,0.020244545864142816,0.015538441271189958,-0.0007559844726130529
0.09560704231262207,0.0017611179500818253,-0.0165682602673769,0.00038558244705200195,0.009157142601907253,0.031153447926044464,-0.007320926059037447,0.020297902112270547,0.01585114059827288,-0.0008406403896387195
0.10531115531921387,0.00024334900081157684,-0.013695551082491875,-0.0012241601943969727,0.014636596664786339,0.02950628474354744,-0.005424755159765482,0.02042405567757053,0.016163611395835244,-0.0008996245288244157
0.11554908752441406,0.0022736825048923492,-0.013631239533424377,-0.001247107982635498,0.014070408418774605,0.024161051958799362,-0.0019405415514484048,0.020579953822671904,0.01643750121777699,-0.0009285203266471846
0.1256091594696045,0.0036553405225276947,-0.017978621646761894,0.0010049939155578613,0.009989912621676922,0.0199362151324749,0.000905312248505652,0.020703422316695565,0.01665813684872642,-0.0009303701688558021
0.13555908203125,0.00535682775080204,-0.017319122329354286,0.0019315481185913086,0.0011436410713940859,0.015183492563664913,0.0015355225186794996,0.02076784214367077,0.016833563776583994,-0.0009209002974486032
0.14567112922668457,0.005522634834051132,-0.017215175554156303,0.00156325101852417,-0.0031392546370625496,0.009620681405067444,0.00041007075924426317,0.02076497754598958,0.0169577186817739,-0.0009114197122353285
0.15566301345825195,0.006638592109084129,-0.018531328067183495,0.004095673561096191,-0.005004149861633778,0.0038682094309479,0.0005218703299760818,0.020730556982068993,0.017031960956899923,-0.0009040661522563533
0.165632963180542,0.007126733660697937,-0.015500031411647797,0.006934642791748047,-0.006706176325678825,-0.0017545227892696857,-0.0017580618150532246,0.020679565759078585,0.01704734620962887,-0.0008983370575484216
0.17545104026794434,0.005823992192745209,-0.014734022319316864,0.00783681869506836,-0.008559653535485268,-0.0023025567643344402,-0.0021599861793220043,0.020606327184781677,0.017022540578098214,-0.0009152389883273858
0.1854259967803955,0.005103792995214462,-0.013819895684719086,0.006434798240661621,-0.007521286606788635,5.7536642998456955e-05,-0.0029472163878381252,0.020528616534567428,0.01701028439334261,-0.0009370420531556948
0.19542813301086426,0.002064010128378868,-0.011857399716973305,0.0071146488189697266,-0.0020137527026236057,-0.0026087756268680096,-0.002488620113581419,0.020843230321033433,0.017028945039018507,-0.0009647674820709894
0.20546603202819824,0.0019881408661603928,-0.010310260578989983,0.007242023944854736,0.00042809941805899143,-0.0029853470623493195,-0.0015205610543489456,0.021291834413501746,0.017059208660049868,-0.0009832060432281996
0.21539807319641113,0.0023716725409030914,-0.008784718811511993,0.010161519050598145,-0.001040151109918952,-0.0027821920812129974,0.0007656028028577566,0.021718841697203898,0.017118360899405764,-0.000983593718044369
0.22560405731201172,0.0023027658462524414,-0.009791148826479912,0.012745082378387451,-0.0023112776689231396,0.002746796468272805,0.0010881114285439253,0.02211631733453877,0.017217973795465857,-0.0009681505622343967
0.236281156539917,0.0009021349251270294,-0.010295826941728592,0.010994493961334229,-0.005770041607320309,0.0032631391659379005,0.002888408489525318,0.022496744136550336,0.01736759083766926,-0.0009484238550294738
0.24570202827453613,0.0030706319957971573,-0.0078058987855911255,0.013777852058410645,-0.003546568565070629,-0.00017340388149023056,0.0027531199157238007,0.022789480742552777,0.017503343193255003,-0.0009218201872605225
0.255662202835083,0.006336703896522522,-0.005747400224208832,0.017981529235839844,-0.0036191230174154043,0.0015180138871073723,0.0013677969109266996,0.023047508223203388,0.017609610405848016,-0.000899660427513769
0.26560187339782715,0.006998514756560326,-0.0031217820942401886,0.014128804206848145,-0.0021943317260593176,0.0017302678897976875,-0.0020785999950021505,0.02329282259367645,0.017710882930703064,-0.0008985823245236596
0.27573299407958984,0.006403587758541107,-0.00238165445625782,0.01152867078781128,-0.0014617627020925283,0.008515824563801289,-0.004852335434406996,0.023498948769852486,0.01778713013264594,-0.000933615802870657
0.28747105598449707,0.005270272493362427,-0.004612067714333534,0.008364319801330566,-0.005214156582951546,0.010998690500855446,-0.007513632532209158,0.023648948544273785,0.017913481411674804,-0.0010004439701058493
0.29570603370666504,0.005533911287784576,-0.0045351628214120865,0.005139052867889404,0.0006348772440105677,0.009963519871234894,-0.007818138226866722,0.023786926833693333,0.01804668919508438,-0.0010774441507065895
0.30581021308898926,0.00853327289223671,-0.0016590245068073273,0.004033803939819336,0.00040850858204066753,0.006355468649417162,-0.012587327510118484,0.023977572118678583,0.018160253778127855,-0.0011838001445470378
0.31569790840148926,0.009097849950194359,-0.0027017872780561447,0.004776060581207275,-0.007788218557834625,0.004069100599735975,-0.014509489759802818,0.024155566332290202,0.01822139297361239,-0.0013232822428092567
0.3257482051849365,0.010967055335640907,-0.0073438361287117004,0.005232274532318115,-0.01846722699701786,-0.0006936965510249138,-0.013456742279231548,0.024167451957347375,0.018290091901122726,-0.0014660861513420792
0.3363502025604248,0.012729179114103317,-0.009319616481661797,0.005279123783111572,-0.01886928267776966,-0.008637862280011177,-0.017649943009018898,0.02408373510476203,0.018343751610671553,-0.001621238103097134
0.3461601734161377,0.013289982452988625,-0.010975383222103119,0.005053043365478516,-0.017223183065652847,-0.007984854280948639,-0.013834698125720024,0.02395380950042737,0.018362731465552805,-0.0017755616875063322
0.3558330535888672,0.01178034208714962,-0.010391706600785255,0.0016220808029174805,-0.014874656684696674,-0.006608843803405762,-0.017918655648827553,0.02383554709075169,0.01839223112332799,-0.0019303440320444364
0.3657701015472412,0.008186262100934982,-0.01065409928560257,0.0012714862823486328,-0.01141281332820654,-0.006129740737378597,-0.017221175134181976,0.023802028062764782,0.018415749941823066,-0.0020950920847269427
0.3757779598236084,0.005212675780057907,-0.01303732581436634,0.0041397809982299805,-0.011095182038843632,-0.0017126668244600296,-0.017246954143047333,0.02378390864931788,0.01845966004405586,-0.0022597576637168907
0.38620901107788086,0.0029694680124521255,-0.014580322429537773,0.006732761859893799,-0.009448816068470478,0.005305828060954809,-0.01681126095354557,0.02370573610065309,0.018612451701315168,-0.002431190770170641
0.3957509994506836,-0.001513015478849411,-0.01479572057723999,0.007124662399291992,6.188405677676201e-06,0.014097321778535843,-0.019523849710822105,0.02371922237477272,0.01885310573355736,-0.00261690177898174
0.4058811664581299,-0.002307482063770294,-0.013553740456700325,0.006670534610748291,0.014622148126363754,0.021502774208784103,-0.018981629982590675,0.02393892364090703,0.01919006382903019,-0.002817636129519423
0.4158360958099365,-0.002534806728363037,-0.010073663666844368,0.003219783306121826,0.0240870900452137,0.026975570246577263,-0.020416967570781708,0.02432158022317107,0.019616139524716476,-0.0030230843789643184
0.42606616020202637,-0.0017467550933361053,-0.00943809188902378,0.0009556412696838379,0.03427208214998245,0.026533218100667,-0.02182365022599697,0.02481997246803628,0.0200645135176335,-0.003250953076403192
0.4364321231842041,-0.0007847454398870468,-0.009657181799411774,0.004382789134979248,0.03624853119254112,0.02348092570900917,-0.021305184811353683,0.025348731176260606,0.020461012240701605,-0.0034730939412888377
0.4458611011505127,-0.0006084553897380829,-0.008573038503527641,0.002241075038909912,0.03870955854654312,0.026827452704310417,-0.024398179724812508,0.025883733395892974,0.02080398990503224,-0.0037014805181283935
0.4557821750640869,-0.0009814165532588959,-0.008790774270892143,-0.001838982105255127,0.031066102907061577,0.02357453666627407,-0.029310379177331924,0.026444388227524807,0.021116397412226623,-0.003982793593125728
0.466015100479126,-0.0003783479332923889,-0.008792921900749207,-0.005534112453460693,0.024687565863132477,0.013381287455558777,-0.02699103392660618,0.0269459587985389,0.021322448505379368,-0.004271500615053025
0.4759809970855713,0.004910767078399658,-0.005225582048296928,-0.006569087505340576,0.01658426597714424,0.007347984239459038,-0.024358073249459267,0.027370144869989163,0.021374186673882942,-0.0045290679043765
0.4865238666534424,0.007539201527833939,-0.005109770223498344,-0.006180882453918457,0.011110937222838402,0.0012749119196087122,-0.02282276190817356,0.027684438666735256,0.021370445132692248,-0.004777282019535604
0.4960792064666748,0.008057959377765656,-0.00777929462492466,-0.004888653755187988,0.011301953345537186,-0.006918302737176418,-0.019909581169486046,0.027914174641128924,0.02129428356195278,-0.005001219388819358
0.5060350894927979,0.007751477882266045,-0.006512833759188652,0.0020662546157836914,0.008953044191002846,-0.01174874510616064,-0.016966521739959717,0.028127862533350437,0.021158302512736118,-0.005191929376452919
0.5159690380096436,0.008942443877458572,-0.005827445536851883,0.006336390972137451,0.0065049841068685055,-0.015378322452306747,-0.014288341626524925,0.028325046344607342,0.0210049543254714,-0.0053443553488788965
0.5262548923492432,0.0081566721200943,-0.005849884822964668,0.008516371250152588,0.008067727088928223,-0.009872237220406532,-0.010966580361127853,0.028501043463080997,0.02085995586613415,-0.005459243161436172
0.5368859767913818,0.005412062630057335,-0.004391053691506386,0.008313417434692383,0.010370145551860332,-0.0010040439665317535,-0.007324920501559973,0.028708739759237826,0.020797032653201625,-0.005558160968691304
0.5460410118103027,0.0028999485075473785,-0.001982150599360466,0.007817387580871582,0.021498164162039757,0.0005437852814793587,-0.002075563883408904,0.028981525747816612,0.020791606163884688,-0.0056067770629583714
0.5560429096221924,0.00364110991358757,0.002640301361680031,0.010262906551361084,0.03248348832130432,-0.00015409616753458977,-0.0005155373946763575,0.029316399244525785,0.020859405314675516,-0.0056193306266238635
0.5660090446472168,0.007208831608295441,0.006553437560796738,0.012049674987792969,0.03241690993309021,6.614718586206436e-05,-0.0050636837258934975,0.02970492387855228,0.02096936270369456,-0.005664512027964074
0.5760328769683838,0.009548129513859749,0.0032932311296463013,0.012508809566497803,0.027554109692573547,-0.003717405255883932,-0.0035384383518248796,0.03010700814783939,0.021056526355899163,-0.0057171179380512225
0.5861890316009521,0.011864950880408287,0.001189541071653366,0.013917088508605957,0.020785152912139893,-0.00834757648408413,-0.004350968636572361,0.03042961346176455,0.021105056079591608,-0.005755632662318554
0.596264123916626,0.01481340266764164,-0.0009342227131128311,0.015115201473236084,0.007181609980762005,-0.008351972326636314,-0.003089322941377759,0.030640542482799196,0.0211474928610361,-0.005808353005720385
0.6064159870147705,0.012874262407422066,-0.006824258714914322,0.016837894916534424,-0.005871341563761234,-0.014394151046872139,0.0023421940859407187,0.03070146326325407,0.021133536211988206,-0.0058096092545477165
0.616098165512085,0.01348278671503067,-0.007711401209235191,0.017710387706756592,-0.006151239853352308,-0.017820930108428,0.007433305960148573,0.0306840624861758,0.021028467496503365,-0.005761938491902447
0.6261231899261475,0.010323211550712585,-0.007714584469795227,0.01888871192932129,-0.00028482871130108833,-0.017348485067486763,0.011915139853954315,0.030665612380212072,0.020892039737750837,-0.005665748929053693
0.6362600326538086,0.006744394078850746,-0.0038908962160348892,0.013458847999572754,0.010480416938662529,-0.010809759609401226,0.020587777718901634,0.030659342952067768,0.020793417458891295,-0.005491437970497873
0.6461420059204102,0.006167814135551453,0.0011420156806707382,0.01003962755203247,0.018584949895739555,-0.007623818702995777,0.02225038781762123,0.03070264880211054,0.020790189118602063,-0.005279579018555309
0.6562621593475342,0.005169743672013283,-0.0009544938802719116,0.006387650966644287,0.017812497913837433,-0.00548459030687809,0.02630654349923134,0.03083398484439062,0.020842334172692694,-0.005039784478096388
0.666100025177002,0.008906831964850426,-0.002940969541668892,0.008106112480163574,0.01623937115073204,-0.013100698590278625,0.02686234563589096,0.030999077758983248,0.02087429723911511,-0.004780733848653028
0.676314115524292,0.009196572005748749,-0.007433285936713219,0.011549890041351318,0.012793789617717266,-0.021245844662189484,0.032815735787153244,0.03116076932962809,0.020859308287088513,-0.004491665747299127
0.6863892078399658,0.010321984067559242,-0.009723145514726639,0.012536585330963135,0.015597830526530743,-0.02693089470267296,0.0391647107899189,0.03140398597945401,0.020741051584562315,-0.004138026461613658
0.6962580680847168,0.010770443826913834,-0.007570046931505203,0.010257720947265625,0.016156096011400223,-0.027979202568531036,0.043300919234752655,0.03166512847741153,0.020597836006283902,-0.003735227951355959
0.7063648700714111,0.00913044810295105,-0.008848477154970169,0.001983344554901123,0.01596062071621418,-0.03487252816557884,0.047216035425662994,0.031927965236291544,0.020391542121985008,-0.003290412999655389
0.7162930965423584,0.009938223287463188,-0.007792972028255463,-0.0007190108299255371,0.015346362255513668,-0.03483825922012329,0.06159432977437973,0.03215961067013349,0.02010250758888152,-0.0027577532926675876
0.7267930507659912,0.010902533307671547,-0.005209680646657944,-0.0018901228904724121,0.009620299562811852,-0.044438429176807404,0.05701422691345215,0.032240508508503,0.01977888824467614,-0.002166192721396012
0.7368590831756592,0.013522475957870483,-0.009804017841815948,-0.007133781909942627,0.0017211639788001776,-0.03884641081094742,0.06426553428173065,0.03228486671843362,0.01943228515800325,-0.0015727357223497996
0.7462551593780518,0.012896798551082611,-0.009528681635856628,-0.006046473979949951,-0.004459233954548836,-0.04302171245217323,0.06141595169901848,0.03234660749577943,0.01912699944939691,-0.0009371296993051932
0.7562639713287354,0.012429485097527504,-0.00470704585313797,-0.009275078773498535,-0.014903618954122066,-0.05174817889928818,0.06212243437767029,0.03236172978117712,0.018770094981657347,-0.00032825826285332147
0.7663149833679199,0.014127140864729881,-0.011414412409067154,-0.002339661121368408,-0.02019159123301506,-0.04835318401455879,0.0616057813167572,0.03233770460023187,0.018384415017150664,0.00029948326693046386
0.7764451503753662,0.011232450604438782,-0.012094326317310333,-0.00019508600234985352,-0.020081236958503723,-0.04178556427359581,0.060212843120098114,0.03225283835353321,0.018074497018532937,0.0009016897649779777
0.7865540981292725,0.008412718772888184,-0.008876968175172806,0.003702998161315918,-0.01735256239771843,-0.04330969229340553,0.0586322583258152,0.03220479084432724,0.017765939753799,0.0015029075262611713
0.796550989151001,0.007977917790412903,-0.00706326961517334,0.007309138774871826,-0.007112391293048859,-0.043801795691251755,0.05741481855511665,0.03221796137986513,0.01745285784324385,0.0020816853009614196
0.8065340518951416,0.010658711194992065,-0.0034724287688732147,0.00708460807800293,-0.0061190323904156685,-0.037782784551382065,0.05541984736919403,0.032238251482506114,0.017167514562104563,0.0026423877867419445
0.8165009021759033,0.00824788212776184,-0.004701118916273117,0.007403969764709473,-0.003080615308135748,-0.024737779051065445,0.04879400506615639,0.032352395163370726,0.017014826792549943,0.0031576681309079765
0.8264350891113281,0.0011308323591947556,-0.0087505541741848,0.007170438766479492,0.006268678233027458,-0.014973833225667477,0.04735776409506798,0.03251447277444727,0.01697556949606164,0.003627561460615748
0.8370649814605713,-0.0005183573812246323,-0.007872030138969421,0.00852346420288086,0.008974166586995125,-0.00945287849754095,0.044854551553726196,0.03266065002170734,0.016992158773503217,0.004087866546401961
0.8465650081634521,-0.0016288850456476212,-0.004963889718055725,0.013487279415130615,0.013672249391674995,-0.006560152396559715,0.04140203073620796,0.03294442999477992,0.017065299611392155,0.004510523094747357
0.856611967086792,-0.00474199466407299,-0.006798356771469116,0.01777714490890503,0.018248341977596283,0.001061148475855589,0.03838344290852547,0.03329216540412146,0.01715743116934729,0.004900248348634024
0.8664681911468506,-0.008888572454452515,-0.010164029896259308,0.015184879302978516,0.022102203220129013,0.007906537503004074,0.03273674473166466,0.03361930109956001,0.017306500466750238,0.005249418613488144
0.8765280246734619,-0.00911538116633892,-0.006557140499353409,0.01004403829574585,0.024467090144753456,0.0072830915451049805,0.02931644767522812,0.03394573567909475,0.01747258530636656,0.005557393518751418
0.8868482112884521,-0.006504852324724197,-0.0033209212124347687,0.008504748344421387,0.026852482929825783,0.009332127869129181,0.023319542407989502,0.03423718018646904,0.017669993901827042,0.005808498201759827
0.8963911533355713,-0.008213702589273453,-0.0036324597895145416,0.0056223273277282715,0.02797665260732174,0.008112710900604725,0.024209994822740555,0.03455143695427134,0.01783802408143368,0.0060337072871369055
0.9066159725189209,-0.007953794673085213,-0.003284074366092682,0.005561769008636475,0.028662685304880142,0.0035134321078658104,0.021321795880794525,0.03494583751768587,0.01789884190391115,0.006251683304319743
0.9164631366729736,-0.00687839649617672,-0.004890702664852142,0.004509687423706055,0.03393291309475899,0.0028244720306247473,0.024322805926203728,0.035353620097061375,0.017907079334208275,0.006479676957065399
0.9265182018280029,-0.005765311419963837,-0.004529397934675217,0.004298746585845947,0.031458571553230286,-0.005197768099606037,0.022676706314086914,0.035730422421222006,0.01786231376871396,0.006707148497721962
0.9368541240692139,-0.003944188356399536,-0.0036711692810058594,0.004442453384399414,0.019334612414240837,-0.01923995092511177,0.02710554376244545,0.0360700690836185,0.017673947401780698,0.006950423740315204
0.9465019702911377,0.0004601161926984787,-0.005213223397731781,0.006453573703765869,0.0068955193273723125,-0.030094195157289505,0.03390512615442276,0.03632872272803194,0.017313093387334708,0.007252248157426518
0.9570770263671875,0.0032202135771512985,-0.009079370647668839,0.007068634033203125,-0.005208780523389578,-0.032549984753131866,0.03873796388506889,0.036399388113702226,0.016887291630295037,0.007611667655668865
0.9665360450744629,0.0013568531721830368,-0.010248232632875443,0.00532156229019165,-0.002189554739743471,-0.04047342389822006,0.04627817124128342,0.03639018854481357,0.01644621571315496,0.008042181155883591
0.9765169620513916,0.001391146332025528,-0.009435832500457764,0.005177021026611328,-0.0007400794420391321,-0.05005587264895439,0.06220520660281181,0.03640914169477713,0.015907965556391478,0.008586094533541436
0.9868860244750977,0.004797973670065403,-0.006330396980047226,0.006359696388244629,0.00738975265994668,-0.06355996429920197,0.08005424588918686,0.03647812531829717,0.015247243080516684,0.00928696477493658
0.9966261386871338,0.008448098786175251,-0.007806349545717239,0.008350789546966553,-0.006369070149958134,-0.06955429911613464,0.09429193288087845,0.03657389482455739,0.014511026368592592,0.010161606547969555
1.0068109035491943,0.012328647077083588,-0.018445655703544617,0.0029044747352600098,-0.032164715230464935,-0.0906372144818306,0.1235310435295105,0.03646307868355609,0.013635734284560769,0.011233414702711723
1.0166809558868408,0.015319201163947582,-0.027215924113988876,0.005615949630737305,-0.04097767919301987,-0.11909938603639603,0.1591566801071167,0.03614596425352669,0.012536300641844158,0.012678410950262384
1.0267322063446045,0.019749948754906654,-0.02904488518834114,0.0025495290756225586,-0.0664588063955307,-0.14754462242126465,0.17676523327827454,0.03572053657313238,0.011201951858547903,0.014354931241345016
1.036830186843872,0.023455407470464706,-0.030001752078533173,0.0019924044609069824,-0.08920832723379135,-0.17317283153533936,0.21451948583126068,0.035114243099040765,0.009616159404002886,0.016338624045778016
1.0467422008514404,0.023572130128741264,-0.027585163712501526,-0.0011507272720336914,-0.11715926229953766,-0.195221409201622,0.22846166789531708,0.034249674190950166,0.007773757759706663,0.01856380235016402
1.0570480823516846,0.020935337990522385,-0.03273415565490723,-0.005890369415283203,-0.1436387598514557,-0.220265194773674,0.25349926948547363,0.03312836010114898,0.005724638395703352,0.02097951500189915
1.066702127456665,0.018720872700214386,-0.028615061193704605,-0.005728960037231445,-0.1555928885936737,-0.2465980052947998,0.27419760823249817,0.03176883447430308,0.003436330665880571,0.023638669059186705
1.0766851902008057,0.01580190658569336,-0.017561830580234528,-0.0040160417556762695,-0.16731080412864685,-0.2611447274684906,0.27557098865509033,0.0303396886575073,0.0010134484081355407,0.0263889102575556
1.0869970321655273,0.007429111748933792,-0.020404251292347908,6.735324859619141e-06,-0.17828115820884705,-0.2805357277393341,0.29327890276908875,0.02896150549043022,-0.0015248961474555766,0.029235894578801058
1.0966951847076416,0.0019667274318635464,-0.017119282856583595,0.0030132532119750977,-0.1921563446521759,-0.29751279950141907,0.305493026971817,0.02759199600288389,-0.00419641430095867,0.032229228263134624
1.106762170791626,0.0020268652588129044,-0.015952643007040024,0.004196524620056152,-0.20293761789798737,-0.31626439094543457,0.3186279833316803,0.02613359469513347,-0.0069887070850302765,0.0353295387654258
1.1170871257781982,-0.0006681540980935097,-0.026468243449926376,0.005097389221191406,-0.21565042436122894,-0.34568125009536743,0.3464772403240204,0.024482823106307505,-0.01003172252585389,0.0386169319527476
1.1267790794372559,0.0023089637979865074,-0.028002483770251274,0.00394672155380249,-0.23131246864795685,-0.38350769877433777,0.3747307360172272,0.022200277864230986,-0.013757168507559949,0.04221424708601893
1.1370689868927002,0.006951859220862389,-0.03471232205629349,0.004251956939697266,-0.24006927013397217,-0.4342556297779083,0.41118913888931274,0.01977762348805493,-0.017927679872319465,0.046093220130733165
1.146899938583374,0.009749431163072586,-0.0487639494240284,-0.001244187355041504,-0.2385006695985794,-0.4873172640800476,0.4437428414821625,0.017276469177857523,-0.022618177000899912,0.050340254012503645
1.1572458744049072,0.012051688507199287,-0.047966644167900085,-0.009470224380493164,-0.2245514839887619,-0.5440767407417297,0.46166470646858215,0.014853855669048802,-0.02785148678009083,0.05482276031189132
1.1667349338531494,0.008646443486213684,-0.06248883903026581,-0.01241976022720337,-0.24919557571411133,-0.5814424753189087,0.4919475317001343,0.012370615424519973,-0.03357319860106718,0.05950260267921563
1.176811933517456,0.005969133228063583,-0.08765184134244919,-0.022764086723327637,-0.24038682878017426,-0.6510417461395264,0.5576556324958801,0.00966838237770932,-0.03976470551807474,0.06465771216442712
1.186959981918335,0.011222660541534424,-0.10987300425767899,-0.02272796630859375,-0.18309292197227478,-0.7511007189750671,0.6474292278289795,0.007237782482058487,-0.046809487650303364,0.07055975890991116
1.1968061923980713,0.023229874670505524,-0.10950185358524323,-0.021591544151306152,-0.06808789819478989,-0.8681768774986267,0.7345386743545532,0.005655774237225132,-0.05496645765908294,0.07745674484725704
1.2068450450897217,0.02831723541021347,-0.121672123670578,-0.03991013765335083,0.03811177983880043,-0.9473609328269958,0.8105074763298035,0.005066914226085727,-0.06412886682100027,0.08516242309034446
1.216904878616333,0.018071897327899933,-0.19797855615615845,-0.07914787530899048,0.1380501240491867,-1.0516129732131958,0.9124330878257751,0.005313825388118149,-0.07415616475021239,0.09382302497001341
1.227776050567627,0.010908856987953186,-0.2473008930683136,-0.11575967073440552,0.2449377030134201,-1.1608071327209473,1.060266137123108,0.006437062820927296,-0.08526340923039036,0.10378240991660874
1.2370588779449463,0.005799219012260437,-0.2627979815006256,-0.11766773462295532,0.3866726756095886,-1.3249483108520508,1.201315999031067,0.008563932851802163,-0.09778619720456039,0.11537018693132957
1.2469918727874756,0.0005372464656829834,-0.2828562259674072,-0.09080475568771362,0.5254520773887634,-1.4925545454025269,1.3177770376205444,0.011729717468050224,-0.11198513601163008,0.1283772853475895
1.2569019794464111,-0.016544148325920105,-0.2994162440299988,-0.0531577467918396,0.7215476632118225,-1.6594644784927368,1.4409410953521729,0.01625778803005965,-0.12800249970900246,0.14283155909738934
1.266860008239746,-0.04344834387302399,-0.279889851808548,-0.030916869640350342,0.9012276530265808,-1.7527326345443726,1.5672396421432495,0.022296554644633478,-0.14545473348681906,0.1588668942597204
1.2770369052886963,-0.08771474659442902,-0.28008145093917847,0.0031890273094177246,1.027225136756897,-1.842827320098877,1.6892482042312622,0.02938576446563267,-0.16388194498638264,0.17647460676612411
1.2876510620117188,-0.12382353842258453,-0.31994104385375977,0.03195136785507202,0.9849362373352051,-1.90693199634552,1.8614493608474731,0.03637443193997138,-0.1832599728810178,0.19576533580178634
1.2970800399780273,-0.12138286232948303,-0.3229115307331085,0.01619654893875122,0.7652548551559448,-1.9739073514938354,1.9716514348983765,0.04141864162692116,-0.20358899678514222,0.21627741026881264
1.3071839809417725,-0.11295220255851746,-0.3230842053890228,-0.004975438117980957,0.42096540331840515,-2.074687957763672,2.2164080142974854,0.042818844842311854,-0.22463149389403725,0.23807222042083612
1.3171799182891846,-0.10617084801197052,-0.3598666191101074,0.011098980903625488,-0.16936257481575012,-2.137000322341919,2.352088451385498,0.03865625945875226,-0.24682159433659623,0.2604910248416762
1.32700514793396,-0.11712396144866943,-0.4002733826637268,0.07648622989654541,-0.7017157077789307,-2.153423309326172,2.5369205474853516,0.028166086062573037,-0.26902756141087025,0.28318656932647246
1.3373501300811768,-0.19762012362480164,-0.44602257013320923,0.09299665689468384,-0.9763553142547607,-2.123074769973755,2.610819101333618,0.012824289935305216,-0.2909421104339342,0.3054940570457128
1.3470630645751953,-0.30627548694610596,-0.48839858174324036,0.1142963171005249,-0.7429590821266174,-1.8668103218078613,2.7413620948791504,-0.003886787450027809,-0.3110058219095077,0.32838058057282
1.3570830821990967,-0.39185479283332825,-0.5305774211883545,0.07082623243331909,-0.29340335726737976,-1.4310365915298462,2.58805251121521,-0.016845883692947563,-0.3273224379281961,0.3523458544445558
1.367021083831787,-0.4024876654148102,-0.5867747068405151,-0.006825268268585205,0.1867944300174713,-1.2256698608398438,2.6760008335113525,-0.026032967704121952,-0.3401711178934798,0.37693357031992997
1.3770711421966553,-0.26851344108581543,-0.4197727143764496,-0.0542217493057251,0.5576457977294922,-0.9459087252616882,2.5768697261810303,-0.0315491205018954,-0.35033707292736715,0.40301530086786413
1.387477159500122,-0.24890241026878357,-0.44135016202926636,0.05604112148284912,1.0464065074920654,-0.6240326762199402,2.550938844680786,-0.03283305174783046,-0.3573543051167615,0.42973669173327655
1.397075891494751,-0.32735100388526917,-0.46245625615119934,0.14493036270141602,1.4824625253677368,-0.265649676322937,2.5361592769622803,-0.029523477979773147,-0.36099749205711307,0.4582406772880312
1.4071362018585205,-0.2505738139152527,-0.2534598708152771,0.19088292121887207,1.5363742113113403,0.0835953950881958,2.574211835861206,-0.02400105227420751,-0.3612789392687234,0.48759786300679964
1.4171102046966553,-0.2185334861278534,-0.17511403560638428,0.16826504468917847,1.184159755706787,0.36417341232299805,2.404367446899414,-0.019903497732323198,-0.35845320528611757,0.5158247579018109
1.427264928817749,-0.23321163654327393,-0.20598216354846954,0.2001861333847046,0.8928837180137634,0.6418577432632446,2.345956802368164,-0.018483774548107432,-0.3530060432812793,0.5415127155824185
1.437412977218628,-0.29598483443260193,-0.22017882764339447,0.26514559984207153,0.7392042875289917,0.9961315989494324,2.4441006183624268,-0.018901821802906543,-0.34435522181604045,0.5668604080058108
1.4471209049224854,-0.35621005296707153,-0.2076645791530609,0.23349106311798096,0.8511976599693298,1.24680757522583,2.469731092453003,-0.01966286692111366,-0.3326636210606171,0.5926831197943389
1.4572398662567139,-0.30039045214653015,-0.15566089749336243,0.23185676336288452,1.1008033752441406,1.4006644487380981,2.7113401889801025,-0.01880649337518118,-0.3188397202016646,0.6200140755006509
1.4671640396118164,-0.26053717732429504,-0.13646173477172852,0.29615384340286255,1.3473433256149292,1.6322494745254517,3.0053160190582275,-0.015475954595900296,-0.3032209574814293,0.6517369247115663
1.477264165878296,-0.21803995966911316,-0.23525835573673248,0.2848028540611267,0.9903143644332886,1.7407146692276,2.8730640411376953,-0.012648771596815335,-0.28573260386486055,0.6829782138356091
1.4872820377349854,-0.14634165167808533,-0.5083812475204468,0.14274168014526367,0.8517056703567505,1.7277309894561768,3.1457598209381104,-0.01225785505803198,-0.26811862605864367,0.7144535985228834
1.4972259998321533,0.06151236593723297,-0.4800769090652466,0.07423532009124756,0.9047286510467529,1.8821202516555786,3.2340586185455322,-0.011907564619659491,-0.24975668825496375,0.7476269778480185
1.5073778629302979,0.20842091739177704,-0.23445171117782593,-0.02341252565383911,0.9078096747398376,2.089993715286255,3.3585033416748047,-0.010865434494434499,-0.22951749296912421,0.7817888898995009
1.5173430442810059,0.20932072401046753,-0.11757668107748032,-0.023049533367156982,0.7327883243560791,2.305341958999634,3.47123384475708,-0.010155525351057921,-0.20716295205793256,0.8170402340732982
1.5274150371551514,0.35522139072418213,0.0018478548154234886,0.03566044569015503,0.39851662516593933,2.571136713027954,3.522763729095459,-0.011229698667213036,-0.1824610742117415,0.8525656312924087
1.5373671054840088,0.453396737575531,0.09094379097223282,0.07966393232345581,0.047549955546855927,2.7905819416046143,3.4752798080444336,-0.015014333663844805,-0.15511557164145437,0.8874757086527857
1.5473711490631104,0.5183678269386292,0.1341870278120041,0.09888380765914917,-0.07458926737308502,2.9369592666625977,3.412848711013794,-0.02014225586575537,-0.12585704387291521,0.9216229929095986
1.557455062866211,0.6155014634132385,0.14031143486499786,0.14028185606002808,0.039441611617803574,3.008195638656616,3.3522017002105713,-0.024196453387505822,-0.09530279496397853,0.9552120353859204
1.5672681331634521,0.7126129865646362,0.15507638454437256,0.13305199146270752,0.3778071403503418,3.034475326538086,3.2504284381866455,-0.02481252939980205,-0.06423917107341096,0.9884075509439787
1.5773661136627197,0.8178598284721375,0.16593430936336517,0.05955517292022705,0.7584220170974731,3.024968147277832,3.1091196537017822,-0.020652140321075027,-0.03315897349090707,1.0204473916634145
1.5873949527740479,0.8939595222473145,0.23605726659297943,-0.04638671875,1.040784478187561,2.971376895904541,2.9669246673583984,-0.012081946033942508,-0.002586808604950611,1.0510118453921682
1.5973470211029053,0.9119017720222473,0.28819385170936584,-0.11855065822601318,1.0675513744354248,2.823822021484375,2.792618989944458,-0.0009759595860652721,0.026669791691090343,1.0797555437316053
1.6073400974273682,0.9003892540931702,0.2971048057079315,-0.11293536424636841,0.8032753467559814,2.5835506916046143,2.5814249515533447,0.009644154340317278,0.05364924086146279,1.1063049773073685
1.617398977279663,0.8297112584114075,0.27362266182899475,-0.029346823692321777,0.40176647901535034,2.2694461345672607,2.2554526329040527,0.017244862281982402,0.07766619589059304,1.1301744248596646
1.6273539066314697,0.7088948488235474,0.27965933084487915,0.08299583196640015,0.12521503865718842,1.8995864391326904,1.8568871021270752,0.021619151380649425,0.09817067880704161,1.150452738636091
1.6376910209655762,0.579778254032135,0.3212180733680725,0.1151074767112732,0.00635250099003315,1.4488849639892578,1.4767173528671265,0.023963439864363736,0.11456661767496001,1.1669489861264841
1.6474668979644775,0.49143141508102417,0.3492503762245178,0.003188014030456543,0.0009542736224830151,1.0084357261657715,1.1120965480804443,0.025506945653430445,0.12653154360429184,1.1798345856734358
1.6577398777008057,0.42814868688583374,0.3466460406780243,-0.1212204098701477,0.031160863116383553,0.617704451084137,0.7779178023338318,0.026900900194215854,0.1343768810846478,1.1891883888066954
1.667417049407959,0.3214845657348633,0.33642905950546265,-0.11315083503723145,0.021255234256386757,0.35093453526496887,0.45552459359169006,0.027991084321864527,0.13899329610205755,1.1952160479578724
1.6776480674743652,0.2569652199745178,0.3192008435726166,-0.028600454330444336,0.11910118162631989,0.21294046938419342,0.2650850713253021,0.029119657624150273,0.14159308588875336,1.198620097180762
1.6874480247497559,0.20203827321529388,0.2788948714733124,0.02458369731903076,0.2296050637960434,0.20549240708351135,0.20797039568424225,0.03121880924059495,0.14357147053564873,1.2006352182844025
1.6977250576019287,0.18166331946849823,0.2154674530029297,0.021778583526611328,0.23110853135585785,0.2521531581878662,0.19768793880939484,0.0338480977755525,0.14582553625692016,1.2022688568288928
1.7074649333953857,0.16056717932224274,0.1395677626132965,0.019530057907104492,0.11467193067073822,0.26830416917800903,0.1909719705581665,0.035937343785894055,0.1483916807299217,1.2039470773994796
1.7177560329437256,0.1247086375951767,0.11317367851734161,0.024677932262420654,-0.08904965221881866,0.2230444997549057,0.1707894206047058,0.03633795453323797,0.15081853596493489,1.2057159069589238
1.7276289463043213,0.08560594916343689,0.10371951758861542,0.030984342098236084,-0.34037989377975464,0.12229684740304947,0.12705180048942566,0.03448150164491147,0.1525327327458292,1.207497717850458
1.737757921218872,0.06885790824890137,0.08233119547367096,0.020928502082824707,-0.5357697606086731,-0.00532657653093338,0.09277690947055817,0.03021131274572117,0.15303047481175333,1.2092719748632357
1.7474849224090576,0.07183405756950378,0.05174223333597183,0.010500609874725342,-0.5854665040969849,-0.055246464908123016,0.045060791075229645,0.024690453277699753,0.1526511956790736,1.2108047568809441
1.7576539516448975,0.061570167541503906,0.04501672834157944,0.015869557857513428,-0.4981986880302429,-0.03523547202348709,0.006730976980179548,0.019275892102506985,0.15213345144869364,1.2119142235414013
1.7674510478973389,0.04386533796787262,0.03712770715355873,0.0009477734565734863,-0.2545876204967499,0.026549864560365677,-0.011122056283056736,0.01549090983502933,0.15205084611179745,1.2124794220700938
1.7777070999145508,0.03426617383956909,0.019683588296175003,-0.02703028917312622,-0.00508938729763031,0.08402486890554428,-0.043883465230464935,0.014190446643771018,0.1526359826200019,1.2123743668815647
1.7882249355316162,0.01051473617553711,0.033390894532203674,-0.05074995756149292,0.18331167101860046,0.10022620856761932,-0.05076294019818306,0.015049943812239265,0.15360413195277303,1.211762825612837
1.7978219985961914,-0.000626981258392334,0.0071911439299583435,-0.053976237773895264,0.23945164680480957,0.07835846394300461,-0.05920968949794769,0.01715552204708659,0.1545234238347951,1.2108693203847392
1.8083488941192627,0.006348609924316406,-0.02141970954835415,-0.04551774263381958,0.18664273619651794,0.0428934171795845,-0.05216168612241745,0.019184648841729476,0.1551446463179396,1.2099672674644177
1.820378065109253,0.008427292108535767,-0.04523678869009018,-0.026826798915863037,0.10446687042713165,0.0391886942088604,-0.030555780977010727,0.020605890828451653,0.15556266337772398,1.2093256411819666
1.827681064605713,0.012935325503349304,-0.05135950818657875,-0.011872053146362305,0.012324157170951366,0.044955771416425705,0.01004517450928688,0.0211513790802771,0.15597480147857606,1.209131055107397
1.8378159999847412,0.01926925778388977,-0.06358328461647034,-0.00857919454574585,-0.057497166097164154,0.05831116810441017,0.02643597312271595,0.020936220975697546,0.15651330075649497,1.2093793562587976
1.8477652072906494,0.02349191904067993,-0.06646151840686798,-0.00963658094406128,-0.07963043451309204,0.06167766824364662,0.01698521338403225,0.020270374426854088,0.1571178179256501,1.2097371660845435
1.8583381175994873,0.012710720300674438,-0.048274826258420944,-0.008973896503448486,-0.05434734746813774,0.045956939458847046,1.8852297216653824e-05,0.01958180262590467,0.1576496143554699,1.2099468792141175
1.8678030967712402,0.0026995986700057983,-0.03999964892864227,-0.01536780595779419,0.011420746333897114,0.016839534044265747,-0.011473486199975014,0.019327269570422453,0.1579747427746777,1.2098902224708736
1.8777360916137695,-0.0024682730436325073,-0.03786662966012955,-0.027561604976654053,0.08084572851657867,0.0059412578120827675,-0.020588582381606102,0.019751384104763226,0.1580329498279587,1.209673658052181
1.887739896774292,-0.004889920353889465,-0.028646497055888176,-0.03348064422607422,0.1072525680065155,0.009028660133481026,-0.017767494544386864,0.020731975025703734,0.15809338897903658,1.2093092470238918
1.897705078125,-0.01537129282951355,-0.021427592262625694,-0.015189409255981445,0.10630875825881958,0.019951749593019485,-0.0027689444832503796,0.022030768706300906,0.1582354830345454,1.2090382241482458
1.907757043838501,-0.004971131682395935,-0.02548551931977272,-0.0034446120262145996,0.05292196944355965,0.03220149129629135,0.025032060220837593,0.02314585239090265,0.15849322100864166,1.2090336571373363
1.9193499088287354,0.010269686579704285,-0.015136081725358963,0.009087204933166504,-0.03962842375040054,0.0461873933672905,0.03815920650959015,0.02371455963988957,0.15896180851647213,1.2093211684167924
1.9277269840240479,0.018015190958976746,-0.011929033324122429,0.03600108623504639,-0.10442099720239639,0.04127279669046402,0.05857713147997856,0.023595162875696168,0.15947753273951767,1.2099418116351264
1.937697172164917,0.02212640643119812,-0.015912741422653198,0.05059021711349487,-0.1276094764471054,0.04449300095438957,0.06735517829656601,0.023029265808954317,0.15993249696041903,1.2107405664952633
1.9479320049285889,0.026168689131736755,-0.006084812805056572,0.056472837924957275,-0.14397700130939484,0.047341786324977875,0.06802895665168762,0.02208425062095224,0.16030143308806657,1.211643617680908
1.957820177078247,0.027548670768737793,-0.0007756166160106659,0.055571019649505615,-0.12550798058509827,0.06268283724784851,0.05561883747577667,0.021137120603328556,0.16072423763635685,1.2124782617786614
1.970851182937622,0.02500280737876892,0.0069182515144348145,0.05937546491622925,-0.10771699994802475,0.07376770675182343,0.03627949580550194,0.02030114888549322,0.16127567742670665,1.2131338823168405
1.978344202041626,0.028242290019989014,0.023855257779359818,0.046425580978393555,-0.09134645015001297,0.06757763028144836,0.02240612916648388,0.019568335356013728,0.16180982009721157,1.2135922688120193
1.987757921218872,0.029256105422973633,0.026523493230342865,0.04108494520187378,-0.05572160333395004,0.05548315495252609,0.001658241031691432,0.019062646903551368,0.16234265756066552,1.2138334099842618
1.9978370666503906,0.02296675741672516,0.021771138533949852,0.04562807083129883,-0.004857526160776615,0.03797438368201256,-0.015995215624570847,0.018918420922787612,0.16285532658049123,1.2138022902891878
2.00787091255188,0.017060652375221252,0.023392660543322563,0.030340254306793213,0.00702816154807806,0.020271018147468567,-0.03429672494530678,0.019014080887162617,0.1633051377491452,1.2135552482452692
2.019460916519165,0.01880505681037903,0.02610541693866253,0.014484763145446777,0.030836889520287514,0.009855838492512703,-0.0412650965154171,0.019300744323048073,0.1636568260986714,1.2131299736553192
2.0280911922454834,0.018942683935165405,0.022168274968862534,0.01628851890563965,0.04471834748983383,0.01855318993330002,-0.03669298440217972,0.019681906259987426,0.1640599532901112,1.2126791482749013
2.038464069366455,0.017253339290618896,0.02484845742583275,0.023230552673339844,0.03461010754108429,0.0370740108191967,-0.027279028668999672,0.020027560783099124,0.16458262851990418,1.2122784317154196
2.047926187515259,0.01909545063972473,0.016374623402953148,0.023356080055236816,0.025556154549121857,0.06276658922433853,-0.02323927916586399,0.020205498316653116,0.16528371773931025,1.2119763212533496
2.0579211711883545,0.012420520186424255,0.006292678415775299,0.022816836833953857,0.024859340861439705,0.06951681524515152,-0.01586349494755268,0.02025539812329527,0.16614188864001808,1.211741370576849
2.06992506980896,0.004402652382850647,-0.00428108312189579,0.021941542625427246,0.03926784172654152,0.06329140812158585,-0.008481744676828384,0.02040859843442662,0.16698523143348687,1.2115669105901796
2.0781118869781494,0.000749245285987854,-0.01732628047466278,0.00981748104095459,0.02102871611714363,0.03886711597442627,-0.011951310560107231,0.02057754715603118,0.16765801261436875,1.211420873994042
2.0879600048065186,0.002164706587791443,-0.02161564491689205,-0.012908101081848145,0.006569082383066416,0.002658512443304062,-0.025257529690861702,0.0205148538915686,0.16797104644993321,1.2112161710017655
2.0979459285736084,0.00830012559890747,-0.0178928654640913,-0.021448969841003418,0.012097205966711044,-0.031531769782304764,-0.04725337401032448,0.020331345142118273,0.16796899070235727,1.210844872617241
2.1080691814422607,0.01474057137966156,0.003971405327320099,-0.018327951431274414,0.010158957913517952,-0.06954813003540039,-0.07860144227743149,0.02010084633615392,0.1676728593430969,1.2102169600145072
2.1194560527801514,0.02237759530544281,0.019307758659124374,-0.030170142650604248,0.011571547947824001,-0.11996757984161377,-0.1193322017788887,0.019674781410278133,0.1669981238996444,1.209233283999321
2.1280300617218018,0.03149336576461792,0.035469114780426025,-0.04477185010910034,0.017058460041880608,-0.16846561431884766,-0.17408013343811035,0.01937184858636916,0.16583010737758988,1.2077578334523622
2.1381452083587646,0.03197382390499115,0.057971443980932236,-0.049727022647857666,0.032486382871866226,-0.22533582150936127,-0.23195093870162964,0.019214846930676,0.16405829929927687,1.2056934832580668
2.1481101512908936,0.03622795641422272,0.07441990822553635,-0.05612659454345703,0.043492428958415985,-0.2817913591861725,-0.274099737405777,0.01921433602961638,0.16164868759451836,1.2031202640425553
2.1589481830596924,0.040250152349472046,0.07418125867843628,-0.056329309940338135,0.055337123572826385,-0.33203327655792236,-0.3216923177242279,0.019402959582009945,0.15868723721351385,1.2000997643588505
2.169658899307251,0.03713436424732208,0.06091749668121338,-0.03923720121383667,0.031257085502147675,-0.3798639178276062,-0.3671647310256958,0.019490662017517636,0.15524483550477078,1.1966151379778696
2.1779870986938477,0.027961090207099915,0.04689700901508331,-0.019759416580200195,0.006634662859141827,-0.4174133241176605,-0.4009799063205719,0.019218289464711658,0.15143239931167005,1.1927826433167399
2.1880619525909424,0.021820560097694397,0.03363686054944992,-0.015254795551300049,-0.037942659109830856,-0.4456806480884552,-0.4208841025829315,0.018424429867333843,0.14740858045946337,1.1887207817099157
2.1980111598968506,0.01998966932296753,0.024622725322842598,-0.01674675941467285,-0.09078212082386017,-0.4755890667438507,-0.4321209490299225,0.0169784260064549,0.14313232966962652,1.184572084230859
2.2081000804901123,0.02519252896308899,0.002399739809334278,-0.006722748279571533,-0.14249004423618317,-0.4958767890930176,-0.4435618817806244,0.01521724586935362,0.13833519473291395,1.1803852806705462
2.21936297416687,0.024757862091064453,-0.008942853659391403,0.013239800930023193,-0.18327611684799194,-0.5337674617767334,-0.45448946952819824,0.012953405027768147,0.13324023101257942,1.176152764870023
2.228080987930298,0.02946583926677704,-0.011291238479316235,0.01973336935043335,-0.19223207235336304,-0.541045606136322,-0.47224557399749756,0.010467518313223569,0.12788742976697,1.171787875510461
2.238279104232788,0.044670991599559784,0.0024764416739344597,0.0034674406051635742,-0.18453383445739746,-0.5288023948669434,-0.4836273789405823,0.007999740207734777,0.12257104550324485,1.167300581747053
2.2481939792633057,0.051410526037216187,0.005892220884561539,-0.0042258501052856445,-0.1978512406349182,-0.5185063481330872,-0.5185520648956299,0.005525570230720539,0.11737896905497087,1.1625472084269863
2.258247137069702,0.05619549751281738,-0.001339505659416318,0.015437662601470947,-0.21506337821483612,-0.5253171920776367,-0.5407788753509521,0.0028104172141347537,0.11219230323186848,1.1575076817624932
2.2711021900177,0.05959341675043106,0.008763238787651062,0.022586286067962646,-0.21830683946609497,-0.5451574325561523,-0.5921440124511719,6.525668714819144e-05,0.10685459917351936,1.1521509035410695
2.2782959938049316,0.07131916284561157,0.025973869487643242,0.02339804172515869,-0.26036331057548523,-0.6206141710281372,-0.6860137581825256,-0.002957271510361218,0.10104886950668526,1.1460639958554013
2.288201093673706,0.07855544984340668,0.04752986133098602,0.013740837574005127,-0.31117987632751465,-0.7217972874641418,-0.8288281559944153,-0.006547810138577568,0.09428545405547228,1.1388178454011535
2.2981441020965576,0.11404673755168915,0.0864274799823761,-0.0232241153717041,-0.40670907497406006,-0.810474693775177,-1.0129598379135132,-0.010893765719579613,0.08652128028710449,1.1299702761619164
2.3082258701324463,0.14441734552383423,0.13407741487026215,-0.07380980253219604,-0.5973197817802429,-0.9202229976654053,-1.2229671478271484,-0.01680276238248041,0.07774861283406939,1.1192395464179719
2.319338083267212,0.1837531328201294,0.16088728606700897,-0.11503332853317261,-0.826704740524292,-1.0533112287521362,-1.4377728700637817,-0.024861000784029252,0.06758592849130805,1.1064752955451198
2.328545093536377,0.24924656748771667,0.19058126211166382,-0.1330256462097168,-1.0505090951919556,-1.1448360681533813,-1.6067259311676025,-0.03527186753409162,0.05614646203756039,1.0917983418012271
2.338809013366699,0.28617870807647705,0.20579570531845093,-0.12961405515670776,-1.1914335489273071,-1.2396515607833862,-1.764215111732483,-0.0473352531212681,0.043519650856394976,1.075512266538411
2.34826397895813,0.28746217489242554,0.15988843142986298,-0.07440286874771118,-1.2401371002197266,-1.317380428314209,-1.9217485189437866,-0.06030241022207282,0.029750465773309264,1.057475124456209
2.35825514793396,0.3013073801994324,0.11145390570163727,-0.009499073028564453,-1.130673885345459,-1.3598917722702026,-2.017435073852539,-0.07270791854405463,0.015032570532261758,1.0379906649656327
2.3695120811462402,0.310749888420105,0.08489779382944107,-0.02678579092025757,-0.951784610748291,-1.3596699237823486,-2.114835262298584,-0.08333572429961417,-0.00017287267786937654,1.017327776782428
2.378257989883423,0.3264453113079071,0.0995214432477951,-0.07157427072525024,-0.7596080899238586,-1.3514775037765503,-2.2337605953216553,-0.09175459830761666,-0.015674862581974088,0.9954160352613785
2.3883039951324463,0.33021578192710876,0.10715164244174957,-0.08128708600997925,-0.6056696772575378,-1.284109354019165,-2.344651937484741,-0.0980381820095047,-0.03109926937087492,0.9722289944878926
2.398300886154175,0.3141576647758484,0.10928956419229507,-0.07820022106170654,-0.5128862857818604,-1.1831941604614258,-2.457909107208252,-0.10269863145573242,-0.045891100329354416,0.9478754453483621
2.4088590145111084,0.3040047287940979,0.13084888458251953,-0.073760986328125,-0.47773170471191406,-1.0966118574142456,-2.535550355911255,-0.1063208143423761,-0.05991744918394047,0.9224888118368985
2.4204041957855225,0.30885642766952515,0.12940871715545654,-0.050848305225372314,-0.43676936626434326,-1.0167927742004395,-2.589181900024414,-0.10921209647380682,-0.07330473534042671,0.8964157156612919
2.4283790588378906,0.2950698733329773,0.10323088616132736,-0.006254792213439941,-0.4036564230918884,-0.9081020355224609,-2.6264357566833496,-0.11138580211673417,-0.08583698123156795,0.8698971739845563
2.43853497505188,0.25847217440605164,0.08107427507638931,0.03072899580001831,-0.3432575762271881,-0.7879635691642761,-2.681452512741089,-0.11273791325857721,-0.09731610144666124,0.8429425794617315
2.448385000228882,0.22814929485321045,0.06912116706371307,0.0639529824256897,-0.2706313133239746,-0.6794661283493042,-2.7642767429351807,-0.11303519934011244,-0.10773627916954467,0.8153541759355373
2.4586341381073,0.21837329864501953,0.06706124544143677,0.07236438989639282,-0.22422969341278076,-0.60188227891922,-2.869502544403076,-0.11229809278424555,-0.11732872782873809,0.7868944725852564
2.470392942428589,0.23115065693855286,0.08133191615343094,0.07708066701889038,-0.19541162252426147,-0.539933443069458,-2.9666318893432617,-0.11085107090976064,-0.1263486132457535,0.7574314062511401
2.4785749912261963,0.24172528088092804,0.1107335314154625,0.06956630945205688,-0.14655889570713043,-0.48701614141464233,-2.978133201599121,-0.10884212598691842,-0.13469616392428704,0.7274987329059381
2.4885270595550537,0.2656809687614441,0.1578318327665329,0.06039494276046753,-0.07272755354642868,-0.48344963788986206,-3.0207102298736572,-0.10570161080498516,-0.14278371156855738,0.6974749384318777
2.4983720779418945,0.2677066922187805,0.19156289100646973,0.05689418315887451,-0.015740416944026947,-0.4641861617565155,-3.048150062561035,-0.101780405470125,-0.15062872556052004,0.6671315459097846
2.5086309909820557,0.23109254240989685,0.24060624837875366,0.06153392791748047,0.11972499638795853,-0.4491156041622162,-3.0149359703063965,-0.09667249712818343,-0.1581764236316549,0.6370458094849806
2.5204479694366455,0.19857007265090942,0.23912033438682556,0.06942963600158691,0.24327558279037476,-0.4047558009624481,-3.0281405448913574,-0.08995043245057503,-0.16522620617019598,0.6074262080881803
2.5286800861358643,0.16953635215759277,0.19914346933364868,0.05190563201904297,0.3116922080516815,-0.347415030002594,-3.0497424602508545,-0.08210774239275749,-0.17153113925723792,0.5777507649773991
2.5390231609344482,0.1421838104724884,0.16356824338436127,0.021538972854614258,0.21607640385627747,-0.2782856225967407,-3.035722494125366,-0.07412527900989396,-0.1769447570372886,0.5481407434879643
2.5485730171203613,0.14600205421447754,0.1281842291355133,0.001955687999725342,0.0901605486869812,-0.2841397821903229,-3.0293335914611816,-0.06730169255080815,-0.1817890278902466,0.5184455832665376
2.5586159229278564,0.15709373354911804,0.07936243712902069,0.02767956256866455,0.005200650542974472,-0.2988359034061432,-3.0280942916870117,-0.06125562943086674,-0.18664554657264762,0.4886822635214472
2.569714069366455,0.15111559629440308,-0.002425767481327057,0.06428331136703491,-0.08019441366195679,-0.23743939399719238,-3.0474436283111572,-0.05595281461091605,-0.19113351493316513,0.4586767044754775
2.5791430473327637,0.10566933453083038,-0.047713592648506165,0.07953977584838867,-0.0908447876572609,-0.14347659051418304,-3.027299404144287,-0.051108573680203793,-0.19462697952657998,0.42856394015691834
2.5886199474334717,0.05182000994682312,-0.082307830452919,0.07696002721786499,0.008188850246369839,-0.04832211136817932,-2.9951040744781494,-0.045642087058087574,-0.1970653064943884,0.3988985828014146
2.5985701084136963,0.022074386477470398,-0.08940761536359787,0.07982319593429565,0.1425739824771881,0.09230828285217285,-2.9384045600891113,-0.03915570572600781,-0.19807858729856384,0.3698222746700072
2.60876202583313,0.002524346113204956,-0.026795098558068275,0.09224683046340942,0.3405784070491791,0.18929794430732727,-2.8423376083374023,-0.031088365998438148,-0.19761330664796248,0.341915302773595
2.620478868484497,-0.0030859261751174927,-0.007414434105157852,0.13710856437683105,0.4808918833732605,0.2572519779205322,-2.7517282962799072,-0.021546271152356685,-0.19605849203164002,0.31524602043788846
2.6286780834198,-0.002437189221382141,-0.04795095697045326,0.1861187219619751,0.5773537158966064,0.25988343358039856,-2.659503698348999,-0.011101739780574485,-0.19385507368624175,0.28969180474938966
2.6387178897857666,0.001171201467514038,-0.1233980730175972,0.215285062789917,0.5577024221420288,0.2651827037334442,-2.5889370441436768,-0.00035172360103620965,-0.19142523496979655,0.26504285625578405
2.648742914199829,-0.011729985475540161,-0.22383487224578857,0.1883944869041443,0.3640322983264923,0.31345462799072266,-2.4838411808013916,0.008983316428215014,-0.18841087553419794,0.24090063626921715
2.6595170497894287,-0.04029405117034912,-0.27244460582733154,0.12925171852111816,0.19231636822223663,0.34186747670173645,-2.3152401447296143,0.016114520739174278,-0.18480975754165763,0.21779940170826448
2.6696159839630127,-0.0599680095911026,-0.32921454310417175,0.11219131946563721,0.11261142790317535,0.34652507305145264,-2.193551540374756,0.021677739559993196,-0.18097467866119976,0.19590840689271682
2.678560972213745,-0.08747899532318115,-0.39618971943855286,0.10087209939956665,-0.04797721654176712,0.4603770673274994,-2.064547538757324,0.025824977094580467,-0.17646411028822334,0.17495784535341338
2.688664197921753,-0.11715590953826904,-0.36880776286125183,0.07874763011932373,-0.11663936823606491,0.5563281178474426,-1.8978874683380127,0.02838181834059345,-0.1708521577497853,0.1552560699440324
2.6986382007598877,-0.13146336376667023,-0.33777785301208496,0.08926248550415039,-0.19861871004104614,0.6830155849456787,-1.7556192874908447,0.029871348735066566,-0.16408380163201278,0.13696286837305552
2.708765983581543,-0.1339779943227768,-0.35377439856529236,0.082283616065979,-0.2929883599281311,0.7410243153572083,-1.6157857179641724,0.030125535430094982,-0.15641809660413686,0.11987304421165554
2.721480131149292,-0.12897519767284393,-0.33049875497817993,0.11942136287689209,-0.29978394508361816,0.7346689105033875,-1.4610928297042847,0.029459829502917808,-0.14852065127696262,0.10419994817337634
2.7287700176239014,-0.11559215188026428,-0.3068913221359253,0.1827399730682373,-0.24956072866916656,0.6887328624725342,-1.3368841409683228,0.0287444527545682,-0.14097509923530452,0.08995154465587263
2.7391021251678467,-0.11048001050949097,-0.31532078981399536,0.21457380056381226,-0.21820293366909027,0.6098470091819763,-1.2341755628585815,0.028142525943195964,-0.1340539024536199,0.07687082592405725
2.7486679553985596,-0.10293625295162201,-0.30639567971229553,0.22164446115493774,-0.17065298557281494,0.5476917624473572,-1.1278048753738403,0.02786647014461674,-0.12799253284001066,0.06489274657905042
2.758660078048706,-0.08573896437883377,-0.2690066993236542,0.14885079860687256,-0.29581010341644287,0.5323979258537292,-1.0011796951293945,0.026909767469112174,-0.12228210468139625,0.05401719559838016
2.769562005996704,-0.0632658526301384,-0.20032711327075958,0.03239595890045166,-0.4402783513069153,0.47967424988746643,-0.8746860027313232,0.02437575220204039,-0.11693652473298227,0.04427930953967469
2.7786381244659424,-0.04915153235197067,-0.1995362788438797,-0.01925945281982422,-0.5207487344741821,0.42617344856262207,-0.7612186670303345,0.02051168231198575,-0.11225600068286976,0.035594764635531795
2.789141893386841,-0.057771697640419006,-0.24462637305259705,-0.06988567113876343,-0.6252629160881042,0.4441590905189514,-0.6444070935249329,0.01553613174720972,-0.10776374305039066,0.02795960250029045
2.798687219619751,-0.06554286926984787,-0.215094193816185,-0.11900240182876587,-0.6250041127204895,0.4463613033294678,-0.5458900332450867,0.009911600254806502,-0.1032094593398532,0.02139321749087041
2.808828115463257,-0.07220655679702759,-0.19772906601428986,-0.10722601413726807,-0.5838894248008728,0.42363440990448,-0.46563273668289185,0.004327363065032694,-0.09879268370721518,0.015722450536691083
2.8195888996124268,-0.08401596546173096,-0.2078482061624527,-0.08302575349807739,-0.46758919954299927,0.4126075804233551,-0.3870433568954468,-0.0004969894605877963,-0.09462279146349672,0.010994363979583397
2.828848123550415,-0.0786660760641098,-0.15871576964855194,-0.08065235614776611,-0.32675379514694214,0.4099593460559845,-0.34273475408554077,-0.004144712182273517,-0.09047999732356671,0.007007172544139674
2.83872389793396,-0.06272909045219421,-0.10626111924648285,-0.08390533924102783,-0.18428935110569,0.37010905146598816,-0.3113791048526764,-0.006392848599880287,-0.08658155196845178,0.0035243553504408797
2.848834991455078,-0.04860185086727142,-0.09081084281206131,-0.0758330225944519,-0.07136759161949158,0.33627066016197205,-0.2764642536640167,-0.007406828864069689,-0.08307278010615228,0.0004944354365650845
2.858854055404663,-0.03924489766359329,-0.07264623045921326,-0.06664025783538818,-0.005993414204567671,0.32694247364997864,-0.24307645857334137,-0.007552773105017086,-0.0797845494428431,-0.002119650164572456
2.8697149753570557,-0.037459708750247955,-0.06499871611595154,-0.049587786197662354,0.04599921405315399,0.31485065817832947,-0.21181680262088776,-0.0071836873007443975,-0.07658530784367418,-0.004369494771849916
2.8787829875946045,-0.037153616547584534,-0.07889962941408157,-0.027801871299743652,-0.0024583509657531977,0.3240315318107605,-0.1724836826324463,-0.006726067243564765,-0.07341842705643938,-0.006271864723960078
2.888869047164917,-0.03167715668678284,-0.07775958627462387,-0.01620304584503174,-0.05810456722974777,0.32337772846221924,-0.1289053112268448,-0.006974577041494381,-0.07017381666954284,-0.007800484787503214
2.8990461826324463,-0.024487972259521484,-0.06922587752342224,0.01280742883682251,-0.12084904313087463,0.33244410157203674,-0.08418907225131989,-0.007764010877209849,-0.06691865219164901,-0.008927697653634846
2.9096271991729736,-0.01753288507461548,-0.08372551947832108,0.022827863693237305,-0.22029919922351837,0.3540676534175873,-0.05800221115350723,-0.009431070826429602,-0.06349128222685661,-0.009725918114676843
2.9202749729156494,-0.009502861648797989,-0.06553907692432404,0.017819106578826904,-0.29717302322387695,0.36642012000083923,-0.04704245179891586,-0.012011990103349785,-0.05988875336784867,-0.010409237877353388
2.929049015045166,-0.004215370863676071,-0.07044990360736847,0.02067744731903076,-0.30164581537246704,0.37330278754234314,-0.042495373636484146,-0.01500048182920833,-0.05621514777978971,-0.011022007240935638
2.9390881061553955,0.000494789332151413,-0.08139759302139282,0.006475269794464111,-0.3386748135089874,0.398190975189209,-0.048488229513168335,-0.01818189093641673,-0.05236178105984193,-0.01163831747500499
2.94895601272583,0.009842406958341599,-0.05156731233000755,-0.02546381950378418,-0.32012245059013367,0.398415207862854,-0.07193443179130554,-0.021479086654001917,-0.04838593252952606,-0.012407779086555383
2.959137201309204,0.01859964430332184,-0.03396189585328102,-0.028355121612548828,-0.28561967611312866,0.39721497893333435,-0.09407520294189453,-0.02447382876298985,-0.04443048420373824,-0.013389545435424408
2.9725301265716553,0.018560592085123062,-0.03455682098865509,-0.03068077564239502,-0.2473556250333786,0.40048664808273315,-0.10287269204854965,-0.027099042918257907,-0.04046790296040688,-0.014482071514384518
2.9794960021972656,0.02021300047636032,-0.007547017186880112,-0.027310967445373535,-0.20650139451026917,0.3945903778076172,-0.1279272437095642,-0.029325967983040244,-0.03651825452404577,-0.015714991573233996
2.989055871963501,0.022192470729351044,0.008356384932994843,-0.01745551824569702,-0.1942274272441864,0.3858874440193176,-0.14707829058170319,-0.03127624246002086,-0.03265156328204613,-0.017157422130156173
2.998887062072754,0.02417689934372902,0.011255774646997452,-0.01418071985244751,-0.1832885444164276,0.36976438760757446,-0.16696715354919434,-0.0331232906236852,-0.02892733533790216,-0.01878397099108623
3.0091521739959717,0.026703670620918274,0.003696717321872711,-0.02102583646774292,-0.18235191702842712,0.3582955002784729,-0.19993309676647186,-0.03490029677357227,-0.02534884432101549,-0.02067606296487094
3.0195281505584717,0.023075131699442863,-0.009406596422195435,-0.029307961463928223,-0.1745682954788208,0.33990582823753357,-0.22524458169937134,-0.03663692260837853,-0.021932254890933114,-0.022856086315841687
3.0291240215301514,0.01751047372817993,-0.012743841856718063,-0.025216341018676758,-0.17423327267169952,0.3298982083797455,-0.24257323145866394,-0.038342675052590404,-0.0186700078932414,-0.025240427619446306
3.039193868637085,0.00807136669754982,-0.01921100914478302,-0.01831132173538208,-0.14930742979049683,0.33217453956604004,-0.24283543229103088,-0.03992824676559328,-0.015454615124139742,-0.02770554569666462
3.0491650104522705,-0.0059659769758582115,-0.028968390077352524,-0.00526505708694458,-0.15139614045619965,0.3426910936832428,-0.22836355865001678,-0.041416592064728086,-0.01217252538643365,-0.030086034974817332
3.0593478679656982,-0.015275998041033745,-0.024133794009685516,-0.0008123517036437988,-0.11105261743068695,0.34762105345726013,-0.20922809839248657,-0.04268663477604525,-0.00881083364400964,-0.03229050078436284
3.071803092956543,-0.01640622690320015,-0.023915350437164307,-0.002608776092529297,-0.12612184882164001,0.34951668977737427,-0.19457459449768066,-0.043857834841488454,-0.00538885578219457,-0.03431433971465266
3.0791850090026855,-0.010781338438391685,-0.014978397637605667,-0.015759646892547607,-0.12384210526943207,0.3279067873954773,-0.18545173108577728,-0.045114996060938536,-0.002084269333564323,-0.03622079594005399
3.0895400047302246,-0.007798276841640472,-0.017600610852241516,-0.005692183971405029,-0.09938949346542358,0.304321825504303,-0.18031902611255646,-0.04622774883644226,0.0009783155264756248,-0.038055909393481475
3.0993549823760986,-0.007650141604244709,-0.0343194417655468,-0.008520364761352539,-0.08841690421104431,0.29678526520729065,-0.1843024641275406,-0.047170020814887005,0.0039004998192462966,-0.03987949925261416
3.1095211505889893,-0.008661678060889244,-0.02729680761694908,-0.014484763145446777,-0.09609692543745041,0.2868511378765106,-0.18411338329315186,-0.04809826681285534,0.0067313172703541745,-0.041722151502474006
3.1204140186309814,-0.013452786020934582,-0.020307809114456177,-0.008283734321594238,-0.09812132269144058,0.2788698375225067,-0.17282621562480927,-0.049090783605129105,0.009466197377876262,-0.04352210227086981
3.1292810440063477,-0.018749535083770752,-0.02925582230091095,0.006480276584625244,-0.11368643492460251,0.28278040885925293,-0.1606217473745346,-0.050166585517482994,0.012188301981949723,-0.04518879471573948
3.139270067214966,-0.025766145437955856,-0.03115011751651764,0.014316141605377197,-0.11987604200839996,0.2913583815097809,-0.15168368816375732,-0.05136051307773162,0.014998187690486038,-0.04673571020385806
3.149304151535034,-0.03130405396223068,-0.03288232162594795,0.02496248483657837,-0.12022465467453003,0.29891324043273926,-0.14221881330013275,-0.052590840425378614,0.017871126752154447,-0.048184248668121654
3.1595141887664795,-0.03332722932100296,-0.03992984816431999,0.027584850788116455,-0.12374810874462128,0.30442121624946594,-0.13824421167373657,-0.05385707731644893,0.020815854124513672,-0.04955903237930772
3.1698811054229736,-0.03174092248082161,-0.03922257572412491,0.02410101890563965,-0.08934886008501053,0.2971004545688629,-0.13305877149105072,-0.05498252835941571,0.023767874264033928,-0.05089374542515548
3.1792218685150146,-0.02867441624403,-0.03732052817940712,0.021897315979003906,-0.05654287338256836,0.2915583848953247,-0.1297067552804947,-0.05572138261822929,0.02664338319864215,-0.05219163854719032
3.189276933670044,-0.021115316078066826,-0.027446698397397995,0.0036339163780212402,-0.027896849438548088,0.2774820029735565,-0.12406618893146515,-0.056209030522896386,0.02943597455698261,-0.05345702014211404
3.1992361545562744,-0.01639401540160179,-0.020646095275878906,-0.009496927261352539,0.017320679500699043,0.2574768364429474,-0.11595723032951355,-0.05629027100467602,0.032044388422085984,-0.054665233303084225
3.209397077560425,-0.015305012464523315,-0.03311160206794739,-0.01749396324157715,0.0575578473508358,0.23891353607177734,-0.11242188513278961,-0.05596840281261746,0.034469463407982265,-0.0558218023675082
3.221273183822632,-0.015508819371461868,-0.030494224280118942,-0.022615909576416016,0.08517767488956451,0.22069630026817322,-0.10667824745178223,-0.055272554952727274,0.03670618566517318,-0.05695019181248566
3.2294631004333496,-0.015550315380096436,-0.02730446681380272,-0.020481228828430176,0.09000039100646973,0.20643427968025208,-0.09148704260587692,-0.054431390725219686,0.038779954969146824,-0.057969535265480904
3.2393410205841064,-0.016554851084947586,-0.029572028666734695,-0.021004676818847656,0.07272859662771225,0.19292335212230682,-0.08538856357336044,-0.05364604709789366,0.040733242870749455,-0.058889184669179515
3.249422073364258,-0.01706143096089363,-0.03757527470588684,-0.02034437656402588,0.054531216621398926,0.17195841670036316,-0.08255069702863693,-0.053042476543184475,0.0425090252096272,-0.05976045483439466
3.259413003921509,-0.01603033021092415,-0.04656641557812691,-0.021140575408935547,0.027660667896270752,0.1501973271369934,-0.08040398359298706,-0.05267946957268551,0.044074740398507284,-0.06058783010066871
3.270246982574463,-0.013310056179761887,-0.04387550428509712,-0.021268367767333984,0.015084690414369106,0.12921001017093658,-0.08910372853279114,-0.052506019419384625,0.0454313860642403,-0.061436741536403223
3.279660940170288,-0.011936239898204803,-0.04606367647647858,-0.01562666893005371,-0.0025677899830043316,0.10788125544786453,-0.0926656499505043,-0.05246635077933745,0.04656266537398443,-0.06235740331907969
3.2900168895721436,-0.012217249721288681,-0.04602895677089691,-0.011885523796081543,-0.040989749133586884,0.09464560449123383,-0.08486685156822205,-0.052721901509807476,0.04751806828068753,-0.06324330808070011
3.2994730472564697,-0.00938962772488594,-0.03489286080002785,-0.010816335678100586,-0.07848961651325226,0.09264282137155533,-0.08316738158464432,-0.05266360335813215,0.04788030296747057,-0.06409088922287923
3.3095920085906982,-0.00851568952202797,-0.036821864545345306,-0.010555803775787354,-0.11179297417402267,0.09126490354537964,-0.08294767141342163,-0.052945054563190826,0.04818277438607236,-0.06491143251509596
3.321394205093384,-0.007198195904493332,-0.048776645213365555,-0.012543201446533203,-0.12106449156999588,0.09664177894592285,-0.0867009162902832,-0.05330365424361755,0.04849970658820389,-0.06572426721287952
3.3294780254364014,-0.004968266934156418,-0.05263037607073784,-0.00580066442489624,-0.1136891320347786,0.10808884352445602,-0.09711015224456787,-0.053464994847732386,0.048987537244999206,-0.0666094836802456
3.3394830226898193,-0.005602840334177017,-0.04711129888892174,-0.0025527477264404297,-0.08575035631656647,0.12321795523166656,-0.10477456450462341,-0.05337792488698608,0.04974595599463707,-0.06758742271682092
3.349487066268921,-0.004391144961118698,-0.04042452573776245,-0.0009797215461730957,-0.04204309359192848,0.12896691262722015,-0.11469963192939758,-0.05305360036034835,0.0506720985175942,-0.06867484475287033
3.3594250679016113,-0.00270770862698555,-0.04003621265292168,0.002141594886779785,-0.00046820403076708317,0.1379529982805252,-0.12154704332351685,-0.05219107415918801,0.05168988874098589,-0.06986052901188919
3.3707921504974365,-0.00031936541199684143,-0.03773333504796028,-0.0037994384765625,0.04016764089465141,0.14998915791511536,-0.11938775330781937,-0.05087827630707416,0.05279525084117679,-0.07109697444547487
3.3797051906585693,0.0004289485514163971,-0.02687576785683632,-0.014901280403137207,0.0839993953704834,0.1592947244644165,-0.11611063033342361,-0.049448841305389714,0.054014764994014385,-0.07231733076014288
3.389694929122925,6.12996518611908e-05,-0.023122169077396393,-0.01996445655822754,0.12272095680236816,0.16450414061546326,-0.10913821309804916,-0.04761569144623353,0.05531180188637108,-0.07351534821222114
3.3996100425720215,-0.0005285553634166718,-0.020927809178829193,-0.020829737186431885,0.15945087373256683,0.17192502319812775,-0.10234842449426651,-0.04517456353249888,0.05670772785767216,-0.07465922478445441
3.409708023071289,-0.0008559823036193848,-0.013071943074464798,-0.021267831325531006,0.1859799474477768,0.1725330352783203,-0.10110712051391602,-0.04242775507353441,0.05819178422703059,-0.07578611562726068
3.42102313041687,0.0027831383049488068,-0.007301304489374161,-0.02261209487915039,0.19197428226470947,0.16014397144317627,-0.09715014696121216,-0.03972184863426563,0.05958510984388957,-0.07690062012893435
3.4296820163726807,0.0076451972126960754,0.0008384808897972107,-0.027766704559326172,0.18927490711212158,0.14070741832256317,-0.09237030893564224,-0.03728704491393516,0.06083939127570985,-0.07796870359400655
3.4396309852600098,0.013012301176786423,0.013757769018411636,-0.03135240077972412,0.177322655916214,0.11487990617752075,-0.08886563777923584,-0.035016907381465796,0.06192447193220338,-0.07899866857821602
3.44964599609375,0.01689200848340988,0.019197210669517517,-0.026775777339935303,0.14482437074184418,0.0831185132265091,-0.08491617441177368,-0.03307060579926993,0.0627577050286106,-0.07997795661571912
3.459584951400757,0.01736382395029068,0.02371137961745262,-0.018722236156463623,0.11076611280441284,0.051122140139341354,-0.0828675627708435,-0.03168375953480482,0.06327618002404554,-0.08089347445834397
3.4722678661346436,0.016845129430294037,0.023478325456380844,-0.008987009525299072,0.06716404110193253,0.025927305221557617,-0.07996764779090881,-0.03072616022582612,0.06350363276684146,-0.08176380886165197
3.4796221256256104,0.01627834141254425,0.02422383613884449,-0.003627955913543701,0.03753076121211052,0.00042198970913887024,-0.07479093968868256,-0.03014823136357958,0.06348943793260205,-0.08256783348780705
3.489643096923828,0.015190713107585907,0.027720531448721886,0.0012450218200683594,0.021077752113342285,-0.015369489789009094,-0.06712876260280609,-0.029901544039756662,0.06327908542563407,-0.08329659368313261
3.4996180534362793,0.012484431266784668,0.031336549669504166,0.006805121898651123,0.022899985313415527,-0.025485241785645485,-0.06418181210756302,-0.029764467411624564,0.06300897934998138,-0.0839673704885942
3.5098490715026855,0.009227454662322998,0.03076349012553692,0.01367652416229248,0.03848240524530411,-0.029517266899347305,-0.0615287721157074,-0.02962030103190036,0.06275554816223214,-0.0846229373246597
3.520427942276001,0.007960885763168335,0.026040028780698776,0.015935838222503662,0.05265926197171211,-0.0360984280705452,-0.05525926500558853,-0.029521942029098545,0.06254132890592887,-0.08524387367300305
3.5298049449920654,0.007789198309183121,0.024614855647087097,0.01739680767059326,0.0489920899271965,-0.038431622087955475,-0.04191096872091293,-0.029451725159563496,0.062392094250088195,-0.08575958583343159
3.5397322177886963,0.009548835456371307,0.025165895000100136,0.018867909908294678,0.04433634877204895,-0.04521389305591583,-0.027038810774683952,-0.029541591714626655,0.06224971343268951,-0.08613287653688323
3.549903154373169,0.008876379579305649,0.020871255546808243,0.023283302783966064,0.028691081330180168,-0.047406211495399475,-0.01059538871049881,-0.029701170242054712,0.06208283446262669,-0.08633809799761295
3.559887170791626,0.008051246404647827,0.014491181820631027,0.02853494882583618,0.010622614063322544,-0.04989417642354965,0.00404342170804739,-0.030023645030156264,0.06188575533949376,-0.08637192156624247
3.5698158740997314,0.007352463901042938,0.01461021974682808,0.03312963247299194,0.0032629678025841713,-0.05685887485742569,0.014716838486492634,-0.03049991912284862,0.06162350873211831,-0.08627750617668058
3.579685926437378,0.008129186928272247,0.009198777377605438,0.038003742694854736,-0.005424513015896082,-0.06179419904947281,0.02677707001566887,-0.031074599292396435,0.06122840897775454,-0.08606161854018486
3.5897650718688965,0.009404487907886505,0.009873449802398682,0.04152035713195801,-0.011439529247581959,-0.058833830058574677,0.03524965047836304,-0.03169722785188067,0.06079250731997137,-0.08574505400277348
3.599735975265503,0.007242310792207718,0.011660903692245483,0.04152911901473999,-0.00605549942702055,-0.051518525928258896,0.039444129914045334,-0.03218358682047414,0.06039120933825452,-0.08537165533354771
3.6097400188446045,-0.00014172866940498352,0.010684609413146973,0.040899693965911865,-0.001399228465743363,-0.03868874907493591,0.0499122180044651,-0.03245811757068498,0.060054048164487187,-0.08492798986139999
3.6199750900268555,-0.0021676458418369293,0.009106867015361786,0.0389406681060791,0.017847836017608643,-0.02620544843375683,0.05161632224917412,-0.032571079205616665,0.05983664171403145,-0.08442212286717836
3.6298329830169678,-0.0037038028240203857,0.011031333357095718,0.036236345767974854,0.03246033564209938,-0.013111749663949013,0.055258724838495255,-0.03241654524508989,0.05972428542482963,-0.08390161758626458
3.6399428844451904,-0.0034752152860164642,0.015367325395345688,0.025901734828948975,0.04104078933596611,-0.006006393115967512,0.055718760937452316,-0.03210871552640793,0.05970869067924145,-0.08336228538166507
3.6500110626220703,-0.0009061135351657867,0.023488007485866547,0.023532629013061523,0.04924279451370239,-0.002245742827653885,0.05676751211285591,-0.03170877719042525,0.059732882679521246,-0.08282089139467806
3.660364866256714,0.0007454603910446167,0.022083155810832977,0.02143651247024536,0.049558646976947784,0.0032283845357596874,0.05441620945930481,-0.031236566090148087,0.05982012125327515,-0.08228626672901058
3.6701130867004395,0.0037548020482063293,0.022229352965950966,0.015887439250946045,0.049559179693460464,0.00957922451198101,0.050598833709955215,-0.030784974785493913,0.059968842662430154,-0.08179516732866703
3.6799230575561523,0.00615282729268074,0.02732526697218418,0.012718558311462402,0.05814401060342789,0.011606067419052124,0.043289680033922195,-0.030296988183411373,0.060133778978958594,-0.08135237765551492
3.6898930072784424,0.008398890495300293,0.0254434235394001,0.010008037090301514,0.05610962212085724,0.016360608860850334,0.038118887692689896,-0.02978297102718486,0.0602980495824106,-0.08098452499731085
3.699838876724243,0.008309002965688705,0.026855329051613808,0.003970146179199219,0.06257103383541107,0.0179945919662714,0.03215601667761803,-0.02925584409842036,0.060478960676909437,-0.0806570540197945
3.709975004196167,0.00712178647518158,0.02631475403904915,0.004019379615783691,0.06427039206027985,0.026273293420672417,0.02393989823758602,-0.02869755186902827,0.06068910020618265,-0.08040763725498115
3.7216200828552246,0.006364397704601288,0.02029651403427124,0.006551027297973633,0.0663289725780487,0.029169082641601562,0.01576031744480133,-0.02820008673074846,0.06094266949956765,-0.08024781042309913
3.730017900466919,0.006044834852218628,0.016684746369719505,0.011487722396850586,0.04286465793848038,0.029117684811353683,0.005193693563342094,-0.027859693692568327,0.06121648433618694,-0.08017371526968764
3.7401530742645264,0.007853519171476364,0.009812913835048676,0.012539088726043701,0.015922870486974716,0.03137422353029251,-0.000503659772220999,-0.02780401888490325,0.06151409717525028,-0.08017508466028125
3.7501299381256104,0.008973117917776108,0.009367462247610092,0.011335015296936035,-0.011068001389503479,0.03842547535896301,-0.005670192185789347,-0.0280511995798066,0.06187585306388318,-0.08020504607647495
3.7599971294403076,0.008053340017795563,0.005108058452606201,0.005020260810852051,-0.027483774349093437,0.04033917933702469,-0.010718107223510742,-0.028633471575392276,0.0623093863807548,-0.08027076111078887
3.7701220512390137,0.007135018706321716,-0.0024948734790086746,-0.0016652941703796387,-0.01986766792833805,0.03835592418909073,-0.01900293491780758,-0.029293931036543805,0.06277223689961695,-0.08040335226337753
3.77993106842041,0.006463155150413513,-0.0057291798293590546,-0.0040607452392578125,0.003043573582544923,0.03687405213713646,-0.023798169568181038,-0.029888726815267018,0.06321740258054981,-0.08061763635232201
3.7899491786956787,0.004831142723560333,-0.0010488051921129227,-0.010554850101470947,0.02218211255967617,0.03587403520941734,-0.024932142347097397,-0.030304974449751176,0.06364581967817752,-0.08087862489501829
3.7999651432037354,0.002150103449821472,0.006532212719321251,-0.016121268272399902,0.039919666945934296,0.03242106735706329,-0.025981109589338303,-0.03038390566387071,0.0640391774400387,-0.08115340054052553
3.810067892074585,0.0012574195861816406,0.0017406139522790909,-0.01788008213043213,0.0452614352107048,0.0297083742916584,-0.026012269780039787,-0.030262116497815017,0.0643984606814981,-0.08144634449534922
3.819852113723755,-0.00017178058624267578,-0.0066629014909267426,-0.01787889003753662,0.04667317494750023,0.026723768562078476,-0.022458015009760857,-0.029952726481235214,0.06475986940630243,-0.08171020907027426
3.8309030532836914,-0.0034919753670692444,-0.011401021853089333,-0.013409137725830078,0.03246014937758446,0.02494397759437561,-0.014522327110171318,-0.029716374573721845,0.06512032698779524,-0.08192398906491731
3.840095043182373,-0.0022351667284965515,-0.011137705296278,-0.009486854076385498,0.020666025578975677,0.01778455637395382,-0.004688497632741928,-0.02954453752152499,0.06542034850129391,-0.0820360163748699
3.849945068359375,-0.0011699572205543518,-0.012248292565345764,-0.002002120018005371,0.014583366923034191,0.012351175770163536,0.009039298631250858,-0.029312245353142283,0.06563698602181091,-0.08202578200759982
3.8599400520324707,-0.0015000402927398682,-0.01740529015660286,0.002906203269958496,0.009633182547986507,0.01016329973936081,0.015757229179143906,-0.029082795593335327,0.0658145065303399,-0.08190233218241469
3.869904041290283,-0.00269433856010437,-0.012830514460802078,0.004672229290008545,0.016645286232233047,0.006422890350222588,0.025369908660650253,-0.02893300811193985,0.06594072558644228,-0.08170655936130676
3.879915952682495,-0.0031103044748306274,-0.00883483700454235,0.006609439849853516,0.023141585290431976,0.004897565580904484,0.03423897922039032,-0.028843541275745076,0.0659904383313206,-0.08142368913511845
3.890033006668091,-0.005856335163116455,-0.008780695497989655,0.008627474308013916,0.03298702463507652,0.0068512605503201485,0.03460995852947235,-0.028606197572323088,0.06603532660166596,-0.08109047646467799
3.8999640941619873,-0.009758003056049347,-0.007031463086605072,0.011967182159423828,0.04448367655277252,0.0028416498098522425,0.02995651215314865,-0.028077452848097827,0.06606033456647639,-0.08079749786645364
3.910008192062378,-0.01244354248046875,-0.008044872432947159,0.01952528953552246,0.040040723979473114,0.0005912785418331623,0.02435828000307083,-0.027457935617781988,0.06601329537475874,-0.08055780371005315
3.9200010299682617,-0.014676518738269806,-0.002292584627866745,0.01972520351409912,0.026275260373950005,-0.0014561153948307037,0.02238040417432785,-0.026939219368502364,0.06597167485115732,-0.08033743003729582
3.92997407913208,-0.016100041568279266,0.003425613045692444,0.019006013870239258,0.014225788414478302,-0.003304615616798401,0.017003480345010757,-0.026546200130549938,0.06592956213089442,-0.08015533160980484
3.9400808811187744,-0.017976537346839905,0.00029446370899677277,0.017481565475463867,0.019094279035925865,-0.008935070596635342,0.016186637803912163,-0.02610663894936267,0.06585197482545566,-0.0799948850030975
3.9504940509796143,-0.015982747077941895,0.004524702206254005,0.01389932632446289,0.03037489764392376,-0.01090607512742281,0.008552419021725655,-0.025675695402378677,0.06573399149038915,-0.07988306816260357
3.9605090618133545,-0.012872792780399323,0.0147202517837286,0.004948914051055908,0.051827143877744675,-0.012445427477359772,-0.0004377731238491833,-0.025169315053548934,0.06559832297784236,-0.07986177390130295
3.9720160961151123,-0.01154693216085434,0.01729559898376465,-0.00190049409866333,0.0709582269191742,-0.020343298092484474,-0.01103236060589552,-0.02447058492147224,0.06536939790075195,-0.0799645450967524
