timestamp,accel_x,accel_y,accel_z,rotation_x,rotation_y,rotation_z, pitch,roll,yaw
0.04438614845275879,0.009966949000954628,-0.0056540146470069885,0.0020803213119506836,-0.034742653369903564,0.024576373398303986,-0.020378775894641876,0.018364849899486318,0.023838193040545626,-0.000218908885741856
0.06334710121154785,0.010384652763605118,-0.009823137894272804,-0.0006350278854370117,-0.03368617966771126,0.02177499420940876,-0.017080720514059067,0.018010367132019145,0.024076572482998097,-0.0003904051750135028
0.07016992568969727,0.009611276909708977,-0.009890619665384293,-0.004967987537384033,-0.029211634770035744,0.019210191443562508,-0.01579212211072445,0.017698694036742974,0.024285330882878386,-0.0005570053803154084
0.07224512100219727,0.00932537205517292,-0.009894279763102531,-0.004402279853820801,-0.028304828330874443,0.012026315554976463,-0.014457611367106438,0.01740507224329497,0.024449117512683,-0.0007123713712733155
0.07887411117553711,0.007692618295550346,-0.01187782920897007,-0.0035763978958129883,-0.02339434251189232,0.00901050679385662,-0.015364684164524078,0.017145726103046165,0.02455592827018999,-0.0008517575364607031
0.08606719970703125,0.0069680605083703995,-0.013102704659104347,-0.005055129528045654,-0.017313014715909958,0.006782506592571735,-0.014225916936993599,0.016943162129357404,0.024639570106009628,-0.000994276669259665
0.09328007698059082,0.006004776805639267,-0.013358116149902344,-0.005511283874511719,-0.015463282354176044,0.001043305266648531,-0.012897051870822906,0.016779277044260736,0.024687278941639565,-0.0011280820704441042
0.10321426391601562,0.00511888787150383,-0.015063110738992691,-0.005127370357513428,-0.013662985526025295,-0.002661151811480522,-0.009693536907434464,0.016630658549991344,0.02468809744679394,-0.0012386579802942841
0.11323904991149902,0.004888078197836876,-0.01626751199364662,-0.0039653778076171875,-0.009750684723258018,-0.00022014230489730835,-0.007583566941320896,0.01650961737534873,0.02467471378473283,-0.0013255334280557354
0.12423110008239746,0.0035840366035699844,-0.0168148223310709,-0.004406452178955078,-0.00560867041349411,-0.0006265407428145409,-0.0029544602148234844,0.016435318856775523,0.024666465232124013,-0.0013830309369187736
0.13335800170898438,0.004961322993040085,-0.016906453296542168,-0.0009260773658752441,-0.001093880389817059,-0.005925077013671398,-0.0011978927068412304,0.01640471688468225,0.024631922323701344,-0.0014030253903353153
0.14355111122131348,0.006142323836684227,-0.016858259215950966,0.0020357370376586914,0.0011090862099081278,-0.00924630556255579,0.001602953765541315,0.016407134661866347,0.02456478507915493,-0.0014135687969160106
0.15351104736328125,0.006356799975037575,-0.016308292746543884,0.002740025520324707,0.0026262893807142973,-0.011758198961615562,0.0023478399962186813,0.016423045697148652,0.02445707929399087,-0.00139062037505317
0.16364812850952148,0.007244223728775978,-0.016404008492827415,0.0055193305015563965,0.0011125484015792608,-0.010733947157859802,0.0031505166552960873,0.01644940625519244,0.024347817859280533,-0.0013584199685890037
0.17428302764892578,0.005200736224651337,-0.01694612391293049,0.004849851131439209,0.0033764021936804056,-0.007839180529117584,0.004546758718788624,0.016471867160378635,0.024255043953449573,-0.0013113570850091579
0.1835031509399414,0.007606538012623787,-0.011622825637459755,0.002637803554534912,0.009640156291425228,-0.007381915580481291,0.006043721456080675,0.016546153153356943,0.024183837544814006,-0.0012592037992052115
0.19348526000976562,0.008753923699259758,-0.008242078125476837,0.001239478588104248,0.013057159259915352,-0.007727327290922403,0.00518229603767395,0.01708884200914328,0.024211607877671473,-0.00120670098266346
0.2034320831298828,0.009223680943250656,-0.008551454171538353,0.002847731113433838,0.011819321662187576,-0.009654656052589417,0.005344748497009277,0.01763403918461641,0.024199838947553315,-0.0011547136763465098
0.21367502212524414,0.008035840466618538,-0.007059196010231972,0.007554054260253906,0.004796283319592476,-0.010765060782432556,0.003029502695426345,0.018119297621488596,0.024197706195796958,-0.0011263330815681537
0.2252202033996582,0.008210385218262672,-0.007075231522321701,0.012642741203308105,0.001385572599247098,-0.01187986135482788,0.0025251000188291073,0.01853057737414444,0.024206452513399458,-0.0010981221216614639
0.23342514038085938,0.008709639310836792,-0.006780505180358887,0.013917684555053711,0.000427816528826952,-0.011581365019083023,0.0012356507359072566,0.018886401175482157,0.024210902181743623,-0.0010764639494880305
0.24348926544189453,0.006876768544316292,-0.0020093806087970734,0.009805440902709961,0.004125881940126419,-0.008411670103669167,0.0004620023537427187,0.019247800483798205,0.024243417948396104,-0.0010750572056420454
0.2538752555847168,0.005259891971945763,0.0009299423545598984,0.005295395851135254,0.007948833517730236,-0.0025828545913100243,-0.0013320093275979161,0.019638979076274914,0.02428884335783404,-0.0010707722652934816
0.2636561393737793,0.0038194414228200912,0.0019405875355005264,0.004049837589263916,0.013949733227491379,0.004746963270008564,-0.001614304375834763,0.019947780398108943,0.024432517467576468,-0.0010916111015215882
0.27529096603393555,0.003490390256047249,0.000545186921954155,0.007274627685546875,0.015338372439146042,0.0037010516971349716,-0.0022763130255043507,0.020215641137558915,0.02462446717983356,-0.001124337261914404
0.2837252616882324,0.004766160622239113,-0.0014379993081092834,0.009446382522583008,0.01557193323969841,0.0006804945878684521,-0.0030981646850705147,0.020506076825688398,0.02479851832676629,-0.0011541032737363544
0.2937791347503662,0.007885990664362907,-0.00391337089240551,0.007973015308380127,0.0143765052780509,-0.0010312083177268505,-0.002335914643481374,0.02076208273617049,0.024929008892263793,-0.0011924687364367292
0.30368709564208984,0.007110895588994026,-0.005240419879555702,0.006637096405029297,0.013941344805061817,-0.000810698140412569,3.9092497900128365e-05,0.021022004195233132,0.02504817579501786,-0.0012052796862990266
0.31391096115112305,0.007541010156273842,-0.005971306934952736,0.004736840724945068,0.013413590379059315,-0.0027955081313848495,0.0038588109891861677,0.021267734468019352,0.025167571920370797,-0.0011959652209462476
0.3250851631164551,0.00910097174346447,-0.005330391228199005,0.005740225315093994,0.011013283394277096,-0.009274979121983051,0.0078849783167243,0.02138987964908145,0.0252098734058788,-0.0011398128788845726
0.3337440490722656,0.009819859638810158,-0.007788719609379768,0.006351113319396973,0.0022961737122386694,-0.011246560141444206,0.01064278744161129,0.02140347891672054,0.025177619539018543,-0.0010489771609293354
0.34374094009399414,0.008547920733690262,-0.00869702361524105,0.007926404476165771,-0.0014154737582430243,-0.015830127522349358,0.01338025089353323,0.02133439156905829,0.025091443361901167,-0.000920588299709402
0.35376811027526855,0.008125698193907738,-0.0055620912462472916,0.009685099124908447,-0.0033355129417032003,-0.01612556166946888,0.014500217512249947,0.021280224991149874,0.024979516761437073,-0.0007773156007970225
0.3637831211090088,0.006691277027130127,-0.003550039604306221,0.00810021162033081,0.0019471333362162113,-0.014579329639673233,0.013853069394826889,0.02129337844736391,0.024888016392621143,-0.0006470595605827758
0.37472105026245117,0.002846185117959976,-0.0036546066403388977,0.006311953067779541,0.009901545941829681,-0.008549355901777744,0.014043963514268398,0.02143298417323563,0.024887969515043226,-0.0005156539033717266
0.3838019371032715,0.0003647971898317337,0.001006048172712326,0.0069612860679626465,0.01917041279375553,-0.0034470055252313614,0.010631122626364231,0.02168390734684624,0.02494337333124952,-0.0004063643783502426
0.3942079544067383,-0.0010676216334104538,0.00038244202733039856,0.007608473300933838,0.018967146053910255,-0.002689780667424202,0.006675477139651775,0.021991160932017962,0.025033237122294705,-0.00033584898983812566
0.40381312370300293,-0.0005317907780408859,-0.0007097683846950531,0.007218122482299805,0.01802358776330948,-0.0048746382817626,-0.001481519197113812,0.02227230960814546,0.025138490389151464,-0.00030679596826269984
0.4140939712524414,0.0017089210450649261,-0.0032108910381793976,0.0076212286949157715,0.013316234573721886,-0.0066217160783708096,-0.0033914316445589066,0.022563619141892102,0.025232591979552618,-0.0003363966319257695
0.4251279830932617,0.0011762604117393494,-0.0020773224532604218,0.005340516567230225,0.00741466972976923,-0.008632136508822441,-0.004064945038408041,0.02281224215328101,0.025292407397360352,-0.0003778587318092821
0.433779239654541,0.002814924344420433,-0.0023771077394485474,0.0038721561431884766,0.003334140870720148,-0.012688752263784409,-0.002720794640481472,0.022954998662834,0.025301778839905014,-0.00040975834853640853
0.4438772201538086,0.00262359157204628,-0.004230095073580742,0.002131640911102295,0.006395711097866297,-0.014834994450211525,-0.00012873986270278692,0.023039901212816623,0.025264257805738842,-0.0004234629261161254
0.45398712158203125,0.003145398572087288,-0.0023912154138088226,0.001413881778717041,0.012512176297605038,-0.015696480870246887,0.00535289803519845,0.02318509360188814,0.025154457678391015,-0.0003985856520933762
0.4638972282409668,0.005427191033959389,-0.0012557916343212128,0.0011112093925476074,0.012528154999017715,-0.020325055345892906,0.011421709321439266,0.023267683401430424,0.02497832542588471,-0.0003131956864452123
0.47612619400024414,0.0049897171556949615,-0.002035427838563919,0.0020453929901123047,0.012682169675827026,-0.023281119763851166,0.014272836036980152,0.023373083634142647,0.024744334244322565,-0.0001828658790797849
0.48398709297180176,0.005887947976589203,-0.005202757194638252,0.003757297992706299,0.01170825120061636,-0.024545321241021156,0.01552798505872488,0.023501689711064908,0.024502167881100934,-4.550018515591811e-05
0.49401092529296875,0.005054401233792305,-0.004984498023986816,0.003515899181365967,0.003273187903687358,-0.028324615210294724,0.017248332500457764,0.023628431467648627,0.024267537514389908,0.00012012918938757775
0.5039401054382324,0.0048051513731479645,-0.005505107343196869,0.004971325397491455,-0.003327989485114813,-0.030494023114442825,0.017338614910840988,0.02365714617884047,0.023997849831779595,0.0002937922389933242
0.5141539573669434,0.0034187734127044678,-0.008386507630348206,0.008853614330291748,-0.007025222294032574,-0.031650278717279434,0.019549410790205002,0.023644392937690745,0.023736124236986796,0.0004697998723622292
0.524583101272583,0.0029908306896686554,-0.005227649584412575,0.012324512004852295,-0.015896478667855263,-0.03127637133002281,0.01924660988152027,0.02359889558023227,0.02347725337457936,0.0006725092451998221
0.5341141223907471,0.0029616616666316986,-0.006381288170814514,0.01291424036026001,-0.026816604658961296,-0.029695430770516396,0.01980976201593876,0.023421769568764267,0.02323153002042972,0.0008690877513926313
0.544166088104248,0.0042789410799741745,-0.008528247475624084,0.015275120735168457,-0.03461380675435066,-0.02617233619093895,0.01800919882953167,0.023136304611649984,0.02304314470084652,0.0010658315453372347
0.5541009902954102,0.006017671898007393,-0.007974695414304733,0.01670527458190918,-0.04074503853917122,-0.022550171241164207,0.020948369055986404,0.022804761425967685,0.022891075631443214,0.0012667640216171949
0.5643091201782227,0.006217047572135925,-0.005354713648557663,0.015066802501678467,-0.03817668557167053,-0.02184203639626503,0.02314494363963604,0.022510238093609046,0.022767775085083,0.0014991095368396942
0.5750770568847656,0.00992136262357235,-0.005504895001649857,0.015378713607788086,-0.02244267798960209,-0.017104584723711014,0.026409713551402092,0.022329494598623677,0.022649123994370555,0.0017478564604095767
0.5839509963989258,0.010237913578748703,-0.0009593293070793152,0.010300278663635254,-0.00902913510799408,-0.016572484746575356,0.03350357338786125,0.022297414435064673,0.022561392612991255,0.00203915218252854
0.5940289497375488,0.01149948313832283,0.004196537658572197,0.009383618831634521,0.001931903650984168,-0.014650480821728706,0.038875170052051544,0.02244843689582088,0.022459516489133954,0.0024108403269043686
0.6039731502532959,0.009976886212825775,-0.000328991562128067,0.014021217823028564,0.0014565291348844767,-0.013624098151922226,0.03847542777657509,0.022592133282516497,0.022364704093409977,0.0027957365312694608
0.6140420436859131,0.009213468059897423,-0.003902522847056389,0.014387071132659912,-0.00848451815545559,-0.014045678079128265,0.04082966223359108,0.02269599862492927,0.022273639284407457,0.003182557299701723
0.6241800785064697,0.009637709707021713,-0.0013854634016752243,0.01345759630203247,-0.01733393594622612,-0.01581667922437191,0.04184672608971596,0.02272588229245683,0.022185059917218468,0.003593544955114206
0.6340489387512207,0.008067447692155838,-0.002756809815764427,0.012407779693603516,-0.020506693050265312,-0.01280277967453003,0.04084436595439911,0.022666778463077842,0.022107304567271217,0.004008027864469439
0.6441359519958496,0.00599939189851284,-0.0014382414519786835,0.009023785591125488,-0.019377246499061584,-0.008730806410312653,0.041294973343610764,0.022550989778209816,0.02206957096728429,0.004411635551060035
0.654088020324707,0.005190042778849602,0.0017004236578941345,0.005713760852813721,-0.011943498626351357,-0.01094469241797924,0.04305196553468704,0.022485293887844964,0.022085439084676108,0.004825953659949044
0.6643340587615967,0.007066270336508751,0.005687864497303963,0.003639817237854004,-0.009177006781101227,-0.009349191561341286,0.045057062059640884,0.022413878570893216,0.02210127254501894,0.005269024467979208
0.674436092376709,0.004644278436899185,0.002633841708302498,0.003244638442993164,-0.0037719719111919403,-0.006273818202316761,0.04536278918385506,0.022304773195645326,0.022142858078666987,0.005714536512153484
0.6841201782226562,0.0047970060259103775,0.0010290313512086868,0.002633333206176758,-0.004238025285303593,-0.005418410524725914,0.045528970658779144,0.022286873773089567,0.02220377426594977,0.0061623546810675054
0.6942360401153564,0.007162317633628845,0.0023029018193483353,0.00385284423828125,-0.0061210463754832745,-0.011316424235701561,0.04311034083366394,0.022309530629877165,0.022234120678386406,0.006605689765418011
0.7041659355163574,0.008729817345738411,-0.0008899830281734467,0.005562841892242432,-0.007215338759124279,-0.013532707467675209,0.04231512174010277,0.022275206736968523,0.02222299470436028,0.007031462531763737
0.7143371105194092,0.008173758164048195,-0.001846499741077423,0.005396425724029541,-0.0071866437792778015,-0.01493521686643362,0.041103918105363846,0.022264732684473997,0.022168670219180234,0.007447880519460513
0.7261490821838379,0.006190601736307144,-0.0010095331817865372,0.005049288272857666,-0.013759324327111244,-0.020522527396678925,0.040971558541059494,0.022201413129050957,0.022061286285500543,0.007866911154466296
0.7342381477355957,0.006225403398275375,-0.0015392042696475983,0.0070555806159973145,-0.018079588189721107,-0.024209987372159958,0.04402652382850647,0.02203791325134874,0.02188899236294047,0.008300756249524902
0.744354248046875,0.0038186386227607727,-0.005569867789745331,0.00904935598373413,-0.026064811274409294,-0.024949811398983,0.04466994106769562,0.021745584788491316,0.021716799622410004,0.008750228927629495
0.7543110847473145,-8.940882980823517e-05,-0.007609102874994278,0.007915675640106201,-0.030690770596265793,-0.02383647859096527,0.049901776015758514,0.021445783189595464,0.021520003467903503,0.009235018006045167
0.7644171714782715,-0.0017469096928834915,-0.006615025922656059,0.004095256328582764,-0.0285799503326416,-0.01901216246187687,0.05143096297979355,0.02115805461586958,0.02136150154676141,0.009757273010602167
0.7752461433410645,-0.0040525272488594055,-0.006184831261634827,0.0034623146057128906,-0.024164777249097824,-0.020393231883645058,0.05145423859357834,0.02088628760351016,0.021256063267264504,0.010276804093448503
0.7844181060791016,-0.003788325935602188,-0.0030123312026262283,0.002460479736328125,-0.012010643258690834,-0.02251550555229187,0.05400528386235237,0.02074760045692695,0.021144338988114558,0.01080651238715718
0.7956452369689941,-0.004617832601070404,0.0015120115131139755,0.002721548080444336,0.002729819854721427,-0.020473569631576538,0.05588690936565399,0.02078586707285204,0.02102776596605063,0.011364965504043886
0.804326057434082,-0.0053448136895895,0.00035443156957626343,-0.0009391903877258301,-0.002666809828951955,-0.018833864480257034,0.05435958877205849,0.02083374181580141,0.020915484131344735,0.011902097005234435
0.8143191337585449,-0.0051946379244327545,-0.00562668964266777,-0.00609356164932251,-0.006249343976378441,-0.027244260534644127,0.05302806198596954,0.020834067674067553,0.020765244509048188,0.012443058791975293
0.8247461318969727,-0.0013861581683158875,-0.004189573228359222,-0.0023518800735473633,-0.00386661384254694,-0.02773614414036274,0.04488012194633484,0.020913169442674694,0.02052725319486538,0.012922679661361604
0.8343691825866699,-0.0037542395293712616,-0.0034902431070804596,-0.00022655725479125977,-0.017591480165719986,-0.025992749258875847,0.04490307718515396,0.02095637777355643,0.020270728104111915,0.013367557496080436
0.8443610668182373,-0.0024976953864097595,-0.004660811275243759,0.00031620264053344727,-0.023734329268336296,-0.036148980259895325,0.0415850467979908,0.020853902749426067,0.019944791451809576,0.013806768097553926
0.8543281555175781,0.0008515026420354843,-0.0032785125076770782,0.0006930232048034668,-0.013965852558612823,-0.040368225425481796,0.03612210229039192,0.020756078106482317,0.019509802930537744,0.014198412394380308
0.8648080825805664,0.0003595203161239624,0.0008979663252830505,0.0001983642578125,-0.002953682094812393,-0.039529066532850266,0.03521556407213211,0.020721127491976375,0.019086074911981436,0.014543872558069037
0.8752710819244385,-0.0030375290662050247,0.0034861229360103607,-0.0033956170082092285,0.010263536125421524,-0.03442578390240669,0.03656051307916641,0.020745812178278044,0.01868353591934562,0.01489724388578387
0.884465217590332,-0.00472068227827549,0.0029316041618585587,-0.0012245774269104004,0.011800979264080524,-0.03184038773179054,0.03520709276199341,0.020862703966746582,0.018321916206741132,0.01525720627451575
0.8945651054382324,-0.0016844738274812698,0.001026628538966179,0.003921210765838623,0.004101763479411602,-0.03723999112844467,0.03796309232711792,0.021032962352920653,0.01792539193356316,0.015620232088544793
0.9044981002807617,0.0017639361321926117,-0.002607228234410286,0.004201054573059082,-0.0009174959268420935,-0.04228002205491066,0.03458007797598839,0.021122268593789073,0.01752861973095127,0.01598594915006203
0.9145722389221191,0.0020634960383176804,-0.0039348844438791275,0.007732748985290527,-0.003962154500186443,-0.04208862781524658,0.03145262226462364,0.02115265164959793,0.01709157776384438,0.016314012976112433
0.9248590469360352,0.0010857731103897095,-0.0036160722374916077,0.012743890285491943,-0.0005772770382463932,-0.043072402477264404,0.03686363250017166,0.021196816670722294,0.016665351103830862,0.016656935699645124
0.9344711303710938,0.0008246805518865585,-0.00017542392015457153,0.012581408023834229,-0.0005476993974298239,-0.04249178618192673,0.03542962670326233,0.02125002579224407,0.016270191915396248,0.017022013835358545
0.9445099830627441,-0.0004918891936540604,-0.001185450702905655,0.008330345153808594,0.0036848627496510744,-0.03999880328774452,0.034384869039058685,0.02124707828364413,0.015892901779373983,0.017370145964660084
0.9545350074768066,0.0006015710532665253,-0.0026171784847974777,0.004720509052276611,0.001164763467386365,-0.034946564584970474,0.03219319134950638,0.02121915256741901,0.015516465619386272,0.01769768282725174
0.9646940231323242,-0.00038915686309337616,-0.0013234131038188934,0.006406247615814209,-0.009784024208784103,-0.032600317150354385,0.041686829179525375,0.021139611468478137,0.015149009079281028,0.018061120020955675
0.9762041568756104,-0.0010608956217765808,-0.0024149399250745773,0.0060176849365234375,-0.02785472199320793,-0.02663825824856758,0.026834754273295403,0.02094831177665932,0.014874550532689306,0.018429485348516465
0.9846920967102051,-0.004635106772184372,-0.006256096065044403,0.009350240230560303,-0.02429221011698246,-0.005715131759643555,0.0469280369579792,0.020738699433560707,0.014756030802792914,0.01873927922910175
0.9946560859680176,-0.0020515387877821922,0.003518085926771164,0.005006015300750732,-0.02580738440155983,-0.023916417732834816,0.040785085409879684,0.020609900123028713,0.014629047479284814,0.019261527057830904
1.0045452117919922,0.008314467035233974,0.0011726785451173782,0.007566332817077637,-0.06140851974487305,-0.040889009833335876,0.01964251510798931,0.020202277234967154,0.014364157855893466,0.01953077004157156
1.014768123626709,0.006621719337999821,-0.009263968095183372,0.009415864944458008,-0.0708186998963356,-0.03897535055875778,0.04672510176897049,0.019546384911681,0.013981411427665714,0.01987855708128393
1.0254201889038086,0.0016771657392382622,-0.007381998002529144,0.00683826208114624,-0.06529290974140167,-0.02723054587841034,0.048619940876960754,0.018925795662022193,0.013661426147839256,0.02037051972217207
1.0348472595214844,0.0011269431561231613,0.0008877310901880264,-0.002406775951385498,-0.10371173173189163,-0.021562449634075165,0.06108934432268143,0.018162191141398325,0.013448461326703713,0.020925750577546944
1.045659065246582,0.004555707797408104,-0.009775493294000626,0.0030469298362731934,-0.11903130263090134,-0.03190057352185249,0.047294970601797104,0.017142363921270685,0.013177960737929111,0.021503251926539894
1.0547552108764648,0.0030665453523397446,-0.019600965082645416,0.011645972728729248,-0.12592479586601257,-0.04177442193031311,0.03866957500576973,0.0159989874931625,0.012820483427969936,0.021936070637167907
1.0650150775909424,0.007259700447320938,0.001785721629858017,0.013119220733642578,-0.1443709135055542,-0.0474189892411232,0.04336659237742424,0.0148483059039928,0.012350155801611024,0.02236283636389018
1.0754780769348145,0.009812284260988235,0.008630037307739258,0.01265805959701538,-0.16384123265743256,-0.05067057907581329,0.042361993342638016,0.013345914287551748,0.011857166585028103,0.022814906041370608
1.0847740173339844,0.0072840740904212,0.0027794530615210533,0.013308882713317871,-0.18031448125839233,-0.06559573113918304,0.06415890902280807,0.01175240686185145,0.011409614066643734,0.02335941394683983
1.0949292182922363,0.010507454164326191,0.001627376303076744,0.016447126865386963,-0.19286605715751648,-0.09532974660396576,0.059084728360176086,0.010157728640471708,0.010688394135401213,0.024024978277393635
1.1046619415283203,0.01687714271247387,-0.0022973809391260147,0.005746662616729736,-0.2056891769170761,-0.11742120236158371,0.04911917820572853,0.008414903605164914,0.009674280079799018,0.024563322444765723
1.114814043045044,0.015402063727378845,-0.002449723891913891,-0.010737836360931396,-0.2166760265827179,-0.13137492537498474,0.04563256725668907,0.0064467099033208184,0.008478853488558917,0.025051755680482336
1.1248071193695068,0.01552247628569603,0.007459267042577267,-0.02768576145172119,-0.20302864909172058,-0.13532865047454834,0.05147208273410797,0.004636922835331249,0.007229153413988145,0.025556718150979117
1.1347260475158691,0.010380404070019722,0.012329417280852795,-0.03533220291137695,-0.18117262423038483,-0.1162273958325386,0.03890116140246391,0.003174664891230413,0.00605401355328489,0.026037501040171693
1.1447341442108154,0.00037432508543133736,0.0009111487306654453,-0.02821272611618042,-0.17078416049480438,-0.09817595779895782,0.03324194625020027,0.0015677932369278025,0.005150020062841818,0.026394145798601294
1.1547751426696777,-0.001940777525305748,-0.010423730127513409,-0.0071045756340026855,-0.16595228016376495,-0.10915732383728027,0.03477683290839195,-4.723777568209477e-05,0.00430653690768478,0.02674709970347634
1.1649370193481445,0.007471031509339809,-0.0025838154833763838,0.012429237365722656,-0.16551712155342102,-0.12137803435325623,0.03265642374753952,-0.0015609612835739803,0.00330231765321572,0.027096619977460275
1.1753911972045898,0.012488866224884987,-0.000669579254463315,0.014167964458465576,-0.1810794174671173,-0.11853480339050293,0.024678178131580353,-0.003125732999882644,0.002282288023172202,0.027387963196843383
1.18471097946167,0.004838166758418083,-0.01780308596789837,0.01068347692489624,-0.21122747659683228,-0.10552472621202469,0.02766837552189827,-0.004878394212476708,0.0014338465986488216,0.027642694443618884
1.1950020790100098,0.005277956835925579,-0.019331343472003937,0.006430983543395996,-0.21922345459461212,-0.11226660758256912,0.03555484861135483,-0.006833931520160565,0.0005820645312826322,0.02797245724411235
1.2047719955444336,0.009728068485856056,-0.0036484980955719948,0.00298231840133667,-0.19225521385669708,-0.11420459300279617,0.03841188922524452,-0.008820825230492416,-0.00032803452743064045,0.02835281673825223
1.2148771286010742,0.009412869811058044,0.0007544821128249168,0.0011019706726074219,-0.18613962829113007,-0.09507812559604645,0.0414651483297348,-0.01067403745026651,-0.0012183369482781363,0.028739549680634295
1.2262520790100098,0.0019040100742131472,-0.006258676759898663,-0.005816996097564697,-0.20915094017982483,-0.07769620418548584,0.062477223575115204,-0.012468809833187029,-0.0019950869817342057,0.02924267608729266
1.2349650859832764,0.004285476170480251,-0.01049130130559206,-0.00517117977142334,-0.20786947011947632,-0.08821462839841843,0.08620966225862503,-0.014244928512600398,-0.002759249111928549,0.029985257570592956
1.2459092140197754,0.012881695292890072,-0.0024838075041770935,-0.003293752670288086,-0.19796356558799744,-0.1046852096915245,0.10592664033174515,-0.01604904336638838,-0.0035736706184359506,0.030959854247667805
1.2549090385437012,0.015458237379789352,-0.007916368544101715,-0.011551141738891602,-0.19419565796852112,-0.0918266698718071,0.10179352015256882,-0.01780448748499633,-0.004380434605345831,0.03198828736507835
1.2649650573730469,0.005089839920401573,-0.03939373791217804,-0.016662955284118652,-0.18637394905090332,-0.08577249944210052,0.09073740988969803,-0.019268068728319317,-0.0051207005161327404,0.032958462712902835
1.2754201889038086,0.0012442311272025108,-0.06660371273756027,0.0057337284088134766,-0.20677490532398224,-0.10426167398691177,0.08782439678907394,-0.020736759366235622,-0.005914096592113966,0.03380943666072043
1.2849130630493164,0.017752671614289284,-0.05269163101911545,0.02457404136657715,-0.22743037343025208,-0.15744340419769287,0.12955239415168762,-0.022709546313225363,-0.007026984246981866,0.03488998897244911
1.294922113418579,0.03786947578191757,-0.03242257982492447,0.02081608772277832,-0.2441922277212143,-0.2128959745168686,0.14272139966487885,-0.024902050765153446,-0.008696848496845377,0.036260408810995695
1.304880142211914,0.03518393263220787,-0.05127615109086037,-0.005630314350128174,-0.25470879673957825,-0.24241018295288086,0.16157259047031403,-0.027139556563843377,-0.010849744949502964,0.037738203268939785
1.3149521350860596,0.026770951226353645,-0.06590472906827927,-0.04513680934906006,-0.2555226683616638,-0.26272478699684143,0.2017175704240799,-0.02942468854279893,-0.013211364719754435,0.039523898890916974
1.3251640796661377,0.021189436316490173,-0.07164885103702545,-0.058753132820129395,-0.2081969827413559,-0.28940433263778687,0.2430088073015213,-0.031812998918051755,-0.015902729451341992,0.0417120100331731
1.335010051727295,0.020687691867351532,-0.07973922044038773,-0.05561608076095581,-0.14696469902992249,-0.3421490788459778,0.3131025731563568,-0.033632978746041695,-0.018974694417702786,0.044448971378269
1.34483003616333,0.026968829333782196,-0.06480370461940765,-0.054925501346588135,-0.10344784706830978,-0.38159528374671936,0.3619422912597656,-0.03494884139767861,-0.02249775988320319,0.047831275794930427
1.3551559448242188,0.01887417584657669,-0.07669661939144135,-0.07041823863983154,-0.09069591760635376,-0.3822932541370392,0.39947935938835144,-0.0359934134942585,-0.026202486912521677,0.0516058387667881
1.366076946258545,0.0006627924740314484,-0.10600012540817261,-0.08882403373718262,-0.06963536888360977,-0.40169838070869446,0.4480288028717041,-0.03696198979778896,-0.029968745931811622,0.055816974080972435
1.3758370876312256,-0.003784768283367157,-0.10700132697820663,-0.06185394525527954,0.024556506425142288,-0.4465011656284332,0.5046083331108093,-0.03736837931853306,-0.034025698417056514,0.06057345637769537
1.3852131366729736,0.004932094365358353,-0.08611110597848892,-0.033306121826171875,0.16006293892860413,-0.5063517689704895,0.5676738619804382,-0.03664977927865192,-0.03858207437511485,0.06598227187471292
1.395287036895752,0.011614233255386353,-0.08112387359142303,-0.013679921627044678,0.24032242596149445,-0.5695984959602356,0.6420960426330566,-0.03486575145702133,-0.04375867072246105,0.0721060566820172
1.4051411151885986,0.00977526605129242,-0.09527431428432465,-0.01570194959640503,0.27939578890800476,-0.6256226301193237,0.720532238483429,-0.032581164889037756,-0.04950926470127216,0.07904856432664926
1.415297031402588,0.0034422166645526886,-0.12554089725017548,-0.029713451862335205,0.3307885527610779,-0.6817228198051453,0.7840136885643005,-0.029948515939256418,-0.05578742993012333,0.08671992671351768
1.4254591464996338,-0.00870995968580246,-0.14955657720565796,0.003533482551574707,0.3794117569923401,-0.7463569045066833,0.8631708025932312,-0.026848061614593226,-0.06271850939748101,0.0951633331846902
1.435194969177246,-0.015500709414482117,-0.11126600950956345,0.021678507328033447,0.3555159568786621,-0.7652581930160522,0.9609140157699585,-0.023758528722322876,-0.07007079261099608,0.10454053874141893
1.4451751708984375,-0.026582397520542145,-0.10816432535648346,0.0065361857414245605,0.30614015460014343,-0.7738221287727356,1.0332504510879517,-0.021205507065542306,-0.07754656424246587,0.11474326747429606
1.4552700519561768,-0.041853658854961395,-0.15996582806110382,0.05427151918411255,0.2606968581676483,-0.8239224553108215,1.1233288049697876,-0.01924988576714671,-0.08527904122961792,0.12570905101697769
1.4653351306915283,-0.0390448272228241,-0.14370957016944885,0.13979089260101318,0.2677161693572998,-0.9014062881469727,1.247900128364563,-0.01771808478805663,-0.09368991502021341,0.13776787384958916
1.477565050125122,-0.03251732885837555,-0.12226251512765884,0.23220008611679077,0.32919561862945557,-0.9701504111289978,1.3645031452178955,-0.016046186164030998,-0.10282351822287839,0.15106197673868496
1.485121250152588,-0.03352074325084686,-0.15074390172958374,0.30939048528671265,0.43725284934043884,-1.1306991577148438,1.5185911655426025,-0.013841889085770368,-0.1130773963920217,0.1657604948076757
1.4953441619873047,-0.008592553436756134,-0.15025733411312103,0.3498302698135376,0.5752533674240112,-1.3344241380691528,1.707497477531433,-0.010700044205942378,-0.12517884034437327,0.18243285560968342
1.5051140785217285,0.02487233281135559,-0.18160724639892578,0.36765676736831665,0.5068671107292175,-1.5446540117263794,1.8178861141204834,-0.007442878169249516,-0.13947847324662338,0.20069007853180706
1.5153710842132568,0.022564992308616638,-0.34949713945388794,0.37342244386672974,0.061316121369600296,-1.7204656600952148,1.9711992740631104,-0.007287698725372326,-0.15568888109293752,0.21981141664977313
1.5253660678863525,-0.02042144536972046,-0.5467542409896851,0.31360912322998047,-0.4789513945579529,-1.6831891536712646,2.2183263301849365,-0.012818414738841323,-0.17271027293346664,0.24003285843656702
1.5353081226348877,-0.08856222033500671,-0.659433901309967,0.2023223638534546,-0.8785638809204102,-1.6542365550994873,2.619471549987793,-0.02404433808879309,-0.18899721294979716,0.2624345343020656
1.5458271503448486,-0.13621538877487183,-0.74139803647995,0.09624963998794556,-0.83054119348526,-1.655985713005066,3.108356475830078,-0.03825117790255544,-0.20424736009775551,0.28948161607233736
1.5553679466247559,-0.13848377764225006,-0.7513014078140259,-0.017311394214630127,-0.4767688810825348,-1.3688879013061523,3.0887765884399414,-0.05094434584240533,-0.21788629323459138,0.31876106167700263
1.565345048904419,-0.2427891492843628,-0.7649437785148621,-0.12633627653121948,0.480300635099411,-1.2704492807388306,3.6943247318267822,-0.059151776922930166,-0.22933976706379805,0.3509924444257359
1.5755152702331543,-0.2669113278388977,-0.6543490290641785,-0.17906731367111206,1.262211561203003,-0.6454614400863647,3.869703769683838,-0.05892342385828203,-0.236533680408572,0.3908749749250455
1.5853331089019775,-0.2370883971452713,-0.5504944324493408,-0.06485337018966675,0.8110523223876953,-0.3814700245857239,3.789367914199829,-0.05733053100508882,-0.23911370231771487,0.4305177205135007
1.5954632759094238,-0.27966272830963135,-0.6096263527870178,0.19699591398239136,0.3551065921783447,-0.21257098019123077,3.859330415725708,-0.060911431694627434,-0.23994985476982694,0.4692334081796006
1.6052870750427246,-0.2979431450366974,-0.594233512878418,0.35944032669067383,0.15125198662281036,0.09471812844276428,3.806137800216675,-0.0675048469176885,-0.23814851613966606,0.5072481669964741
1.6154389381408691,-0.32949262857437134,-0.35912084579467773,0.3626437783241272,-0.19085930287837982,0.3735135495662689,3.6759300231933594,-0.07637264907000324,-0.2331316130664213,0.5437466068701707
1.6255590915679932,-0.3961257338523865,-0.32767313718795776,0.3447974920272827,-0.4099269509315491,0.6654199957847595,3.6464505195617676,-0.0877489178747253,-0.22511386803020475,0.5787905755232671
1.635404109954834,-0.38671520352363586,-0.28106382489204407,0.34554409980773926,-0.36587074398994446,1.1052985191345215,3.644778251647949,-0.09951028098668295,-0.21310825149889878,0.6136919686201354
1.645401954650879,-0.35969725251197815,-0.08077985793352127,0.3340945243835449,-0.16590861976146698,1.467855453491211,3.7710373401641846,-0.10993102962367977,-0.19631208533799274,0.6494268445247746
1.6555042266845703,-0.3268711566925049,-0.09868352860212326,0.3852410316467285,0.1962655931711197,1.811082124710083,3.9589579105377197,-0.11667802122444805,-0.17553657807582745,0.688226142517143
1.6655702590942383,-0.14739781618118286,-0.18856534361839294,0.3021223545074463,0.018075354397296906,2.096405267715454,3.7095720767974854,-0.12166478006776309,-0.15135188090389487,0.7263264826869115
1.6755321025848389,0.008650735020637512,-0.22602732479572296,0.18337011337280273,-0.20404726266860962,2.1593410968780518,3.778707504272461,-0.12777161853896077,-0.12540081323357138,0.7637121131299952
1.6854462623596191,0.27869439125061035,-0.08422160148620605,0.06250792741775513,-0.24909169971942902,2.242154836654663,3.695230722427368,-0.1343530404569488,-0.09851124968827296,0.8009192029139643
1.695491075515747,0.41262075304985046,0.030974969267845154,-0.05871862173080444,-0.14498555660247803,2.318082332611084,3.616190195083618,-0.13947415261525697,-0.0706216970285146,0.8375861468353608
1.7053589820861816,0.47840768098831177,0.1426158845424652,-0.06389117240905762,0.06078065559267998,2.3494009971618652,3.552949905395508,-0.14185518217396645,-0.04224470054538405,0.8737512705485792
1.7155530452728271,0.5436813235282898,0.19001922011375427,-0.04693681001663208,0.21025200188159943,2.404431104660034,3.4639272689819336,-0.141413976815717,-0.01342017329488925,0.9092316137232994
1.7260360717773438,0.5974904298782349,0.20307326316833496,-0.08615672588348389,0.25913381576538086,2.468909740447998,3.36269474029541,-0.13901756473339272,0.015806623758806496,0.9437777024349058
1.7355599403381348,0.6754330396652222,0.2320462316274643,-0.13351601362228394,0.2820301949977875,2.5790631771087646,3.2580010890960693,-0.13526264635004523,0.045595352256932765,0.9771162650118399
1.7455801963806152,0.6844116449356079,0.25726020336151123,-0.14446884393692017,0.2986651062965393,2.6676130294799805,3.1549956798553467,-0.13042226822973174,0.07614988963663454,1.0092575233057894
1.7559380531311035,0.6774753332138062,0.24140587449073792,-0.12856268882751465,0.3303239643573761,2.745056629180908,3.0622973442077637,-0.124392398057528,0.10717121398186359,1.0402151193817004
1.7657880783081055,0.6559696793556213,0.2470378577709198,-0.06277406215667725,0.3212551176548004,2.799861192703247,2.93483829498291,-0.11744317456672833,0.13853017538825685,1.069851214799611
1.7755842208862305,0.6307120323181152,0.23242613673210144,0.00901120901107788,0.29280203580856323,2.809255838394165,2.822678804397583,-0.11000366636346091,0.1698462962575677,1.098003902164589
1.7855639457702637,0.6426102519035339,0.20793971419334412,0.05983072519302368,0.32777920365333557,2.7763192653656006,2.7348313331604004,-0.10186693826863502,0.20066344024698826,1.1249472773237137
1.795647144317627,0.6646143198013306,0.1914052516222,0.05346083641052246,0.4072290062904358,2.7195487022399902,2.643187999725342,-0.09253947234999044,0.2307085909462288,1.1505642221922978
1.8054780960083008,0.6906942129135132,0.18580791354179382,-0.005380988121032715,0.44759613275527954,2.605621337890625,2.552032709121704,-0.08201394048501216,0.25952874144404686,1.1749017346898447
1.8157439231872559,0.6768895387649536,0.19159318506717682,-0.04755061864852905,0.35021570324897766,2.4356117248535156,2.3836557865142822,-0.07136025949683036,0.2865516622630299,1.1977332552005728
1.8256580829620361,0.6101151704788208,0.24272853136062622,-0.048108577728271484,0.046341296285390854,2.143477201461792,2.124681234359741,-0.06268588376962832,0.31097018893852574,1.2187657348949008
1.8356730937957764,0.5275965929031372,0.2768765091896057,-0.031236588954925537,-0.2819030284881592,1.7116222381591797,1.8077936172485352,-0.0576425472165392,0.3314576806010662,1.2378729475351837
1.845777988433838,0.4413233995437622,0.33149194717407227,-0.013704061508178711,-0.5108821392059326,1.265169620513916,1.3997251987457275,-0.056125255416992724,0.34731121492207084,1.254434902610183
1.8558480739593506,0.33890628814697266,0.4365781545639038,-0.079795241355896,-0.5928879976272583,0.8143295645713806,1.00847589969635,-0.0571808717303065,0.35844108752535686,1.2676953594214246
1.8655471801757812,0.2871202528476715,0.475369393825531,-0.19133973121643066,-0.5438317656517029,0.4070552587509155,0.6579533219337463,-0.059653623110281065,0.3650630622487571,1.2775484968441921
1.875542163848877,0.22513315081596375,0.45097965002059937,-0.17071986198425293,-0.4088967740535736,0.1525472104549408,0.3358217775821686,-0.06233510067170451,0.3681617352452986,1.2838863137838223
1.8857600688934326,0.14668488502502441,0.40447062253952026,-0.0689687728881836,-0.1882922351360321,0.03629863262176514,0.11077108979225159,-0.06444528458393317,0.36919995597809313,1.2869957303255655
1.895698070526123,0.08740103244781494,0.30613958835601807,-0.00015312433242797852,0.03169359266757965,0.03817376494407654,0.019325491040945053,-0.06490744258220112,0.3695924149945463,1.2878128931890565
1.9054222106933594,0.06266200542449951,0.19211062788963318,0.03803598880767822,0.17781351506710052,0.10333119332790375,0.011655321344733238,-0.06385239779398143,0.3702432921070811,1.2875222032644047
1.91579008102417,0.0398276150226593,0.11397604644298553,0.08127844333648682,0.18532352149486542,0.2080497145652771,0.043632857501506805,-0.061935602816623164,0.371779010645483,1.2870627700188064
1.9256110191345215,0.02075856924057007,0.08079294860363007,0.12817037105560303,0.011215116828680038,0.26438087224960327,0.08964135497808456,-0.06070782189243839,0.3741907287156937,1.2872815365119954
1.9355990886688232,0.022712528705596924,0.03612270578742027,0.17218470573425293,-0.2257816642522812,0.27529066801071167,0.13455019891262054,-0.061281228214961354,0.37699725340963447,1.2887259896272447
1.9453821182250977,0.03801491856575012,0.028381578624248505,0.1663687825202942,-0.47820910811424255,0.2643810212612152,0.1585351526737213,-0.06402284667842027,0.3798814218396536,1.2914063425358993
1.9556801319122314,0.03514328598976135,0.009559974074363708,0.12114536762237549,-0.6683510541915894,0.23542580008506775,0.1540760099887848,-0.06883223792724802,0.3826489942196343,1.2950544410461367
1.9654412269592285,0.03286999464035034,-0.00010309368371963501,0.0670614242553711,-0.7167358994483948,0.1885717362165451,0.13358964025974274,-0.07477222796866682,0.3850816448913264,1.2990430194044333
1.9755680561065674,0.031042784452438354,0.015732519328594208,0.011768221855163574,-0.6576231718063354,0.12649120390415192,0.07013444602489471,-0.08083607287723879,0.38695473543274056,1.302638627631385
1.985396146774292,0.023992419242858887,0.021403804421424866,-0.028546035289764404,-0.5020002722740173,0.07269774377346039,0.0023370275739580393,-0.08610844333572566,0.38814451432195557,1.305197693736456
1.9957752227783203,0.011942416429519653,0.04161520302295685,-0.04819023609161377,-0.28255513310432434,0.05493294820189476,-0.07905807346105576,-0.08992917068639958,0.38887357501799663,1.3063108894157456
2.005592107772827,0.008320450782775879,0.03772120922803879,-0.06483989953994751,-0.07304663211107254,0.055621106177568436,-0.12555579841136932,-0.09193938660657892,0.38940199242917944,1.306018874214304
2.015580177307129,0.022744864225387573,0.01966588944196701,-0.0844876766204834,0.057693205773830414,0.04343190789222717,-0.14282219111919403,-0.09244925584497428,0.3897970711271279,1.304750492878939
2.0254271030426025,0.029053419828414917,0.007236510515213013,-0.06850743293762207,0.07398482412099838,0.02753043919801712,-0.1604136973619461,-0.09238140313888885,0.39000260723991065,1.3030608846878493
2.0355920791625977,0.021383553743362427,-0.0036936327815055847,-0.02903890609741211,0.027411798015236855,0.0017406539991497993,-0.14806531369686127,-0.09246288297438071,0.38999996384831365,1.3014109873818294
2.045450210571289,0.017419040203094482,-0.029254339635372162,-0.027896463871002197,-0.12046422064304352,-0.02350291609764099,-0.12403161078691483,-0.09336928778755432,0.38979966950786704,1.3003179632053452
2.059068202972412,0.018997490406036377,-0.05307358503341675,-0.020240962505340576,-0.29111790657043457,-0.05125607177615166,-0.09846974164247513,-0.09572996807409037,0.3893871304033396,1.3000873551635193
2.0655360221862793,0.005920439958572388,-0.054034337401390076,0.013079226016998291,-0.38754990696907043,-0.056674275547266006,-0.07115929573774338,-0.0992556890324547,0.38888260937319186,1.3005860415970676
2.075650215148926,0.0033725202083587646,-0.04769209772348404,0.009223520755767822,-0.39899739623069763,-0.03519410640001297,-0.03517402336001396,-0.10314146332322552,0.38851353591319554,1.3016331342640894
2.0859720706939697,0.012121528387069702,-0.038634203374385834,-0.00752568244934082,-0.33956921100616455,-0.006814395543187857,-0.020640619099140167,-0.10672229146940079,0.3884295400513792,1.3028035635706725
2.095729112625122,-0.005977749824523926,-0.04012930393218994,-0.019575297832489014,-0.2134147584438324,0.019353559240698814,-0.02102171815931797,-0.1093926411503918,0.38860043916281595,1.3036823660088668
2.108870029449463,-0.01546090841293335,-0.02765350043773651,-0.02663874626159668,-0.08023353666067123,0.03823137655854225,-0.028982438147068024,-0.11082627057026484,0.38893891106962086,1.3040122545181223
2.1157500743865967,-0.01832491159439087,-0.02612786740064621,-0.025189518928527832,0.026376044377684593,0.04880975931882858,-0.037091340869665146,-0.1111949964159869,0.38936556675246353,1.3037810734716613
2.1260790824890137,-0.014703214168548584,-0.0400933176279068,-0.024428606033325195,0.07879690825939178,0.03792382776737213,-0.02717266045510769,-0.11081485074656072,0.38975722717514016,1.3032626072038573
2.136693000793457,0.0014866292476654053,-0.036607615649700165,-0.02525484561920166,0.058512523770332336,0.009603725746273994,-0.019879914820194244,-0.10984092404164024,0.3899449816084333,1.3027643170900491
2.1457061767578125,0.008567750453948975,-0.019656740128993988,-0.01477736234664917,-0.002099157078191638,-0.009346529841423035,-0.01611766591668129,-0.10924389793225507,0.3899168588605724,1.302491333186818
2.1573140621185303,0.01091417670249939,-0.003512248396873474,-0.0017442107200622559,-0.07055345177650452,-0.021500930190086365,-0.005006212741136551,-0.10922784140023935,0.3897539013635868,1.3025286036526165
2.1658830642700195,0.02231016755104065,0.01029110699892044,-0.003857910633087158,-0.13643419742584229,-0.024704180657863617,0.0036748931743204594,-0.10984775591916564,0.3895686916473255,1.3029191160750782
2.175869941711426,0.02255043387413025,0.02253655344247818,0.01125246286392212,-0.17489004135131836,-0.012378005310893059,-0.0011836179764941335,-0.11073022813738863,0.3891981602333061,1.3035113788639285
2.185899257659912,0.01780286431312561,0.025500722229480743,0.03160339593887329,-0.1788104772567749,0.0015215647872537374,-0.0071190050803124905,-0.11203133016173072,0.388895027585607,1.3041254218470586
2.1959309577941895,0.010774016380310059,0.022944964468479156,0.026718974113464355,-0.15785446763038635,0.0066700768657028675,-0.010958644561469555,-0.11335955402155808,0.38873492324577374,1.3046557825780654
2.2088780403137207,0.0034450292587280273,0.011151626706123352,0.020681679248809814,-0.07826642692089081,0.004660455510020256,-0.014789335429668427,-0.11411037744507513,0.3885927060096264,1.3049610650879944
2.2159061431884766,0.0046773552894592285,0.011771179735660553,0.010635077953338623,-0.015761805698275566,0.010398679412901402,-0.02381899580359459,-0.11417790769492421,0.38855004207027316,1.3049381319694466
2.2259459495544434,0.008830606937408447,0.029886633157730103,0.004660904407501221,0.018961288034915924,0.016286928206682205,-0.038898345082998276,-0.11402101869207931,0.3886557240595435,1.3046288704590658
2.236319065093994,0.010741114616394043,0.03642275929450989,0.004128456115722656,0.037110116332769394,0.010302139446139336,-0.04921409860253334,-0.11383132592232181,0.3888259687192173,1.3041230510138406
2.246195077896118,0.02033543586730957,0.03642965108156204,0.010119020938873291,0.034114327281713486,0.009171628393232822,-0.050030358135700226,-0.11377830813033138,0.3890596193273994,1.3035554820638153
2.259329080581665,0.01963159441947937,0.03491465747356415,0.027339696884155273,0.04673652723431587,0.0236490610986948,-0.047384243458509445,-0.11384415245402445,0.38946321626573166,1.3029750944509375
2.270487070083618,0.01386040449142456,0.02253808081150055,0.03126615285873413,0.05488979443907738,0.03827700763940811,-0.03972525894641876,-0.11389194533995295,0.39008344746057677,1.3024238100438534
2.282217025756836,0.01129266619682312,0.0114363431930542,0.013778090476989746,0.026338743045926094,0.04064410924911499,-0.033322062343358994,-0.11400808272756549,0.3907412528032624,1.3019614404260504
2.290956974029541,0.01644650101661682,0.002276010811328888,0.02208167314529419,-0.0012803681893274188,0.038691747933626175,-0.03912375867366791,-0.114320364413395,0.391291614715011,1.301603675553888
2.297485113143921,0.022762954235076904,-0.00011050701141357422,0.04580402374267578,-0.024778369814157486,0.02779826521873474,-0.04266160726547241,-0.11486414368069245,0.39171698859843657,1.301288982119892
2.307814121246338,0.02587980031967163,-0.0017517879605293274,0.045137107372283936,-0.043850332498550415,0.023906055837869644,-0.042788904160261154,-0.11593269583061472,0.3921294188411297,1.3010355080285367
2.3161330223083496,0.024163275957107544,0.0031523555517196655,0.04238694906234741,-0.054290056228637695,0.025612520053982735,-0.046183209866285324,-0.11718633555203171,0.3925475119011986,1.3008369395444348
2.3261821269989014,0.016737908124923706,-0.0061532557010650635,0.04772806167602539,-0.03453632444143295,0.032541800290346146,-0.03935300186276436,-0.11822890517006023,0.39309142860621504,1.3006483655021581
2.3364920616149902,0.002352774143218994,-0.019709311425685883,0.05737030506134033,0.03450833633542061,0.05915205925703049,-0.029171310365200043,-0.11872691971063143,0.39379387222022627,1.300368801139351
2.3461360931396484,-0.01130858063697815,-0.025127194821834564,0.038573622703552246,0.1278366893529892,0.09515932947397232,-0.01176542229950428,-0.11825158433012264,0.39472422014973235,1.299881872995056
2.3580422401428223,-0.006191998720169067,-0.03563479334115982,0.01564890146255493,0.16342897713184357,0.11090037971735,-0.007459889631718397,-0.11697054311993145,0.3958211198204001,1.2992297463103621
2.3660950660705566,0.0023068487644195557,-0.047858208417892456,0.023148417472839355,0.12261282652616501,0.09776407480239868,-0.014367863535881042,-0.11568121246080898,0.39695745748327876,1.2985657925493106
2.3763461112976074,0.006760895252227783,-0.04008232802152634,0.02841508388519287,0.043868351727724075,0.06371671706438065,-0.02498285099864006,-0.11504220523327775,0.39796094063317927,1.2980822115817563
2.3863110542297363,0.008075326681137085,-0.023361533880233765,0.02504509687423706,-0.021531961858272552,0.037838514894247055,-0.03394332155585289,-0.11509114626772507,0.3986942123033765,1.297789155737147
2.3963871002197266,0.0059490203857421875,-0.013759754598140717,0.013847053050994873,-0.07154405862092972,0.02734139934182167,-0.0351029708981514,-0.11576301152624445,0.39921631284064285,1.2976807894090159
2.407872200012207,0.002772390842437744,-0.03290046751499176,0.0091782808303833,-0.07521495968103409,0.02746151015162468,-0.022743504494428635,-0.11658343804181268,0.3996599907833324,1.2977353173112072
2.4164531230926514,0.009318113327026367,-0.043457552790641785,0.013218045234680176,-0.04353339597582817,0.045698925852775574,-0.015728045254945755,-0.11716524480154417,0.4001395515828526,1.29779541748956
2.4263651371002197,0.013578593730926514,-0.03966795653104782,0.010468542575836182,0.005859449505805969,0.07423922419548035,-0.005421879235655069,-0.1172212494890714,0.40072268900687763,1.2977688405928234
2.436282157897949,0.019197016954421997,-0.0254148468375206,-0.005279481410980225,0.023570936173200607,0.09230717271566391,-0.005411972291767597,-0.11683574700037244,0.4015010156239362,1.2976495055867494
2.446260929107666,0.02172529697418213,-0.016226917505264282,-0.010699212551116943,0.008741922676563263,0.0738205760717392,0.0015103823971003294,-0.11629588501111854,0.40236403394698694,1.2975593493510316
2.4580211639404297,0.025680482387542725,-0.002512805163860321,-0.0064653754234313965,-0.03751423954963684,0.04997573792934418,-0.011912375688552856,-0.11603828066493023,0.40308248214405673,1.297580662599433
2.4663541316986084,0.023936361074447632,0.009766079485416412,-0.0021875500679016113,-0.10387568175792694,0.028601208701729774,-0.017011530697345734,-0.11648827256677353,0.4036110566056624,1.2977390715819892
2.476363182067871,0.01810029149055481,0.010523110628128052,-0.005925178527832031,-0.14393986761569977,0.0167422853410244,-0.012163138948380947,-0.11750823300099049,0.40395418464777316,1.2980965571022682
2.4863121509552,0.012030184268951416,0.004092589020729065,-0.00938880443572998,-0.15677842497825623,0.021216928958892822,0.002178782597184181,-0.11826775886585253,0.4041733372883499,1.2986486604058545
2.4962339401245117,0.007515668869018555,-0.00998370349407196,-0.011003553867340088,-0.14286252856254578,0.018455717712640762,0.012426253408193588,-0.11879796173043626,0.4045657619999228,1.2993180499924668
2.507970094680786,0.003010481595993042,-0.01750084012746811,-0.01803666353225708,-0.10060536116361618,0.007710662204772234,0.007430429570376873,-0.1191305681345953,0.40493810586980844,1.2999310930549142
2.51654314994812,0.0019375085830688477,-0.005419306457042694,-0.02717989683151245,-0.0474899560213089,0.0024087969213724136,-3.611517604440451e-05,-0.11925696756401104,0.40518401926325487,1.3002669273137761
2.5269620418548584,0.0022795796394348145,0.01485094428062439,-0.036205947399139404,-0.012541028670966625,-0.0098878163844347,-0.010650676675140858,-0.1191888621729919,0.4053407422038517,1.3003379904684838
2.5368752479553223,0.007963240146636963,0.015471503138542175,-0.0295943021774292,-0.0015473832609131932,-0.01988261565566063,-0.02225540019571781,-0.1191939528321677,0.40548342530795,1.300230683714657
2.5464091300964355,0.011540770530700684,0.0172429159283638,-0.018325328826904297,0.0037445840425789356,-0.023605715483427048,-0.030874719843268394,-0.11940769356329504,0.4055202337336207,1.3000228930575504
2.5576982498168945,0.007531285285949707,0.023526079952716827,-0.012144327163696289,0.005749511066824198,-0.020529409870505333,-0.033696018159389496,-0.11959560306538694,0.4054256380458671,1.2997348516788905
2.5664660930633545,0.0021648406982421875,0.021540336310863495,-0.011250436305999756,0.017683135345578194,-0.014943428337574005,-0.03433144837617874,-0.11964382499301882,0.4052725207810631,1.2993765752736954
2.5764551162719727,-0.006414473056793213,0.010245323181152344,-0.01861816644668579,0.025530807673931122,-0.017268989235162735,-0.028194835409522057,-0.11946293411209509,0.4050835050635533,1.2990052713441318
2.586441993713379,-0.00607609748840332,0.005928225815296173,-0.026455342769622803,0.0278653334826231,-0.018469009548425674,-0.023023510351777077,-0.11912369076944926,0.4048123311940336,1.2986540987483512
2.5965709686279297,-0.004573136568069458,0.00865248590707779,-0.02556246519088745,0.022420765832066536,-0.02280295081436634,-0.013958589173853397,-0.11888493266287938,0.40450755886590506,1.2983758426768268
2.6081061363220215,-0.0008848607540130615,0.008395560085773468,-0.02144378423690796,-0.008107847534120083,-0.03050241433084011,-0.008295110426843166,-0.11892853435181444,0.40414683596180295,1.298238337728399
2.6165452003479004,0.002924501895904541,0.003869980573654175,-0.008839130401611328,-0.04884650558233261,-0.03596939519047737,-0.002268376760184765,-0.11930639662714626,0.403804302764081,1.298288523494194
2.6266040802001953,0.004644423723220825,0.0007079094648361206,0.000283658504486084,-0.09464435279369354,-0.048804234713315964,0.001979897730052471,-0.12010910670276509,0.4034659076582807,1.2985826149849982
2.636559009552002,0.005711764097213745,-0.0023612678050994873,0.00571131706237793,-0.10115174204111099,-0.054673708975315094,-0.0007568198489025235,-0.12123332951451274,0.40304031694759995,1.2989914453349956
2.6466622352600098,0.0015208125114440918,0.0008253753185272217,0.008875072002410889,-0.04219787195324898,-0.050159916281700134,-0.016080914065241814,-0.12214276319276315,0.4025305741624439,1.2992308971281787
2.6583831310272217,-0.0024281442165374756,0.007242545485496521,0.001292407512664795,0.01908334344625473,-0.03407268971204758,-0.030854906886816025,-0.122380198975785,0.4019883003268106,1.299020449569522
2.6666550636291504,-0.004930675029754639,0.015983305871486664,-0.005821883678436279,0.04105069115757942,-0.02056167647242546,-0.028641287237405777,-0.12218288877996596,0.4015437806380656,1.2985905348779105
2.677488088607788,-0.0017459690570831299,0.005959607660770416,0.0048389434814453125,0.033551331609487534,-0.01679827645421028,-0.022229406982660294,-0.12196632565757924,0.40118659879969953,1.2981887903782414
2.6866230964660645,0.007639497518539429,-0.004847288131713867,0.018587708473205566,-0.0036868504248559475,-0.019298983737826347,-0.013545106165111065,-0.12192391382247014,0.4008824066506702,1.29793954911012
2.6969032287597656,0.01186564564704895,0.0010600760579109192,0.023686885833740234,-0.06792595982551575,-0.026690497994422913,-0.012057304382324219,-0.12230602262725639,0.4006857986853908,1.297973021657124
2.708198070526123,0.0066671669483184814,-0.0062750354409217834,0.03163492679595947,-0.10847924649715424,-0.03304107114672661,-0.0068212635815143585,-0.12314720584461276,0.4005241756072388,1.2982459372736477
2.7170209884643555,0.005229264497756958,-0.014737024903297424,0.027532100677490234,-0.10899239778518677,-0.04154561087489128,-0.007506175432354212,-0.12413996828070768,0.40034655207504577,1.2986283406857393
2.7276649475097656,0.005225569009780884,-0.006770364940166473,0.011145234107971191,-0.09246668219566345,-0.05140117183327675,-0.01091422326862812,-0.12510720388088606,0.4000178275697696,1.2989609292144264
2.7367911338806152,0.006080687046051025,0.004271015524864197,0.005973994731903076,-0.0687595084309578,-0.0538024976849556,-0.020258668810129166,-0.12598988313154375,0.39951321900000514,1.2991379888404164
2.7466702461242676,0.006564319133758545,0.010285302996635437,0.008976459503173828,-0.04730109125375748,-0.044351737946271896,-0.028568796813488007,-0.12680277093500297,0.39896089679205227,1.299122226332883
2.7575621604919434,0.00811702013015747,0.009256526827812195,0.005829751491546631,-0.033303000032901764,-0.046235524117946625,-0.023767011240124702,-0.12730150767965734,0.3985410972159983,1.2990436817962798
2.7667760848999023,0.014581829309463501,0.008623570203781128,0.004483163356781006,-0.03386013209819794,-0.044324442744255066,-0.030272847041487694,-0.12757043432501453,0.3983106067159856,1.2989497715408351
2.777229070663452,0.011090725660324097,0.016041383147239685,0.01675999164581299,-0.05052318051457405,-0.04688369482755661,-0.045216962695121765,-0.1280914312538125,0.39816841329727665,1.2988031617116391
2.7870161533355713,0.004891902208328247,0.012671753764152527,0.012718677520751953,-0.05431392416357994,-0.0674092099070549,-0.058206796646118164,-0.12865810976770753,0.39786947302331344,1.2985664869836913
2.7968802452087402,0.006600528955459595,0.02071763575077057,-0.0021514892578125,-0.03516947478055954,-0.09724181145429611,-0.08244987577199936,-0.1290843876456134,0.3972422434835267,1.2981234716759544
2.807857036590576,0.003133833408355713,0.031032532453536987,-0.016993045806884766,-0.0069490233436226845,-0.12594296038150787,-0.10604202002286911,-0.12949988568442694,0.39618370050704854,1.2973528569389001
2.816848039627075,0.0013148486614227295,0.02736853063106537,-0.021287381649017334,0.020031845197081566,-0.15591439604759216,-0.1317489743232727,-0.12991727231704375,0.39479253025400957,1.2962351758065296
2.8267931938171387,0.004891246557235718,0.018454939126968384,-0.018069803714752197,0.02819097228348255,-0.1832035481929779,-0.15592248737812042,-0.1303814282523052,0.39312818478388445,1.2948234632041316
2.8373091220855713,0.009347856044769287,0.02427297830581665,-0.020371317863464355,0.016635414212942123,-0.2075432389974594,-0.18988993763923645,-0.13093098412775897,0.39117505531467484,1.2931535174134146
2.846865177154541,0.01274120807647705,0.03526975214481354,-0.021130800247192383,-0.005625415593385696,-0.24330122768878937,-0.22372567653656006,-0.13175157548301966,0.38899986500127015,1.291259421627002
2.858458995819092,0.021699190139770508,0.0409008264541626,-0.023604929447174072,-0.03569140285253525,-0.29236263036727905,-0.26737114787101746,-0.13309023489280122,0.3864110848317887,1.2890991185893947
2.866866111755371,0.029845386743545532,0.04922914505004883,-0.030288279056549072,-0.07323159277439117,-0.35206297039985657,-0.32602646946907043,-0.13486387977997344,0.38315457406684594,1.2865870871644611
2.8771562576293945,0.03342092037200928,0.06226213276386261,-0.038858115673065186,-0.11472105979919434,-0.4237476587295532,-0.4021112024784088,-0.13721822957036692,0.3790640256558672,1.283563009820558
2.8870770931243896,0.03529930114746094,0.06701557338237762,-0.04247766733169556,-0.1593196839094162,-0.5048733949661255,-0.4888567626476288,-0.140276151841314,0.37401241564302784,1.279908939899223
2.8970489501953125,0.046443015336990356,0.07262156903743744,-0.04352027177810669,-0.24755948781967163,-0.5926021933555603,-0.5945518612861633,-0.14409284275400092,0.3679017271708067,1.2755374314732322
2.9076521396636963,0.05925056338310242,0.08069926500320435,-0.03670346736907959,-0.39839160442352295,-0.6852314472198486,-0.7217215299606323,-0.14945475078329162,0.3607694203726624,1.270486719226671
2.9175751209259033,0.07444262504577637,0.08537127077579498,-0.02329033613204956,-0.5022264719009399,-0.7880326509475708,-0.8677287697792053,-0.15650759062702344,0.35249784148682284,1.2645578996955626
2.9270730018615723,0.10533151030540466,0.11221042275428772,-0.02735114097595215,-0.6077145338058472,-0.883962094783783,-1.0219578742980957,-0.1649332983080647,0.3429740800182062,1.25745938260097
2.936857223510742,0.13707008957862854,0.12803460657596588,-0.020560801029205322,-0.7302455902099609,-0.9613190293312073,-1.1794482469558716,-0.17496474287074626,0.3323219038561869,1.249165240220705
2.947000026702881,0.15247896313667297,0.09287005662918091,0.011081576347351074,-0.7602769732475281,-1.0347445011138916,-1.3315701484680176,-0.1860634616712978,0.32059733682760655,1.2395104666829235
2.9585189819335938,0.1639028787612915,0.060440003871917725,0.03144806623458862,-0.7589738368988037,-1.0903455018997192,-1.475174903869629,-0.19764902437619175,0.3078006550017427,1.2282833309073795
2.967421054840088,0.1663464903831482,0.021799907088279724,0.02688133716583252,-0.765986442565918,-1.1090641021728516,-1.604055643081665,-0.20947964079494036,0.294167178352862,1.215579549395516
2.978567123413086,0.16345009207725525,0.010066002607345581,0.008292794227600098,-0.7610313296318054,-1.0751430988311768,-1.7304221391677856,-0.22164781736349154,0.2801944080083155,1.201382665655202
2.986948013305664,0.15800681710243225,-0.010399505496025085,0.012655913829803467,-0.631121814250946,-1.0500215291976929,-1.8057574033737183,-0.23319439851275994,0.26607202534680846,1.1858428198302322
2.9974660873413086,0.18547311425209045,-0.01633875072002411,0.025160551071166992,-0.4127088487148285,-1.0297720432281494,-1.861685037612915,-0.24299601844336338,0.2516601735863859,1.1689532185764335
3.007390022277832,0.20624659955501556,0.019680455327033997,0.026426851749420166,-0.19056417047977448,-1.009474515914917,-1.9285471439361572,-0.250524565523101,0.23696309607332122,1.1506895803807842
3.0169520378112793,0.21190300583839417,0.05374199151992798,0.023354053497314453,0.0245984997600317,-0.9549999237060547,-1.9784046411514282,-0.2557847540197008,0.22223298701209887,1.1312238668071124
3.027127265930176,0.22298617660999298,0.07389310002326965,0.032011985778808594,0.20361192524433136,-0.8707745671272278,-2.090869665145874,-0.2589779719304525,0.20777854632234694,1.1103983324530458
3.0371241569519043,0.21321208775043488,0.08891478180885315,0.05304276943206787,0.3418656587600708,-0.7920007705688477,-2.186772346496582,-0.26061268378815794,0.19374537504642678,1.0881014545965022
3.0472660064697266,0.21700559556484222,0.08762648701667786,0.03401672840118408,0.5167003273963928,-0.717928946018219,-2.2572383880615234,-0.26055627946115123,0.18013572408394465,1.0646612577537264
3.058547019958496,0.23491477966308594,0.0984845757484436,-0.013248622417449951,0.6321449875831604,-0.6211942434310913,-2.329320192337036,-0.2587944175956796,0.1671389415588265,1.0402136743583847
3.0672130584716797,0.24117621779441833,0.12411868572235107,-0.03049790859222412,0.6385307312011719,-0.5329186916351318,-2.403261184692383,-0.25627039628399284,0.15493986250669614,1.0149566361779707
3.0779619216918945,0.24091683328151703,0.11687412858009338,-0.005373358726501465,0.5907930135726929,-0.48220106959342957,-2.452110528945923,-0.25383851139477087,0.14339528786802216,0.9891584644109247
3.0871949195861816,0.24355189502239227,0.10068108141422272,0.05201101303100586,0.6574388742446899,-0.4405100643634796,-2.493844509124756,-0.25110015430980076,0.13222938078908983,0.9629735598251505
3.0978012084960938,0.22400078177452087,0.1246187686920166,0.1000242829322815,0.7922831177711487,-0.3804779648780823,-2.582442283630371,-0.24716739586831324,0.12145613843172058,0.9360462143391648
3.1076290607452393,0.18930962681770325,0.17351648211479187,0.08189988136291504,0.8999369144439697,-0.3114512264728546,-2.6719980239868164,-0.24178012012212932,0.11125295194414973,0.9080840461936693
3.11712908744812,0.19113954901695251,0.21595890820026398,0.027602314949035645,0.9683955907821655,-0.2659471035003662,-2.7486705780029297,-0.23534941691687836,0.10156392640716809,0.8792893049516767
3.127274990081787,0.19969551265239716,0.23477813601493835,-0.0032745003700256348,1.0383331775665283,-0.23524247109889984,-2.7928459644317627,-0.2281166154738698,0.09231343805226093,0.8499001776038555
3.137111186981201,0.18163369596004486,0.22033654153347015,-0.0051634907722473145,1.1170424222946167,-0.1950220763683319,-2.8405778408050537,-0.21984484712856778,0.08353323903493542,0.8201408635166145
3.1471610069274902,0.1615193784236908,0.21766704320907593,0.010655462741851807,1.191388487815857,-0.13768501579761505,-2.8945984840393066,-0.21064429076257182,0.07540094381944126,0.789874889792962
3.158906936645508,0.1527467966079712,0.2400345504283905,0.007072329521179199,1.2485237121582031,-0.056360866874456406,-2.9207305908203125,-0.2005301797807347,0.06818438789969183,0.759308495972894
3.167166233062744,0.15301299095153809,0.2618280053138733,-0.007651150226593018,1.2551605701446533,0.0210708100348711,-2.937662124633789,-0.1899181473678404,0.06210170636578152,0.7286401704588606
3.1771440505981445,0.14212536811828613,0.2550574541091919,0.0038319826126098633,1.1354656219482422,0.046180687844753265,-2.949035406112671,-0.1796529343465283,0.056832908901474515,0.697981140057331
3.1871142387390137,0.11438054591417313,0.175468310713768,0.031489670276641846,1.1411809921264648,-0.0249645933508873,-2.935854434967041,-0.1701226824516022,0.05167145503542442,0.6674312971216401
3.197418212890625,0.06289488077163696,0.03749600052833557,0.04827302694320679,1.23746657371521,-0.07000477612018585,-2.871532678604126,-0.15963731176535703,0.04621445527513476,0.6374209494473011
3.2085962295532227,0.018316708505153656,0.058650314807891846,0.04868561029434204,1.2622661590576172,-0.037152815610170364,-2.879286289215088,-0.14843637529176132,0.04107610463653404,0.6077802702397969
3.217532157897949,-0.024907182902097702,0.13937406241893768,0.06469255685806274,1.2792952060699463,-0.017525941133499146,-2.8580195903778076,-0.13685459061581012,0.03662582064027574,0.5782376343594241
3.230309009552002,-0.04855067655444145,0.1038282960653305,0.05850881338119507,1.1977638006210327,-0.0032263631001114845,-2.7807857990264893,-0.12541179443281666,0.03274645450909629,0.5493378031791554
3.2375049591064453,-0.04408042132854462,0.06904710829257965,0.06241327524185181,1.0689483880996704,-0.002436558250337839,-2.7146756649017334,-0.11496684800562793,0.02935561974677622,0.5213010853344886
3.2475740909576416,-0.038477249443531036,0.04678326100111008,0.08022773265838623,0.9195001125335693,0.015037773177027702,-2.6620891094207764,-0.1058028165598517,0.026406010501509102,0.49395582412959377
3.257962226867676,-0.040705837309360504,0.02833735942840576,0.08789306879043579,0.8265520334243774,0.020969698205590248,-2.5926053524017334,-0.09780962262523098,0.023885356143754165,0.46727790995732105
3.2674431800842285,-0.05351151525974274,-0.025428108870983124,0.0887497067451477,0.7951371073722839,0.01459701918065548,-2.5595767498016357,-0.09036968052361358,0.021634687516906198,0.4412511915075756
3.2776780128479004,-0.07809514552354813,-0.12798991799354553,0.07354885339736938,0.7961042523384094,0.024792175740003586,-2.576914072036743,-0.08296410215859329,0.019555028788730403,0.41528537706858615
3.287405014038086,-0.10532653331756592,-0.18630662560462952,0.061608195304870605,0.7843195199966431,0.07414907217025757,-2.5737435817718506,-0.07553789782847317,0.017976832765431893,0.38925740950599125
3.297524929046631,-0.10433170199394226,-0.15307167172431946,0.08228117227554321,0.8014014959335327,0.12467576563358307,-2.5602753162384033,-0.06813222341755978,0.017107641178386937,0.36335731999373844
3.3076751232147217,-0.10343839228153229,-0.09463764727115631,0.11917340755462646,0.7826070189476013,0.22338981926441193,-2.5298283100128174,-0.06058589259849868,0.017136889207351715,0.33766369388173245
3.3173789978027344,-0.10329582542181015,-0.037420373409986496,0.13108426332473755,0.7215000987052917,0.3326297104358673,-2.440849542617798,-0.05357386775888816,0.01853084251419549,0.3125676270415883
3.3274331092834473,-0.08526257425546646,-0.024103116244077682,0.1579243540763855,0.7193642258644104,0.3679448068141937,-2.3268322944641113,-0.046885752605964316,0.02086489035711401,0.2885374586600071
3.3373870849609375,-0.05072539299726486,-0.05259699374437332,0.16817688941955566,0.695656418800354,0.38807833194732666,-2.2524473667144775,-0.04024759171195852,0.023632359879345203,0.2654689068809425
3.347553253173828,-0.02077905833721161,-0.047589268535375595,0.1462116241455078,0.6161873936653137,0.38945677876472473,-2.208000421524048,-0.034289689921655236,0.026703590263215234,0.24298843582434407
3.358035087585449,0.00203574076294899,-0.04742451012134552,0.14927208423614502,0.609633207321167,0.36667951941490173,-2.1831295490264893,-0.028842677660680556,0.02978088899417001,0.22082703337893028
3.3674890995025635,0.018338117748498917,-0.04365398362278938,0.11914068460464478,0.6454681754112244,0.3645537793636322,-2.146927833557129,-0.023223937837586972,0.03283989426089496,0.19895421149251794
3.37756609916687,0.034394893795251846,0.0173475444316864,0.07829779386520386,0.6748076677322388,0.37569308280944824,-2.119774580001831,-0.01742751264479911,0.03611459317364625,0.17738084153990055
3.387558937072754,0.04453909769654274,0.04231320321559906,0.0551261305809021,0.7316906452178955,0.3644247055053711,-2.109977960586548,-0.01116849200788199,0.03951962701068604,0.15595821878354676
3.397614002227783,0.05025854706764221,0.011779243126511574,0.02085930109024048,0.7661436200141907,0.3421771824359894,-2.121532678604126,-0.004562354696539442,0.042895280091206064,0.13451102357835784
3.4076120853424072,0.056032318621873856,-0.004486585967242718,0.011629819869995117,0.713810920715332,0.3065728545188904,-2.1461918354034424,0.0019226753577547798,0.04612704602480819,0.11283428793256518
3.417724132537842,0.059092797338962555,-0.02897503599524498,0.05066317319869995,0.7288194894790649,0.24517767131328583,-2.1620402336120605,0.008028169163476885,0.048991722177752474,0.0909428414410915
3.4277639389038086,0.050571259111166,-0.055893875658512115,0.06263643503189087,0.6975329518318176,0.2517993748188019,-2.151416540145874,0.014175502749220598,0.05167617137760478,0.06898377154289047
3.437648057937622,0.052940309047698975,-0.026832610368728638,0.02380084991455078,0.6014658212661743,0.2572917640209198,-2.0996854305267334,0.019494839157254806,0.05462654700758814,0.047373109413579174
3.4476442337036133,0.07009011507034302,-0.02854047901928425,0.03946375846862793,0.5375986695289612,0.19935017824172974,-2.0486690998077393,0.024028880273388842,0.05736943212964439,0.026322269192366344
3.4576520919799805,0.08222346007823944,-0.08691930770874023,0.04418003559112549,0.41917985677719116,0.1546267867088318,-1.995483636856079,0.027647709178600915,0.059665815973942334,0.0058124269630448816
3.4675469398498535,0.09124518185853958,-0.12120775133371353,0.016010761260986328,0.32987767457962036,0.09974782168865204,-1.9166008234024048,0.030164505861192698,0.06151693648923389,-0.013970351467301238
3.4776172637939453,0.10274799913167953,-0.17022518813610077,-0.00777125358581543,0.23228587210178375,0.03935997933149338,-1.8409457206726074,0.031837548316977216,0.06279202964388776,-0.03292142375809577
3.487597942352295,0.10504897683858871,-0.19595660269260406,-0.00794363021850586,0.1352653205394745,-0.011256325989961624,-1.7432031631469727,0.03245838125748477,0.06351537594736427,-0.050961038747421486
3.4977850914001465,0.09627339988946915,-0.21375325322151184,0.02421516180038452,0.13498125970363617,-0.049281518906354904,-1.6380480527877808,0.032713002332740125,0.06373185342476329,-0.06794389429753007
3.507689952850342,0.0786217525601387,-0.24855291843414307,0.030808866024017334,0.07368248701095581,-0.06238187104463577,-1.51333749294281,0.03274915861905525,0.06368325931731958,-0.08378469333285647
3.5177149772644043,0.06717061251401901,-0.23376530408859253,0.03620588779449463,0.04774363338947296,-0.07940497994422913,-1.3690872192382812,0.03241512635448703,0.06344488606145161,-0.09823799705232164
3.5278000831604004,0.06230524927377701,-0.23482464253902435,0.04359036684036255,0.06700840592384338,-0.11194454878568649,-1.235089659690857,0.03207276100282274,0.06290659308402155,-0.11125794634432744
3.545578956604004,0.05212874710559845,-0.2561039328575134,0.03729069232940674,0.09569913893938065,-0.12165549397468567,-1.1244429349899292,0.0321863556373801,0.06207970051051373,-0.1231081113130998
3.5525131225585938,0.045943763107061386,-0.2365344911813736,0.01569187641143799,0.14979912340641022,-0.12814615666866302,-1.0166434049606323,0.03271308358497633,0.06118348840781458,-0.1338706085080847
3.558234214782715,0.046318501234054565,-0.21501091122627258,0.011901438236236572,0.1908349245786667,-0.13577423989772797,-0.9268614053726196,0.0338362765405546,0.06016772418460931,-0.1436854941786744
3.5678229331970215,0.03998134657740593,-0.22051957249641418,0.007442057132720947,0.19968965649604797,-0.12761670351028442,-0.8256466388702393,0.03528649202360316,0.0591354275388732,-0.15258372629909128
3.5778279304504395,0.033306535333395004,-0.2154301553964615,-0.0002740025520324707,0.1825031191110611,-0.12338703870773315,-0.7234299182891846,0.03672998983638054,0.05816633858917285,-0.16042886726956357
3.587770938873291,0.028585076332092285,-0.21303147077560425,0.014608025550842285,0.17453627288341522,-0.12442193925380707,-0.637779712677002,0.038122569313221874,0.05718169151639385,-0.1673372734839352
3.5980560779571533,0.02128750830888748,-0.20543396472930908,0.021622657775878906,0.11284040659666061,-0.11531752347946167,-0.5484572052955627,0.039266454801999556,0.056209216327964516,-0.17335719253874834
3.6081409454345703,0.017062466591596603,-0.17808860540390015,0.028205931186676025,0.01595674268901348,-0.1078963652253151,-0.47563624382019043,0.03961928270911649,0.055290683125433296,-0.178499219895517
3.6179862022399902,0.006326355040073395,-0.17275047302246094,0.050151526927948,-0.04467754438519478,-0.10065576434135437,-0.41512972116470337,0.03920452472208759,0.054411955418492586,-0.18294030495377533
3.627840995788574,-0.0026794523000717163,-0.1723426878452301,0.0470547080039978,-0.11781007051467896,-0.06988240033388138,-0.3614811301231384,0.03819247870688523,0.05370950652758173,-0.18677293959057298
3.6377172470092773,-0.0008722096681594849,-0.14703312516212463,0.038018882274627686,-0.17554987967014313,-0.06007694825530052,-0.33284303545951843,0.036523332318846954,0.053210131683375496,-0.19015045510757653
3.647787094116211,0.00271013006567955,-0.13621369004249573,0.052451372146606445,-0.21364986896514893,-0.06821051239967346,-0.3191376328468323,0.034371440334625074,0.0526744281716845,-0.19330934598321708
3.657966136932373,0.001216888427734375,-0.13195350766181946,0.05547630786895752,-0.2378545105457306,-0.06585956364870071,-0.2889387011528015,0.03196221282935932,0.0520871629593659,-0.19625366376633532
3.667858123779297,5.268678069114685e-05,-0.10992272943258286,0.046460092067718506,-0.2600895166397095,-0.05531424283981323,-0.2524273097515106,0.02931828380685393,0.05155247530976732,-0.19883155120576107
3.677915096282959,-0.006563600152730942,-0.10118153691291809,0.051197588443756104,-0.2615671753883362,-0.044427596032619476,-0.2227073758840561,0.026583796687012065,0.05111453353200475,-0.2010728709400159
3.6879920959472656,-0.012371163815259933,-0.11100923269987106,0.046489715576171875,-0.2467552274465561,-0.026588410139083862,-0.18257486820220947,0.023911622080449633,0.05079937773559848,-0.20297825062775524
3.698030948638916,-0.010981142520904541,-0.09961596131324768,0.03537970781326294,-0.20686838030815125,-0.003921670373529196,-0.14118903875350952,0.021540850314160222,0.050688191391065014,-0.20447383695718954
3.7087061405181885,-0.004300519824028015,-0.0812678411602974,0.02533024549484253,-0.15268558263778687,0.006834038533270359,-0.11010408401489258,0.019685934970407954,0.05071954509126346,-0.20562445639562293
3.718013048171997,0.000496305525302887,-0.07394696027040482,0.01774919033050537,-0.0914008766412735,0.017800847068428993,-0.08716227859258652,0.018400628741222783,0.050850258524252706,-0.20654257216028837
3.7288191318511963,0.0020292960107326508,-0.06637788563966751,0.005998671054840088,-0.04290337860584259,0.035811539739370346,-0.06485564261674881,0.017714585638965274,0.05111756405272895,-0.2072765963436627
3.7380542755126953,0.0013381130993366241,-0.05232810974121094,-0.011629343032836914,-0.003274975810199976,0.05340917408466339,-0.052781883627176285,0.017466833905438378,0.05158032494781255,-0.20784294567555905
3.7478890419006348,0.0012860074639320374,-0.0507371611893177,-0.011416494846343994,0.009755604900419712,0.06322771310806274,-0.05127213895320892,0.017470870053239048,0.05218265019849002,-0.20836273552919957
3.7587709426879883,-0.0038698092103004456,-0.053614333271980286,0.003732025623321533,0.0050970204174518585,0.06074569746851921,-0.05775965005159378,0.01753865489194482,0.05280762901363813,-0.208905528130539
3.7680130004882812,-0.005493730306625366,-0.047469720244407654,0.017663002014160156,-0.0028799460269510746,0.056479312479496,-0.05523097887635231,0.017518714520067338,0.053394851077458824,-0.2094762219131859
3.7782092094421387,-0.0032810457050800323,-0.027794906869530678,0.010928809642791748,-0.025145437568426132,0.05348236486315727,-0.048121776431798935,0.017814911052469882,0.05396045001376061,-0.2099766793730996
3.7881102561950684,0.002258807420730591,-0.019451819360256195,-0.0011380910873413086,-0.04787365347146988,0.041109584271907806,-0.06345386803150177,0.017841959754681176,0.05446391690679593,-0.21050732945955883
3.799826145172119,-0.0015557408332824707,-0.03171517327427864,-0.013594210147857666,-0.06965711712837219,0.03434000909328461,-0.07651863992214203,0.01766353945354777,0.05489154975976721,-0.21117421774692613
3.8093090057373047,-0.004790261387825012,-0.0290437750518322,-0.027160286903381348,-0.07725831121206284,0.03417329490184784,-0.08106625080108643,0.017344166370730347,0.055288295489546745,-0.21192319209777705
3.8181042671203613,-0.0020794719457626343,-0.013100821524858475,-0.025694310665130615,-0.08409696072340012,0.034271255135536194,-0.08341899514198303,0.016914376623142945,0.05567528317124587,-0.21269507286256623
3.8281331062316895,-0.0018056221306324005,-0.01014488935470581,-0.01673436164855957,-0.0853976458311081,0.028734542429447174,-0.08257557451725006,0.01646753473613827,0.056027226665448376,-0.21348184277716728
3.8379650115966797,-0.0029283836483955383,-0.019293809309601784,-0.002432405948638916,-0.07708658277988434,0.02867107093334198,-0.08106593787670135,0.016153412366228567,0.05631094981824517,-0.2142518453855537
3.848310947418213,-0.00457281619310379,-0.02055293694138527,0.00576251745223999,-0.0742441937327385,0.032668210566043854,-0.08173651993274689,0.016038676647076224,0.056597740894677825,-0.21502310933908733
3.8590800762176514,-0.003503914922475815,-0.015081685036420822,0.008555591106414795,-0.06541527807712555,0.0338868722319603,-0.08015992492437363,0.01586415550856248,0.05690250344147648,-0.21578787415724288
3.8681511878967285,-0.003821171820163727,-0.018893757835030556,0.011126399040222168,-0.05813978984951973,0.04619067534804344,-0.07180878520011902,0.015744691189416807,0.057342490876203786,-0.21652262810340328
3.878131151199341,-0.007050342857837677,-0.017973847687244415,0.00109940767288208,-0.06434563547372818,0.06591995060443878,-0.06009460613131523,0.015871160400599788,0.05787191751581968,-0.2171531067378521
3.8881759643554688,-0.004585389047861099,-0.012588463723659515,-0.0053261518478393555,-0.06486894935369492,0.07044972479343414,-0.052659593522548676,0.015854929888931977,0.05842920001825881,-0.21765828310140162
3.89827823638916,-0.006246395409107208,-0.024233762174844742,0.002396881580352783,-0.06101156026124954,0.06556965410709381,-0.057508356869220734,0.01550109259034407,0.05900757858380106,-0.21816589624172245
3.9086451530456543,-0.010246001183986664,-0.023349639028310776,0.009081900119781494,-0.067144013941288,0.07453759014606476,-0.04723387956619263,0.015072908593144084,0.059605205325872206,-0.21865282366074718
3.918282985687256,-0.01326356828212738,-0.01157885417342186,0.010021448135375977,-0.07084657996892929,0.08072907477617264,-0.044334761798381805,0.01480448073707702,0.06028924481070641,-0.21905795329345512
3.928415060043335,-0.020086105912923813,-0.020544786006212234,0.021244585514068604,-0.07030516117811203,0.08078633248806,-0.05094632878899574,0.014536029964682515,0.0609788520065122,-0.21949436912253603
3.9383392333984375,-0.026571020483970642,-0.02546195685863495,0.021129071712493896,-0.07451292127370834,0.0903155729174614,-0.037588976323604584,0.014135418391895607,0.06171230574960894,-0.21988499014323268
3.9481849670410156,-0.02346625179052353,-0.00911111943423748,0.004846632480621338,-0.060388848185539246,0.09835725277662277,-0.03348691016435623,0.013869407947255087,0.06253047277317286,-0.22018575827622
3.958878993988037,-0.022332914173603058,0.0030110497027635574,-0.0035957694053649902,-0.040709514170885086,0.10478132963180542,-0.0365881584584713,0.013754017404368424,0.06335186227724411,-0.22049913662023926
3.9683361053466797,-0.0267670676112175,0.004498044960200787,-0.0047220587730407715,-0.013893082737922668,0.11069860309362411,-0.04016638174653053,0.013760910244981533,0.06426318498362932,-0.2208641241432932
3.9795141220092773,-0.02705991268157959,0.011025370098650455,-0.001708984375,-0.004289224278181791,0.12207980453968048,-0.03939896821975708,0.014169500331652703,0.0652451923669715,-0.22124919005248345
3.988237142562866,-0.027298465371131897,0.01657812111079693,-0.0011410117149353027,-0.0030095751862972975,0.13125279545783997,-0.04354950413107872,0.014580082923546943,0.06626464321741149,-0.22165086243646584
3.9981369972229004,-0.028421558439731598,0.009474852122366428,0.0062372684478759766,-0.0030955288093537092,0.130936861038208,-0.054272670298814774,0.014724752189193445,0.06725285303608614,-0.22213413087825906
4.008461952209473,-0.02841942012310028,0.007166428491473198,0.011146605014801025,0.0019130781292915344,0.1349044293165207,-0.06403395533561707,0.015071395756947699,0.06813819622541077,-0.22272585684882926
4.018296241760254,-0.025456756353378296,0.01795952394604683,0.003970623016357422,0.00438655586913228,0.14454790949821472,-0.07360269129276276,0.015519084197831452,0.06899280427982961,-0.22339762399626104
4.028424263000488,-0.020534954965114594,0.0231013186275959,-0.0025668740272521973,0.001814208459109068,0.14679375290870667,-0.0902509093284607,0.015610230841200572,0.06994817025416457,-0.2241941719494129
4.038618087768555,-0.01619735360145569,0.01898576319217682,-0.0047067999839782715,-8.11468344181776e-05,0.14568379521369934,-0.09597287327051163,0.01543142135781585,0.07090766810692523,-0.2251217851862271
4.0483222007751465,-0.011943601071834564,0.01842978410422802,-0.0025368332862854004,-0.01367045845836401,0.14516021311283112,-0.09743068367242813,0.015134805502869478,0.07178286339733264,-0.22607464690387255
4.058771133422852,-0.010463103652000427,0.017699062824249268,0.0006729364395141602,-0.015823625028133392,0.14410507678985596,-0.10185286402702332,0.014648170521649493,0.07265406059399832,-0.2270523004293674
4.068474054336548,-0.008768394589424133,0.01264526229351759,0.005516469478607178,-0.009469588287174702,0.14439137279987335,-0.10684335976839066,0.014095654401232331,0.07350936651772554,-0.22808148879015516
4.078615188598633,-0.004103265702724457,0.013930097222328186,0.00509035587310791,-0.005616743583232164,0.14791077375411987,-0.10408736020326614,0.013747765644849962,0.07438530627799943,-0.22911708963724137
4.088353157043457,-0.0006276294589042664,0.013901790603995323,0.005116701126098633,-0.004051870200783014,0.1496570110321045,-0.10356298834085464,0.013475291730431358,0.07530658674618147,-0.23015002774378426
4.098816156387329,0.0005276352167129517,0.006795646622776985,0.004653275012969971,0.007685130462050438,0.14706259965896606,-0.09743440896272659,0.013067719218920694,0.07625944302441053,-0.23116085459112
4.108793258666992,0.0014165937900543213,0.003289574757218361,0.005891263484954834,0.019805975258350372,0.14809004962444305,-0.08250872790813446,0.01275070783835706,0.07728061177520298,-0.23207427486473312
4.1184611320495605,0.004063814878463745,0.005897823721170425,0.005484879016876221,0.03190721198916435,0.15038959681987762,-0.06811636686325073,0.01262762362455908,0.07840569057907408,-0.23283514070455252
4.128612995147705,0.004693657159805298,0.001312444917857647,0.011587381362915039,0.036915022879838943,0.14628912508487701,-0.053632497787475586,0.0126198789643469,0.07958013386022258,-0.23347279552629796
4.138442039489746,0.0049996525049209595,-0.00434032641351223,0.011967241764068604,0.029253188520669937,0.1439519077539444,-0.034992072731256485,0.01262811956602907,0.08074281893696696,-0.23395032866159182
4.1484761238098145,0.0072222426533699036,-0.0019578877836465836,0.009904921054840088,0.020951850339770317,0.13839814066886902,-0.019291676580905914,0.012645448097986933,0.08189634030720021,-0.23423301259255602
4.159093141555786,0.0078854039311409,-0.006332803517580032,0.010408580303192139,0.009776044636964798,0.12399466335773468,-0.010642793029546738,0.012542983280355165,0.08302226350356763,-0.23439518773017184
4.168535232543945,0.007991045713424683,-0.006883906200528145,0.004449307918548584,-0.0013557024067267776,0.11088764667510986,0.00201760814525187,0.012358076471542792,0.08406454575592621,-0.2344391323897336
4.178523063659668,0.011139601469039917,0.0035672560334205627,-0.003300964832305908,-0.010252724401652813,0.09372171014547348,0.012458104640245438,0.01218911054926307,0.08497799233939816,-0.23435299363887982
4.188508033752441,0.011135227978229523,0.0086063202470541,-0.004400849342346191,-0.015712738037109375,0.07526972889900208,0.016475483775138855,0.012024913446080749,0.08573267544011967,-0.2341992455835774
4.198522090911865,0.007729530334472656,0.005694456398487091,-0.0021185874938964844,-0.023106470704078674,0.06446821987628937,0.018386036157608032,0.011752802383962454,0.08637869992795938,-0.2340099840882085
4.208785057067871,0.0027388185262680054,0.003027569502592087,0.002519547939300537,-0.028604835271835327,0.053908251225948334,0.017201993614435196,0.011512047439134743,0.08694628674647246,-0.23381646201394887
4.218541145324707,0.0004655793309211731,0.0019114473834633827,0.0057138800621032715,-0.03148745745420456,0.04388335719704628,0.014394010417163372,0.011326698209919276,0.08743595144869482,-0.23364337785978842
4.228548049926758,-0.001470610499382019,0.0033136606216430664,0.007769525051116943,-0.029465317726135254,0.03329729288816452,0.007759809028357267,0.011096207562512655,0.08786296420612574,-0.23350181902491773
4.238629102706909,-0.0031323805451393127,0.003559471108019352,0.00879436731338501,-0.027221987023949623,0.02177206426858902,0.002703638281673193,0.01096054012646138,0.08819840803776517,-0.23341934691907526
4.248593091964722,-0.0052109286189079285,0.004860887303948402,0.010865211486816406,-0.01799999363720417,0.013142889365553856,0.0023662159219384193,0.010873400940924477,0.08843147878892739,-0.23336764282157815
4.259020090103149,-0.006396792829036713,0.006075152195990086,0.008147597312927246,-0.009350528940558434,0.00962907075881958,-0.0007224117289297283,0.010714364825089497,0.08864145532173068,-0.23335252508113974
4.268701076507568,-0.009481705725193024,0.009176048450171947,0.006242573261260986,-0.0083081666380167,0.004318194463849068,-0.001275283982977271,0.010504092152063748,0.08881242359161988,-0.2333535595154207
4.278627157211304,-0.010939456522464752,0.00836833007633686,0.009015202522277832,-0.010452494956552982,-0.0015386738814413548,-0.004519014153629541,0.010337235360503912,0.08888175932818297,-0.2333720623172016
4.288669109344482,-0.011772587895393372,0.003142178989946842,0.012130200862884521,-0.013624053448438644,-0.0006204158999025822,-0.009073552675545216,0.010176992034415423,0.08887548059326271,-0.23342564022758436
4.298691272735596,-0.01211266964673996,0.0015752417966723442,0.015243947505950928,-0.00707192812114954,0.0019982268568128347,-0.011004770174622536,0.010044375097552712,0.08887976654381394,-0.23352082887004244
4.309586048126221,-0.011884450912475586,0.0020254626870155334,0.020449519157409668,-0.002761069219559431,0.0001880759373307228,-0.021835844963788986,0.009945274345591101,0.08886502293734465,-0.23366779183923508
4.318728923797607,-0.011621683835983276,0.005062146112322807,0.023078978061676025,0.0031958897598087788,-0.0002469071187078953,-0.027815761044621468,0.00988442160257846,0.08881563522500431,-0.2339112821694143
4.328768253326416,-0.009281225502490997,0.008971242234110832,0.01797020435333252,0.021276090294122696,0.0053899395279586315,-0.02789539098739624,0.009917786011351454,0.0887791380577851,-0.23419442253366293
4.338705062866211,-0.01076708734035492,0.011285963468253613,0.011799454689025879,0.03500283882021904,0.019768478348851204,-0.03471532091498375,0.010081025035490476,0.08883101284863663,-0.23453447276615969
4.348765134811401,-0.01107749342918396,0.014041499234735966,0.0026624202728271484,0.042860761284828186,0.023310748860239983,-0.04114259406924248,0.010303614577826142,0.08894371137646676,-0.23494329238916498
4.358767986297607,-0.006866581737995148,0.015176174230873585,0.0051999688148498535,0.037722572684288025,0.01740407943725586,-0.04533472657203674,0.010538032352142396,0.08903637387616775,-0.23540779372383042
4.368772983551025,-0.002638690173625946,0.012437079101800919,0.011574029922485352,0.03203006833791733,0.01067027822136879,-0.047089215368032455,0.010804932776088641,0.08905073709417459,-0.23590638589569654
4.37890100479126,0.0025236085057258606,0.008955888450145721,0.013786733150482178,0.014906157739460468,0.006222221534699202,-0.048574622720479965,0.0109553416504498,0.08903070290982433,-0.23640558842173523
4.388736248016357,0.005007609724998474,0.007723594084382057,0.01473909616470337,0.005826377309858799,-0.001616793219000101,-0.049046266824007034,0.010974270100039766,0.08895731822994196,-0.23689398413413007
4.398890972137451,0.005737975239753723,0.001711229793727398,0.014783322811126709,0.013924450613558292,-0.009778494015336037,-0.05651196092367172,0.010943349370576956,0.08880615384713025,-0.23743877230184185
4.4090752601623535,0.006249718368053436,0.0047661373391747475,0.01244962215423584,0.012140665203332901,-0.010755874216556549,-0.05790000036358833,0.010900720445889918,0.08862935794537552,-0.2380140432655663
4.41902494430542,0.008249297738075256,0.01471377070993185,0.007707059383392334,0.015493536368012428,-0.012158871628344059,-0.05568547546863556,0.010853843306035437,0.08842947257894619,-0.23859313939823906
4.429228067398071,0.007888257503509521,0.007618953473865986,0.007176756858825684,0.011596797034144402,-0.009712758474051952,-0.05249074846506119,0.010762803913816555,0.08822505334817521,-0.23914521591391766
4.438977241516113,0.007825367152690887,0.003798430785536766,0.007329285144805908,0.0004015844315290451,-0.009383990429341793,-0.04899321496486664,0.010589120940575106,0.08807354493164055,-0.23965669936814837
4.448944091796875,0.01124560832977295,0.0016367444768548012,0.008166730403900146,-0.009056631475687027,-0.014399789273738861,-0.052768249064683914,0.010350027910096121,0.08794850046121495,-0.24015045515103656
4.459022045135498,0.013360507786273956,-0.001874629408121109,0.009477376937866211,-0.02616839110851288,-0.018548060208559036,-0.051558852195739746,0.010012466205691416,0.087831743070398,-0.24064555998659587
4.4688880443573,0.014259517192840576,0.0005329838022589684,0.009795963764190674,-0.029758598655462265,-0.019325170665979385,-0.04557552933692932,0.009597182234891052,0.08772541569276468,-0.24109802892240872
4.479013919830322,0.010453082621097565,0.0017036143690347672,0.010416805744171143,-0.02937823161482811,-0.017051542177796364,-0.04286017268896103,0.009272436286250466,0.08764026763726025,-0.24152178461324325
4.4889020919799805,0.008852586150169373,0.0019408883526921272,0.011478424072265625,-0.025863392278552055,-0.018187114968895912,-0.0429919958114624,0.008914602601779772,0.08757702111475958,-0.24193159094982922
4.498955249786377,0.008206784725189209,0.0008838409557938576,0.012250185012817383,-0.018435636535286903,-0.016405636444687843,-0.04635429382324219,0.008467890290322704,0.0875203695550894,-0.2423637756724855
4.509181976318359,0.008248433470726013,0.0020315321162343025,0.009814679622650146,-0.012643527239561081,-0.014433300122618675,-0.04718679562211037,0.008196503072653174,0.08747835850041855,-0.24281579337732825
4.518796920776367,0.008016325533390045,0.0036716219037771225,0.004917919635772705,-0.014275595545768738,-0.008797562681138515,-0.045600298792123795,0.008005532143061392,0.08748145698433206,-0.24328251948594407
4.529524087905884,0.006971322000026703,0.004623414017260075,0.0014309287071228027,0.0010940395295619965,-0.0021870643831789494,-0.04438110440969467,0.007919723547217976,0.08758073028089983,-0.24372448605471758
4.538886070251465,0.007386483252048492,0.006049389950931072,-0.0016983747482299805,0.00904106255620718,0.0014386072289198637,-0.04728549346327782,0.008002928665135226,0.0877614326964573,-0.2441908743828895
4.548943042755127,0.00792122632265091,0.007104281336069107,-0.0012575387954711914,0.014490955509245396,-0.00225999066606164,-0.04422738403081894,0.00811177802454604,0.08794463278555362,-0.2446698862010375
4.559122085571289,0.011655785143375397,0.008933930657804012,0.0013133883476257324,0.01407613418996334,-0.008351882919669151,-0.04521802440285683,0.008201928797318497,0.08802515339677362,-0.24513259741276147
4.568943023681641,0.012511909008026123,0.006064590997993946,0.0034006834030151367,0.012407396920025349,-0.008742036297917366,-0.04606304690241814,0.00827753678583011,0.0880542085781764,-0.24560908178912616
4.57897424697876,0.012031130492687225,0.0016923462972044945,0.0034132003784179688,0.01306869462132454,-0.00777495326474309,-0.048491477966308594,0.008360860181211944,0.08807737404866414,-0.24609011025427777
4.589192152023315,0.013210773468017578,0.0034795841202139854,0.001946866512298584,0.013006376102566719,-0.010737188160419464,-0.04809999465942383,0.008423857336324394,0.08808800616619437,-0.24657374907702428
4.599074125289917,0.014161363244056702,0.00697855930775404,0.0006815791130065918,0.018240585923194885,-0.012096020393073559,-0.041883643716573715,0.008489608260517369,0.08806817667540827,-0.24702788350815633
4.609148979187012,0.014074832201004028,0.00784969050437212,-0.0006451010704040527,0.02478024549782276,-0.008268792182207108,-0.03955391049385071,0.008597803158530088,0.08804790256967909,-0.2474500488486227
4.619004249572754,0.009370632469654083,0.004158571362495422,-0.0003578066825866699,0.024545885622501373,-0.00394941121339798,-0.03151755407452583,0.008706126258905237,0.08806779844961266,-0.2478292508153787
4.629133224487305,0.010782517492771149,0.0062597570940852165,0.0023525357246398926,0.02608546055853367,-0.0037563322111964226,-0.02939741313457489,0.008823672231766328,0.08812106626689503,-0.24815166379646078
4.639191150665283,0.012806735932826996,0.006379258818924427,0.002907872200012207,0.02209159918129444,-0.003843639511615038,-0.025099921971559525,0.008897401065436556,0.08821825984728945,-0.24845326402528736
4.649208068847656,0.014293737709522247,0.005564441904425621,0.0036153197288513184,0.022404519841074944,-0.005136071238666773,-0.02700834348797798,0.008998115617032313,0.08831863923752646,-0.24872963345952936
4.659213066101074,0.015186764299869537,0.003558168187737465,0.006230950355529785,0.02236991561949253,-0.007939448580145836,-0.029884932562708855,0.009158596437290556,0.08840264398448557,-0.24904349535496192
4.669301986694336,0.013790793716907501,0.002963440492749214,0.00823897123336792,0.025298062711954117,-0.013158177956938744,-0.031445544213056564,0.00931155714031145,0.08845618468611915,-0.24936817108572112
4.679295063018799,0.014941662549972534,0.005274596624076366,0.00990062952041626,0.01935788244009018,-0.016119791194796562,-0.025324746966362,0.00939493151199801,0.08846508339139879,-0.2496721766266102
4.689098119735718,0.015512056648731232,0.008293033577501774,0.00952059030532837,0.017816444858908653,-0.01760556735098362,-0.02393750660121441,0.00943790654182006,0.08844395205744549,-0.24993987080686206
4.699188232421875,0.012014336884021759,0.0041999490931630135,0.009084045886993408,0.011984371580183506,-0.015773802995681763,-0.021728094667196274,0.009495215678050768,0.08837086902309423,-0.250180743859756
4.709114074707031,0.00870271772146225,0.0013741403818130493,0.009833335876464844,0.0054276688024401665,-0.01154123991727829,-0.021143529564142227,0.009461763235211572,0.08835599519108306,-0.25039407310382533
4.71918511390686,0.0066878050565719604,0.002452922984957695,0.011767566204071045,0.008515870198607445,-0.008253302425146103,-0.01676396280527115,0.009411392823066756,0.08840266351576001,-0.2505927239095827
4.72917914390564,0.004795990884304047,0.00318168755620718,0.015009462833404541,0.011184623464941978,-0.005094525869935751,-0.016204698011279106,0.009422995688805428,0.08849431670346589,-0.2507702572129168
4.739150047302246,0.0036385059356689453,0.006942177191376686,0.012492895126342773,0.019156131893396378,-0.0005198372527956963,-0.01606685295701027,0.009506121146256038,0.08864539207108556,-0.2509353100203317
4.749290943145752,0.0023739635944366455,0.0035979636013507843,0.011239230632781982,0.025760237127542496,0.005785995628684759,-0.017801104113459587,0.009671434225309803,0.08882741820637843,-0.25113015083878704
4.759143114089966,0.0011942163109779358,0.003242330625653267,0.010621368885040283,0.0314943753182888,0.007538666948676109,-0.010996248573064804,0.009865128485706165,0.08906223316996079,-0.2512963660423574
4.769195079803467,0.0023357272148132324,0.004202543757855892,0.00982046127319336,0.03268294408917427,0.0037159656640142202,-0.010013274848461151,0.010062411062352401,0.08929512375430985,-0.25142925866109445
4.779308080673218,0.004190064966678619,0.0032305456697940826,0.012812674045562744,0.02640082873404026,-0.0037333848886191845,-0.010161773301661015,0.010280609227311634,0.0894251470665297,-0.251554601735743
4.789279937744141,0.0030898302793502808,0.0014422163367271423,0.014365971088409424,0.012095391750335693,-0.010303402319550514,-0.008973204530775547,0.010430156607508264,0.0894422186198736,-0.2516594764121091
4.799304008483887,0.0018275454640388489,-3.722589462995529e-05,0.014584064483642578,0.00019325874745845795,-0.013590364716947079,-0.012580669485032558,0.010430815922343139,0.08939204320239905,-0.25176977598220723
4.809286117553711,-0.0037807226181030273,-0.0037392526865005493,0.013689875602722168,-0.01173583883792162,-0.007835807278752327,-0.015429719351232052,0.010299339152637036,0.08933896433938637,-0.2519073201600619
4.819395065307617,-0.0076780617237091064,0.000298449769616127,0.00942152738571167,-0.0030593930277973413,-0.005378596484661102,-0.015162177383899689,0.010110346102810336,0.08931452867017693,-0.2520489647240287
4.829646110534668,-0.008450716733932495,0.007377661764621735,0.004843354225158691,0.01065002754330635,0.001446552574634552,-0.014682009816169739,0.010078960236530564,0.08932425761960312,-0.2522000229013703
4.839303970336914,-0.011654295027256012,0.010190082713961601,0.0026558637619018555,0.03129442036151886,0.0036305219400674105,-0.016023870557546616,0.01022110101082961,0.08936957796421313,-0.25237093603530536
4.849424123764038,-0.012539952993392944,0.011444706469774246,0.005437910556793213,0.0483972392976284,0.004767425358295441,-0.017277685925364494,0.010544955433172378,0.08944713337617884,-0.2525786246139537
4.859342098236084,-0.013123303651809692,0.010170153342187405,0.007634520530700684,0.04897468164563179,0.008740684017539024,-0.017583949491381645,0.010979412252586201,0.08957364514736883,-0.25279984751201207
4.869347095489502,-0.012803785502910614,0.0076619703322649,0.007451057434082031,0.040391579270362854,0.005453011952340603,-0.017752528190612793,0.011385683184472462,0.08969755211833558,-0.2530144051191804
4.879218101501465,-0.011966153979301453,-0.0009231129661202431,0.01110529899597168,0.025932326912879944,-0.0005859276279807091,-0.023857291787862778,0.011696493728993704,0.08974544262616212,-0.2532626751975497
4.891674995422363,-0.011586077511310577,-0.002100803889334202,0.014023780822753906,0.01796894334256649,-0.009305916726589203,-0.023341171443462372,0.011922626922206725,0.08967047383412848,-0.2535230906873641
4.89965295791626,-0.01033647358417511,0.003015683963894844,0.012086153030395508,0.005974065978080034,-0.01354637835174799,-0.025816526263952255,0.011988460934745464,0.08948831998808289,-0.2537653058561075
4.9095659255981445,-0.00857996940612793,0.004874510690569878,0.007484555244445801,0.007963446900248528,-0.016501687467098236,-0.030047757551074028,0.011894155730030434,0.08925664835023739,-0.2540458479023422
4.919579982757568,-0.010243616998195648,0.004022463224828243,0.0006436705589294434,0.014653556980192661,-0.015346718952059746,-0.025722356513142586,0.011805040489290809,0.08898121911712244,-0.2543327930979196
4.9295501708984375,-0.010406985878944397,0.007539895363152027,-0.005498826503753662,0.028440210968255997,-0.010408153757452965,-0.022712185978889465,0.011812951624391782,0.08873161163283265,-0.2545839739871817
4.941306114196777,-0.011964991688728333,0.007951663807034492,-0.007985830307006836,0.039635322988033295,-0.006596770603209734,-0.018221991136670113,0.011980592090576588,0.08853424141413105,-0.25481227952622065
4.9498772621154785,-0.011118829250335693,0.0032839737832546234,-0.0027844905853271484,0.04543036222457886,-0.008459918200969696,-0.013103927485644817,0.012272029167908156,0.08834375599624768,-0.25501833539154234
4.959428071975708,-0.008436724543571472,-0.0001519201323390007,0.0031462907791137695,0.04283794388175011,-0.00809293519705534,-0.0076046590693295,0.012711902975163137,0.08816387180096924,-0.2551669174705468
4.969435214996338,-0.004373833537101746,-0.002996504306793213,0.003950834274291992,0.038244787603616714,-0.010609889402985573,-0.007996942847967148,0.013132734191875375,0.0879764419390277,-0.25528246245883807
4.979491233825684,-0.0009564906358718872,-0.007458356209099293,0.005096256732940674,0.031886424869298935,-0.017682800069451332,-0.007662183605134487,0.013416390898208947,0.08774761780177438,-0.2553908242745214
4.99218225479126,-0.00019239634275436401,-0.007234417833387852,0.007956206798553467,0.02378162555396557,-0.023712994530797005,-0.002686866093426943,0.013594568724634737,0.08747093332155392,-0.2554713758065811
4.999876022338867,0.001035355031490326,-0.00482690054923296,0.010195553302764893,0.021619105711579323,-0.02516370825469494,0.0009817981626838446,0.01372853844433322,0.08714232466450088,-0.25550324818797515
5.009527206420898,-0.00022915005683898926,-0.008166877552866936,0.013489305973052979,0.021990882232785225,-0.022182565182447433,0.00199166894890368,0.013806537850808834,0.0868034383064798,-0.2555115430159784
5.019505977630615,0.000947318971157074,-0.006636562757194042,0.009028732776641846,0.02083883062005043,-0.01661496050655842,0.005953706800937653,0.013887275689245974,0.08649563286032387,-0.2554910978914812
5.0295610427856445,0.0032751858234405518,-0.0002557123079895973,0.0034013986587524414,0.024366721510887146,-0.012792792171239853,0.010441932827234268,0.01404255601772942,0.08625749751952792,-0.2554231799007021
5.0412139892578125,0.005418628454208374,-0.005474583245813847,0.0037175416946411133,0.036121029406785965,-0.007260385900735855,0.006598245352506638,0.014332137514166319,0.0860821285777748,-0.255361738333612
5.049724102020264,0.0042328014969825745,-0.0061632972210645676,0.004237532615661621,0.03536922112107277,-0.004696294665336609,0.007939413189888,0.014726838898615955,0.0860016541768313,-0.2553163756394205
5.059592247009277,0.003949470818042755,0.0014645634219050407,0.007210075855255127,0.02773570455610752,-0.004757902584969997,0.012353016063570976,0.015137338492891058,0.08596493753147369,-0.2552376861407999
5.069681167602539,0.0037342309951782227,-0.0013739634305238724,0.012640655040740967,0.025121811777353287,-0.007733984850347042,0.007009650114923716,0.015487937665541476,0.08592106199627755,-0.25516946129467066
5.080520153045654,0.002582438290119171,-0.009860832244157791,0.014549076557159424,0.009801394306123257,-0.009915336035192013,0.004846896976232529,0.015713864703251725,0.08586751624264294,-0.25513167906078216
5.091648101806641,0.0032597482204437256,-0.003084123134613037,0.013257980346679688,0.004779738374054432,-0.014522338286042213,0.0033342214301228523,0.015868280902863664,0.08576987693809163,-0.25509894614036593
5.100062131881714,0.00270119309425354,0.002357935532927513,0.009389936923980713,0.02372192218899727,-0.01626240275800228,-0.0050216056406497955,0.016076600072622908,0.0856415908159926,-0.25511527858314403
5.109833240509033,-0.0011916086077690125,0.003658231347799301,0.00652623176574707,0.030909525230526924,-0.014879956841468811,-0.014069962315261364,0.016324073131024592,0.08553653450725013,-0.25524450963792883
5.119740009307861,-0.00335732102394104,0.013127937912940979,0.0015549063682556152,0.03503033518791199,-0.020344674587249756,-0.015569002367556095,0.016699591553983067,0.08542880490290457,-0.2554255308665949
5.129794120788574,-0.003933660686016083,0.015229946002364159,0.0005844831466674805,0.03885170444846153,-0.02121366560459137,-0.019013267010450363,0.017123193270906608,0.0852727456648945,-0.2556284754229956
