timestamp,accel_x,accel_y,accel_z,rotation_x,rotation_y,rotation_z, pitch,roll,yaw
0.04167485237121582,-0.001897567417472601,-0.033785805106163025,6.288290023803711e-05,0.0030806243885308504,-0.003049751278012991,0.0016904661897569895,-0.0264502279436043,-0.0077337498816814855,-0.00010228618209369069
0.05594801902770996,-0.002665270119905472,-0.034742169082164764,0.003100097179412842,-0.0027820582035928965,-0.0028992830775678158,-0.00023499937378801405,-0.026414759533273376,-0.007759506998938616,-0.0001071631957066798
0.06871795654296875,-0.0048350016586482525,-0.036812618374824524,0.005753815174102783,-0.00842726044356823,-0.0045865727588534355,-0.000937115284614265,-0.026455804641684566,-0.007787059638767344,-0.00011745951936468982
0.06989192962646484,-0.0043357256799936295,-0.038889817893505096,0.006697475910186768,-0.010134346783161163,-0.0052957721054553986,-0.0035704488400369883,-0.026534134377394724,-0.007828603466089892,-0.0001473105083515656
0.0761110782623291,-0.0054937852546572685,-0.039350949227809906,0.008450686931610107,-0.004044962581247091,-0.001440136693418026,-0.004423938691616058,-0.02658329218741219,-0.007860752310332082,-0.0001800761855657597
0.08230996131896973,-0.005773300305008888,-0.03782956674695015,0.00851207971572876,0.001575638772919774,0.002751412568613887,-0.006135019473731518,-0.026572525179532114,-0.007855890500720412,-0.00022686106156126308
0.08979582786560059,-0.006936257239431143,-0.037480831146240234,0.008253812789916992,4.415493458509445e-05,0.004834447987377644,-0.006870212033390999,-0.026544211346303356,-0.007806801059751991,-0.0003004223914223871
0.0998380184173584,-0.006599805783480406,-0.04072650521993637,0.010208189487457275,0.004137433599680662,0.005130591802299023,-0.0019473587162792683,-0.02650923463444698,-0.007761759490981306,-0.00034635990427488015
0.10981488227844238,-0.004537414293736219,-0.040523968636989594,0.010851621627807617,0.007124701514840126,0.007555045187473297,-0.004884079564362764,-0.026428743432384705,-0.007703140052228121,-0.00037100695269038503
0.11977887153625488,-0.00457940436899662,-0.0395246222615242,0.008642375469207764,0.009891193360090256,0.008432823233306408,-0.004642264451831579,-0.02632963128031728,-0.007615320246721167,-0.00041809548872659896
0.13006186485290527,-0.0032835151068866253,-0.04100227728486061,0.006738424301147461,0.007500156760215759,0.0041040764190256596,-0.0030280163045972586,-0.026220331912010366,-0.007553132823609411,-0.00046139396458659885
0.14013314247131348,-0.0002950569614768028,-0.04089881479740143,0.008403778076171875,0.0026625252794474363,0.0029165728483349085,0.0010468864347785711,-0.026147360447274767,-0.007520323400381696,-0.00046974224846361073
0.15012001991271973,-0.0018206750974059105,-0.04207954555749893,0.010769844055175781,-0.001382616930641234,0.006768657825887203,0.003947548568248749,-0.026122641933569276,-0.007474786623623244,-0.00043915622048013676
0.16022515296936035,-0.004075764678418636,-0.04606203734874725,0.008237302303314209,-0.001540808705613017,0.005373161286115646,0.007114313077181578,-0.02612258766790912,-0.0074169415455872965,-0.00038581673814358535
0.17020106315612793,-0.004628094844520092,-0.04513471573591232,0.008863985538482666,0.004007171839475632,0.004785179626196623,0.011990241706371307,-0.02609553024891475,-0.007368127659015282,-0.00028556085018863615
0.18022513389587402,-0.004055852070450783,-0.038964346051216125,0.009293913841247559,0.009865593165159225,0.009388986974954605,0.011950293555855751,-0.02601338214236509,-0.0072994600229513784,-0.00016127776559524799
0.1901538372039795,-0.005437743384391069,-0.036080487072467804,0.006917715072631836,0.013703257776796818,0.00804839562624693,0.008031878620386124,-0.025876062327062698,-0.007214508620728184,-5.435235961624347e-05
0.19999384880065918,-0.00621633930131793,-0.03577744960784912,0.006749272346496582,0.012521614320576191,0.007501648738980293,0.000901531137060374,-0.024687637820566165,-0.007229159419926397,-5.692995641306634e-06
0.21004080772399902,-0.0063463617116212845,-0.034870535135269165,0.005144298076629639,0.007988414727151394,0.004872397985309362,-0.002039823681116104,-0.023536245627190654,-0.007236266641426253,-1.12990754868295e-05
0.22002387046813965,-0.005645929370075464,-0.03165963292121887,0.0029257535934448242,0.004237351939082146,0.00011119898408651352,-0.00848494004458189,-0.02247655226490236,-0.0072193553633177285,-6.678702220059879e-05
0.2301008701324463,-0.004558115731924772,-0.03048703819513321,0.0010859966278076172,0.0004995057824999094,0.0013302166480571032,-0.014721370302140713,-0.021471562127612424,-0.007254162069151607,-0.00018471682025150856
0.24045801162719727,-0.007276764139533043,-0.03399535268545151,0.002526581287384033,0.0028665231075137854,0.00041835010051727295,-0.01804286427795887,-0.02041726484996505,-0.007327729349846876,-0.000354315201747634
0.2502868175506592,-0.008551662787795067,-0.03367927297949791,0.006208360195159912,0.004453850444406271,0.0020396385807543993,-0.020428365096449852,-0.019399081286151223,-0.007410732886963139,-0.000553792170837202
0.26041698455810547,-0.008763452060520649,-0.03182138502597809,0.006041169166564941,0.0076935854740440845,0.006092703435570002,-0.02281748689711094,-0.018548122650777283,-0.007442971197803889,-0.0007717138512864521
0.2701699733734131,-0.010099193081259727,-0.03260488063097,0.0016914010047912598,0.01336811576038599,0.011096250265836716,-0.018004143610596657,-0.017759832678003316,-0.007449897952186282,-0.0009791741778113346
0.2802441120147705,-0.00961131602525711,-0.033418260514736176,0.00028711557388305664,0.02164415456354618,0.01100623607635498,-0.014618998393416405,-0.01690987481583949,-0.007449383576691987,-0.0011453757555173016
0.2903921604156494,-0.00765787111595273,-0.03069610893726349,0.002742946147918701,0.02300042100250721,0.010945204645395279,-0.013699889183044434,-0.01603391637730175,-0.0074495959296332565,-0.0012841594253993724
0.30019307136535645,-0.004221441224217415,-0.03357427567243576,0.004128575325012207,0.01884482428431511,0.009697780013084412,-0.011807180009782314,-0.015249878440482272,-0.007437447059537648,-0.0014089922489349794
0.3102710247039795,-0.004174942150712013,-0.03712920472025871,0.004718959331512451,0.011275471188127995,0.007407594472169876,-0.009927840903401375,-0.014547527498320266,-0.007422831678840183,-0.0015166983935320066
0.32025980949401855,-0.002821659203618765,-0.03920741751790047,0.005048811435699463,0.004249253310263157,0.0020245469640940428,-0.006309136748313904,-0.013848571175270784,-0.007494311122107939,-0.001594531271933735
0.3303039073944092,-0.0017119832336902618,-0.03548167645931244,0.006017506122589111,0.000557212857529521,-0.0033769640140235424,-0.008019472472369671,-0.013220306783916086,-0.007642636452187414,-0.0016665670878784945
0.34041595458984375,-0.0003808792680501938,-0.03399517387151718,0.007304787635803223,-0.005194149911403656,-0.006581279914826155,-0.004517948254942894,-0.012679801051859873,-0.007829297932424862,-0.001728105108231861
0.350369930267334,-0.0008763168007135391,-0.03329828754067421,0.005051553249359131,-0.001260261284187436,-0.008220100775361061,-0.002466675126925111,-0.012120200198708433,-0.008066252783969087,-0.0017576534600074899
0.3603808879852295,-0.0027800248935818672,-0.030978132039308548,0.005179226398468018,0.0042769829742610455,-0.007439528591930866,0.00024042802397161722,-0.01149372835547376,-0.008283478795561022,-0.0017752930086192083
0.3703279495239258,-0.005694343708455563,-0.0269024558365345,0.006909191608428955,0.010388071648776531,-0.002894311212003231,0.002023840555921197,-0.010866500152207028,-0.008436133828975947,-0.0017678976773360846
0.38038086891174316,-0.006367642432451248,-0.02381867915391922,0.00688546895980835,0.011068776249885559,-0.001614928711205721,0.002529841149225831,-0.01016305526776293,-0.008510458898396163,-0.00174621149228159
0.39029383659362793,-0.005645536817610264,-0.02518244832754135,0.00646519660949707,0.006762710399925709,0.0006460947915911674,0.000881344371009618,-0.009405816312458001,-0.008561118450080092,-0.001735442813615839
0.40038609504699707,-0.005596436560153961,-0.02627413347363472,0.007586002349853516,0.00881574209779501,0.002939076628535986,0.0019186455756425858,-0.008635898120373794,-0.008564383261781487,-0.001720650428603643
0.4102909564971924,-0.005529733374714851,-0.022992707788944244,0.01072019338607788,0.012478653341531754,0.003975844942033291,-0.001394326682202518,-0.007917925426501653,-0.008539481753141292,-0.0017233091467626234
0.4203009605407715,-0.002932651899755001,-0.020411159843206406,0.011229395866394043,0.013925016857683659,0.004382243379950523,-0.004288650117814541,-0.007213188373906508,-0.00849674543690686,-0.0017513959390263595
0.4303019046783447,-0.0035831425338983536,-0.018082724884152412,0.008823513984680176,0.015029429458081722,0.0033870202023535967,-0.006048467010259628,-0.00651742621868901,-0.008471822742110661,-0.0017950003778909839
0.4403088092803955,-0.001745147630572319,-0.015438087284564972,0.008125483989715576,0.010878543369472027,0.003822402795776725,-0.00785084068775177,-0.005886937154426914,-0.008478729398111675,-0.0018587741692756815
0.4503638744354248,-0.0007021045312285423,-0.01630021445453167,0.007349729537963867,0.004826010670512915,0.004530803766101599,-0.011468959040939808,-0.005391023228106273,-0.00851467078473813,-0.001954715843675189
0.4605250358581543,-0.0014379238709807396,-0.019912395626306534,0.007000267505645752,-0.0019221734255552292,0.0024886918254196644,-0.011854584328830242,-0.005020655683731231,-0.008572294562362217,-0.002068574529622355
0.47162604331970215,0.00021564960479736328,-0.019044309854507446,0.008176028728485107,-0.007083296310156584,-0.0033661345951259136,-0.00939994864165783,-0.004671364199644431,-0.008669462180912356,-0.00217317533971086
0.4803299903869629,0.001872197724878788,-0.018178604543209076,0.009183526039123535,-0.011981116607785225,-0.00608309218659997,-0.007248114328831434,-0.004354973619676564,-0.008784866433313972,-0.00226602239751538
0.49048399925231934,-0.000383191742002964,-0.021094314754009247,0.00944298505783081,-0.012346451170742512,-0.002240460831671953,-0.005307628773152828,-0.0041121122597421525,-0.008894586315836237,-0.0023284955628126137
0.5004799365997314,-0.0017769383266568184,-0.02196880802512169,0.007887065410614014,-0.008600182831287384,0.0003579854965209961,-0.005335059482604265,-0.0039032287160935576,-0.008935159451233993,-0.0023748736867078997
0.5105531215667725,-0.002036827616393566,-0.020921457558870316,0.010374844074249268,-0.001969311386346817,0.0024613505229353905,-0.003885287791490555,-0.003679851404551554,-0.008965180837232117,-0.0024252844529966382
0.5205550193786621,-0.0034209424629807472,-0.020238688215613365,0.012618780136108398,-0.0028063429053872824,0.0051245116628706455,-0.008777781389653683,-0.0034548441169373885,-0.00895434888894198,-0.0024913139990886107
0.5306539535522461,-0.004602944478392601,-0.021051835268735886,0.01353543996810913,-0.007085626479238272,0.004716204013675451,-0.006177736911922693,-0.003245650144439634,-0.008901489076071904,-0.0025716464317723986
0.5404589176177979,-0.005223971791565418,-0.021178336814045906,0.014863967895507812,-0.025582611560821533,0.008536508306860924,0.0005581963923759758,-0.0030822352055627157,-0.008845030635612863,-0.002601573868662906
0.550649881362915,-0.007104109041392803,-0.021022921428084373,0.01306462287902832,-0.045501407235860825,0.02258765697479248,-0.0015372850466519594,-0.003140442494462026,-0.008689130923422788,-0.0025941358405630927
0.5615818500518799,-0.013765363954007626,-0.02616920880973339,0.010870099067687988,-0.02813706547021866,0.04256775602698326,-0.015656566247344017,-0.0032360717507057255,-0.008329744385217289,-0.002687554078588381
0.570544958114624,-0.019741911441087723,-0.02641332522034645,0.011210441589355469,0.008402219973504543,0.05211292579770088,-0.014940176159143448,-0.0029766465770222216,-0.00786159431681149,-0.0028564443560964103
0.5808429718017578,-0.020436685532331467,-0.010192281566560268,0.009690284729003906,0.05163278058171272,0.05927762761712074,-0.010361403226852417,-0.002319565132459098,-0.007334638279359719,-0.002971426514320157
0.5905740261077881,-0.015395468100905418,0.005191204138100147,0.0038060545921325684,0.07873645424842834,0.060418304055929184,-0.02722022496163845,-0.001325116059878053,-0.006791110473326872,-0.0031461160048501862
0.6008310317993164,-0.012208331376314163,0.005058963783085346,0.0011858940124511719,0.09081282466650009,0.061275843530893326,-0.04378508776426315,-0.00014509988907101593,-0.006255085833373598,-0.0034935105053736583
0.6110739707946777,-0.011223383247852325,-0.0008776923059485853,-9.316205978393555e-05,0.06751800328493118,0.061072420328855515,-0.05815204232931137,0.0009525462118108645,-0.005729407721474467,-0.00400275943575973
0.6207900047302246,-0.008205663412809372,-0.00912453979253769,-0.0013431310653686523,0.04125896841287613,0.04710707068443298,-0.06771571934223175,0.0017846793855456886,-0.005298641176896337,-0.004619310365038196
0.6306231021881104,0.0004386543296277523,-0.012085877358913422,-0.0024722814559936523,0.025822406634688377,0.030889084562659264,-0.07390464097261429,0.0023938998131363552,-0.005047087847501038,-0.005328915475223174
0.6413249969482422,0.006507950369268656,-0.010352304205298424,-0.0047779083251953125,0.029735922813415527,0.018863847479224205,-0.07844480127096176,0.003013583927086387,-0.005028135854983186,-0.0060909676932289275
0.6506400108337402,0.010433396324515343,-0.005067763384431601,-0.009404301643371582,0.03570684418082237,0.011234467849135399,-0.0740111693739891,0.003689974591083079,-0.005169416497668713,-0.006869804751082255
0.6608109474182129,0.012106513604521751,-0.0047154207713902,-0.0112076997756958,0.03322504460811615,0.0029059648513793945,-0.06534656882286072,0.004118614445460284,-0.005392964127077853,-0.007569943629337422
0.6708109378814697,0.014599151909351349,-0.008472777903079987,-0.010385453701019287,0.016178149729967117,-0.008233771659433842,-0.05490138754248619,0.004206472864290631,-0.005642568418492086,-0.008177471837158475
0.6807358264923096,0.01560274139046669,-0.01827414333820343,-0.0005449056625366211,-0.005532737355679274,-0.017986800521612167,-0.04706024378538132,0.00410969577506047,-0.005944259060691988,-0.008677800404900408
0.6907751560211182,0.015534819103777409,-0.029380906373262405,0.008044421672821045,-0.021181154996156693,-0.021971289068460464,-0.03638474643230438,0.003928224653985698,-0.006288329125914348,-0.00909800804132995
0.7008559703826904,0.015958819538354874,-0.03227101266384125,0.012849569320678711,-0.02737380377948284,-0.020600028336048126,-0.02356801927089691,0.0037847005341572542,-0.0065902649382838276,-0.00940601895406862
0.7110841274261475,0.01511056162416935,-0.03130462020635605,0.016434669494628906,-0.0257822647690773,-0.013548331335186958,-0.011603235267102718,0.0036829748589796516,-0.00674908953338319,-0.00957660526843429
0.7252848148345947,0.012837955728173256,-0.02949812263250351,0.015824496746063232,-0.012601749040186405,-0.006296810228377581,-0.006076909136027098,0.0036431611568472104,-0.006750041245496783,-0.009666682489742206
0.7323601245880127,0.010448992252349854,-0.03068973496556282,0.01838862895965576,0.0009476656559854746,0.0019327567424625158,0.0008137002005241811,0.0036722517289171676,-0.0066346357463927,-0.009688118701463692
0.7411539554595947,0.008639395236968994,-0.030772745609283447,0.023562133312225342,0.012459445744752884,0.006502474658191204,0.009981365874409676,0.0038181247202279337,-0.006427208751305241,-0.00963537513847356
0.7509880065917969,0.007370670326054096,-0.02643997222185135,0.025760114192962646,0.00996419694274664,0.010128280147910118,0.01458213571459055,0.004076801981551457,-0.006150304128676963,-0.009509040860673931
0.7610080242156982,0.006427278276532888,-0.027204761281609535,0.0259893536567688,0.0013757687993347645,0.011531765572726727,0.01701972633600235,0.004425907234208818,-0.005847781550330805,-0.009353588221413042
0.7709269523620605,0.004780597519129515,-0.029823657125234604,0.027637243270874023,-0.011505008675158024,0.014456627890467644,0.016122668981552124,0.004828257300057746,-0.005528617212800967,-0.009189409871400432
0.7808339595794678,0.002003876492381096,-0.030908972024917603,0.026737093925476074,-0.020096633583307266,0.01628994755446911,0.017567167058587074,0.005162013771467233,-0.005193302714175192,-0.009021203377559172
0.7909228801727295,-0.0013784542679786682,-0.024721462279558182,0.025104880332946777,-0.018476098775863647,0.01571301743388176,0.01832265406847,0.005368079899088548,-0.004893243780224955,-0.008834709291053577
0.8013589382171631,-0.004046898800879717,-0.014509782195091248,0.023655593395233154,-0.009080734103918076,0.021642012521624565,0.009938488714396954,0.005554738663876693,-0.004605168235752593,-0.008692779784704363
0.8108961582183838,-0.007751899771392345,-0.011421045288443565,0.017643630504608154,0.00044920528307557106,0.02700912579894066,0.006276589352637529,0.005805344954532032,-0.004287616294305522,-0.008619592646685369
0.8208110332489014,-0.00949610024690628,-0.007515133358538151,0.008930444717407227,0.005554751493036747,0.031431570649147034,0.006664079148322344,0.006110188509203183,-0.003947222116445816,-0.008547320553469798
0.830935001373291,-0.009993065148591995,-0.0014157961122691631,0.003528594970703125,0.005999832414090633,0.035338692367076874,0.0008150850771926343,0.0063806732080220465,-0.0035723241855009713,-0.00850304821789421
0.8408219814300537,-0.011457331478595734,-0.004618578124791384,0.0009646415710449219,0.0027947176713496447,0.030130350962281227,-0.00221692374907434,0.006641642062011996,-0.0032066870783829067,-0.008512151160405558
0.8509891033172607,-0.012065626680850983,-0.009906665422022343,1.7642974853515625e-05,-0.001501327264122665,0.020461034029722214,-0.008005411364138126,0.006907759877735641,-0.0029340831919426285,-0.008556212169185682
0.8609011173248291,-0.010294166393578053,-0.008427394554018974,-0.00016647577285766602,-0.015523935668170452,0.007187839597463608,-0.00751512311398983,0.007105297917102602,-0.0027981946121072004,-0.008630912911697947
0.8724820613861084,-0.006426858715713024,-0.007697552442550659,-0.002104520797729492,-0.029518796131014824,-0.009303562343120575,-0.007673048414289951,0.007117976360023458,-0.002835547409841303,-0.008699252307739677
0.8813388347625732,-0.005517791025340557,-0.012112538330256939,-0.0029431581497192383,-0.034767888486385345,-0.020322391763329506,-0.006664243061095476,0.0069449301687519345,-0.0030427135081305904,-0.008773167130208743
0.89096999168396,-0.0048628319054841995,-0.01406432781368494,-0.006254017353057861,-0.030753538012504578,-0.024019215255975723,-0.008744917809963226,0.006747896813700368,-0.0033619841276373167,-0.008840879209937666
0.9008879661560059,-0.006719805765897036,-0.010876523330807686,-0.009504616260528564,-0.017366893589496613,-0.030779648572206497,-0.004817553795874119,0.006609282154597429,-0.0037633196263529944,-0.008913111536217464
0.9110848903656006,-0.006366949062794447,-0.007678654510527849,-0.011336684226989746,-0.009887006133794785,-0.034053295850753784,0.0009590021218173206,0.00649599085891775,-0.004207738979457438,-0.008928398230769338
0.9235761165618896,-0.005143322981894016,-0.004683812148869038,-0.01185762882232666,-0.008629195392131805,-0.03781341388821602,0.0005384890246205032,0.0064848520675284725,-0.004698958573804058,-0.008915990904238015
0.93119215965271,-0.00463228952139616,-0.008799141272902489,-0.008198440074920654,-0.014406024478375912,-0.04226497560739517,0.0007551106973551214,0.006535174018567251,-0.005225269975144693,-0.008915529625399906
0.9410250186920166,-0.004040488973259926,-0.015610777772963047,-0.00011396408081054688,-0.023833347484469414,-0.04798810929059982,0.0041876588948071,0.006483179319974384,-0.005771311775907297,-0.00888791741292817
0.9510629177093506,-0.0019446476362645626,-0.016176505014300346,0.0058345794677734375,-0.028968587517738342,-0.051416218280792236,0.0053324452601373196,0.006344695560202149,-0.006310772834435045,-0.008836940014592417
0.9613900184631348,0.0008359439671039581,-0.01490097213536501,0.010333001613616943,-0.02732275426387787,-0.05012352019548416,0.00016617908840999007,0.00624693559554607,-0.0068483404148710555,-0.008814960316017511
0.9737451076507568,0.0012820754200220108,-0.016082141548395157,0.009688735008239746,-0.0159506406635046,-0.04347719997167587,0.00188572914339602,0.006240693278019367,-0.007340269497611699,-0.008805448103181186
0.9813311100006104,0.0007298756390810013,-0.011691530235111713,0.008403241634368896,0.003977527376264334,-0.030852753669023514,0.003861794713884592,0.006343586095913063,-0.007749398790131989,-0.008770920237117825
0.9911191463470459,0.000667152926325798,-0.005680058617144823,0.006614208221435547,0.01729220151901245,-0.02332896739244461,0.003953620791435242,0.0065719810626779515,-0.008037654283623423,-0.008732760389774592
1.0010221004486084,0.0011706463992595673,-0.004320487845689058,0.008624613285064697,0.019977200776338577,-0.022583283483982086,0.0037666663993149996,0.006832925114352535,-0.008281776374654024,-0.008677885860771329
1.011124849319458,0.005210353061556816,-0.004603169858455658,0.013366222381591797,0.0067631942220032215,-0.022221803665161133,0.005864864680916071,0.007099566063298441,-0.008522074937074369,-0.00863155705667625
1.0226960182189941,0.00864275824278593,-0.006840360816568136,0.014889061450958252,-0.013579627498984337,-0.014955101534724236,0.003639260772615671,0.007288527928665727,-0.008719640998467395,-0.008582643035898051
1.0312621593475342,0.009820357896387577,-0.010912170633673668,0.013163447380065918,-0.029308807104825974,-0.016982344910502434,-0.0025480613112449646,0.007290813834193147,-0.00887491024758144,-0.00858231961711275
1.0413758754730225,0.009916411712765694,-0.010537995025515556,0.013070940971374512,-0.025029638782143593,-0.020892132073640823,-0.0033957455307245255,0.007222483771187601,-0.009032006452690467,-0.008611377855990438
1.0512568950653076,0.009787444956600666,-0.004883714485913515,0.018562734127044678,-0.021917451173067093,-0.015895020216703415,-0.003965715412050486,0.007215752414052674,-0.009192966426840995,-0.008652095594122465
1.0611729621887207,0.007807833142578602,0.0013875379227101803,0.015891611576080322,-0.016957048326730728,-0.011191343888640404,-0.006177736911922693,0.007185124813856279,-0.009303815830860162,-0.008702895674136178
1.0724680423736572,0.0042124055325984955,0.0017901198007166386,0.01128309965133667,-0.008966733701527119,-0.009385544806718826,-0.006783872377127409,0.007129941572853274,-0.009385757957956159,-0.008769518200467183
1.0813159942626953,0.0016454821452498436,-9.272294119000435e-05,0.009711086750030518,-0.005756027065217495,-0.005705855321139097,-0.007191335782408714,0.007123929647817828,-0.009428090480610279,-0.008848400427546638
1.091310977935791,0.0023596109822392464,0.0018979357555508614,0.005591213703155518,-0.0044808718375861645,-0.007941046729683876,-0.006858121603727341,0.007130945752478846,-0.009425055588498895,-0.008915403971372552
1.1012771129608154,0.003962770104408264,0.0034264842979609966,0.004476726055145264,-0.001326091238297522,-0.013052716851234436,-0.006507649552077055,0.007209911781073713,-0.00942604767131046,-0.008982365868599728
1.1113059520721436,0.0026701176539063454,-0.0009632711298763752,0.005634963512420654,-0.0037844551261514425,-0.01938438229262829,-0.007449875585734844,0.007336761723280253,-0.00947618179728951,-0.009053580596504164
1.1225700378417969,0.0025960756465792656,-0.0031196470372378826,0.00470203161239624,0.0008507766760885715,-0.028151776641607285,0.000975833332631737,0.007469207423898763,-0.00960052275181336,-0.0090898097347957
1.131230115890503,0.004659331403672695,-0.0014866981655359268,0.0022282004356384277,-0.012295618653297424,-0.03279748186469078,0.0036704197991639376,0.007484724956351348,-0.009786961878058031,-0.00906972767838883
1.1412670612335205,0.005356368608772755,0.0008549727499485016,-0.0036019086837768555,-0.022543463855981827,-0.03972889110445976,0.0029521652031689882,0.007293431374458189,-0.010056758509908652,-0.009027081183707594
1.1512279510498047,0.004989242181181908,-0.005336652044206858,-0.0017111897468566895,-0.049111440777778625,-0.04719280079007149,-0.0023844365496188402,0.0069153960228401255,-0.010452574617887253,-0.00903533263489287
1.16143798828125,0.0010495753958821297,-0.013544408604502678,0.002972722053527832,-0.07544983178377151,-0.04214770719408989,-0.0022608658764511347,0.006306502867010951,-0.010876913148569962,-0.009066573267893441
1.1736879348754883,-0.002307404763996601,-0.013315534219145775,-0.0010079741477966309,-0.10129106789827347,-0.0316929817199707,-0.009697637520730495,0.00539095165457521,-0.011197266212488887,-0.009124464986994669
1.181283950805664,-0.004609520547091961,-0.015600890852510929,-0.0033096671104431152,-0.10445676743984222,-0.03262428939342499,-0.012002336792647839,0.004326286250997799,-0.011443329528007348,-0.009257425224380665
1.1913278102874756,-0.008615495637059212,-0.01610974408686161,-0.002652764320373535,-0.104098841547966,-0.029306165874004364,-0.017360828816890717,0.0033749201122302446,-0.011694531816826144,-0.009404556038379575
1.201430082321167,-0.006241001188755035,-0.007771829608827829,0.0031142830848693848,-0.1417178511619568,-0.04900237172842026,-0.02291778102517128,0.0022523817993668977,-0.012024336521141259,-0.009638666658666258
1.211353063583374,-0.0009887265041470528,-0.008999104611575603,0.0017670392990112305,-0.1446712166070938,-0.07426507771015167,-0.012140820734202862,0.0009030345494340738,-0.012561662042923952,-0.009826963805424622
1.2232599258422852,0.0026085712015628815,-0.013856864534318447,-0.007824420928955078,-0.14163653552532196,-0.08286682516336441,-0.006563096307218075,-0.00046046293200700117,-0.013275103640646591,-0.009943345119779302
1.2317299842834473,0.0019951481372117996,-0.008950181305408478,-0.012322485446929932,-0.12974797189235687,-0.0854528397321701,0.0066719092428684235,-0.001611519894806534,-0.014065580011050065,-0.009981886517978123
1.2431261539459229,-0.004014118574559689,0.0003431360237300396,-0.012504160404205322,-0.12506958842277527,-0.09308279305696487,0.0053094360046088696,-0.0026026283294064033,-0.01487710925277349,-0.009905835498815213
1.2515349388122559,-0.006174046546220779,-0.011896511539816856,-0.009334862232208252,-0.13509073853492737,-0.12727312743663788,-0.015631053596735,-0.003566035973789576,-0.01596748543257369,-0.009988867296546898
1.2616519927978516,-0.0014819242060184479,-0.024014391005039215,-0.003960549831390381,-0.1342656910419464,-0.14942902326583862,0.009507323615252972,-0.004621301253106459,-0.017348723139543464,-0.0100418682888763
1.2732818126678467,0.004566606134176254,-0.005804402753710747,-0.010799765586853027,-0.1197483092546463,-0.16155599057674408,0.008388742804527283,-0.00551532901025658,-0.018957316243044087,-0.009960949016780568
1.2813849449157715,0.0010816287249326706,-0.008377715945243835,-0.025548279285430908,-0.10700854659080505,-0.18032436072826385,0.023204440250992775,-0.00645596908874086,-0.020645541167893015,-0.009827171205357471
1.2914910316467285,-0.0018409956246614456,-0.015117781236767769,-0.034001708030700684,-0.09418874979019165,-0.20882506668567657,0.03841551020741463,-0.007214607193384017,-0.022530030616810547,-0.009534431965090871
1.3014781475067139,0.0052718184888362885,-0.0175553560256958,-0.02853381633758545,-0.08650952577590942,-0.24822625517845154,0.07511812448501587,-0.007866920587490136,-0.024684516924458513,-0.008996883568060995
1.3115789890289307,0.010326465591788292,-0.021861840039491653,-0.01650714874267578,-0.10433349758386612,-0.30049940943717957,0.0809754878282547,-0.00860287309597033,-0.027283621553731634,-0.00822749601966605
1.3232810497283936,0.013777229934930801,-0.04748249799013138,-0.0054708123207092285,-0.12392371147871017,-0.3572351336479187,0.10330582410097122,-0.009687443495531852,-0.030492006952789565,-0.007356155987686778
1.3316071033477783,0.014716021716594696,-0.06755107641220093,-0.013507068157196045,-0.14291933178901672,-0.4042539894580841,0.1501261591911316,-0.010850445045222479,-0.03421042781928154,-0.006147282818745728
1.3419368267059326,0.01864144206047058,-0.059544552117586136,-0.03726184368133545,-0.14739663898944855,-0.4519072473049164,0.19482412934303284,-0.012060309337158182,-0.03836824662546183,-0.004454135305616579
1.3515589237213135,0.01925329491496086,-0.0658409520983696,-0.055167198181152344,-0.14823146164417267,-0.497395396232605,0.23128265142440796,-0.013535055447576782,-0.0429523126596072,-0.002403190883483944
1.361536979675293,0.014296140521764755,-0.08085554838180542,-0.06283730268478394,-0.1146005317568779,-0.5333533883094788,0.2880015969276428,-0.014984731661789555,-0.04808800777080013,0.00012106461326231897
1.3732099533081055,0.007000613957643509,-0.08044318109750748,-0.062064170837402344,-0.05376399680972099,-0.574772834777832,0.3497167229652405,-0.01603733858486201,-0.053572665165072815,0.0032561097061626627
1.3815369606018066,-0.0016007088124752045,-0.08174365758895874,-0.04055517911911011,0.058269061148166656,-0.6324960589408875,0.43098869919776917,-0.01625447456517905,-0.05955403836295309,0.007149233840874145
1.3916208744049072,-0.008989281952381134,-0.07452279329299927,-0.0125885009765625,0.19214633107185364,-0.6991277933120728,0.501640260219574,-0.015289592229118508,-0.06615542379439884,0.011900355950690939
1.401608943939209,-0.016082361340522766,-0.07526730746030807,0.005384087562561035,0.2901274859905243,-0.7656181454658508,0.5612806677818298,-0.013241537077216278,-0.07339140504623665,0.017363303093165968
1.4117679595947266,-0.0326375886797905,-0.10550426691770554,0.02631402015686035,0.4056694209575653,-0.8546740412712097,0.6533796787261963,-0.010259906462979446,-0.08140944452301564,0.02367658250066557
1.4233410358428955,-0.04512421786785126,-0.1288117617368698,0.04817092418670654,0.5319895148277283,-0.9608076810836792,0.7360649704933167,-0.006177735949627812,-0.09043797233898725,0.03101791444535648
1.4315779209136963,-0.05114257335662842,-0.13111954927444458,0.06622272729873657,0.6400862336158752,-1.0587732791900635,0.8340616226196289,-0.001069715388555846,-0.10054679596204294,0.03938527452335405
1.4420678615570068,-0.06666335463523865,-0.14466053247451782,0.06621509790420532,0.7344926595687866,-1.153161883354187,0.9064247608184814,0.00487479529120245,-0.11160928987873246,0.048811772871809565
1.4518420696258545,-0.0897173136472702,-0.18756753206253052,0.0669509768486023,0.7911655902862549,-1.2806376218795776,0.9615364670753479,0.011375969061961934,-0.12386419551352366,0.05898882031617994
1.465914011001587,-0.11389845609664917,-0.22258731722831726,0.03481572866439819,0.7758535146713257,-1.392183542251587,1.0149976015090942,0.017937097394227858,-0.13742565991889336,0.06985064315607349
1.4805128574371338,-0.13331787288188934,-0.2523679733276367,-0.028180062770843506,0.6596753597259521,-1.5034916400909424,1.0490779876708984,0.023603834335979575,-0.152115772298365,0.08110758936871663
1.4822838306427002,-0.1616257280111313,-0.3145912289619446,-0.08121538162231445,0.4675333797931671,-1.6523849964141846,1.1298824548721313,0.02748292563974727,-0.16822473292948295,0.09276940573656652
1.4943690299987793,-0.18700042366981506,-0.34499993920326233,-0.130881667137146,0.26922163367271423,-1.7751811742782593,1.1955006122589111,0.029072546395047,-0.1857412422399316,0.10492806520353241
1.501830816268921,-0.21788914501667023,-0.34881189465522766,-0.14018768072128296,-0.021990222856402397,-1.7753390073776245,1.269628882408142,0.027960920095357993,-0.20387233770586885,0.11723765965111639
1.5116469860076904,-0.2759881615638733,-0.36673295497894287,-0.15017682313919067,-0.3522580862045288,-1.8337010145187378,1.3497031927108765,0.02346611123882728,-0.22228228694920626,0.12967566947011921
1.5233759880065918,-0.3327636122703552,-0.40837693214416504,-0.13888663053512573,-0.7796576023101807,-1.879936933517456,1.4254869222640991,0.014687953970644681,-0.24114100341155828,0.14188571335583383
1.5317928791046143,-0.3691038191318512,-0.4597353935241699,-0.135944664478302,-1.178844928741455,-1.870194911956787,1.4598667621612549,0.0017200601137575312,-0.2599117657499364,0.1536337774607564
1.5418980121612549,-0.38851669430732727,-0.5021733045578003,-0.1588137149810791,-1.2602423429489136,-1.772843360900879,1.4303635358810425,-0.014045960337093738,-0.2785350135740959,0.16416893920896508
1.5518019199371338,-0.4240909814834595,-0.5011596083641052,-0.1891094446182251,-1.2531700134277344,-1.7719485759735107,1.4903172254562378,-0.030309367879260724,-0.2960309351730126,0.1744805047484556
1.5619261264801025,-0.43976739048957825,-0.4400373697280884,-0.31209903955459595,-0.7618697881698608,-1.6897469758987427,1.642052412033081,-0.04492698791214594,-0.3131332971620337,0.1863257598035656
1.5733840465545654,-0.4324471056461334,-0.39094895124435425,-0.3429824709892273,-0.07755108922719955,-1.4691802263259888,1.59064519405365,-0.053573064665025635,-0.32846808531380234,0.2008410502350512
1.581840991973877,-0.3929784595966339,-0.37866032123565674,-0.3883400559425354,0.22424179315567017,-1.445608139038086,1.604602575302124,-0.05812197467625006,-0.3421613672117431,0.21590190872005333
1.5918028354644775,-0.3137250244617462,-0.2497229427099228,-0.2864278554916382,0.3959153890609741,-1.348042368888855,1.6198415756225586,-0.06068938955325119,-0.35521156394098197,0.2323420216279205
1.6024601459503174,-0.296721488237381,-0.25671839714050293,-0.1184396743774414,0.7754387259483337,-1.2175384759902954,1.601578712463379,-0.061047944916392365,-0.36704009775039625,0.2494407048176988
1.6118271350860596,-0.360851526260376,-0.3257023096084595,-0.018123626708984375,1.2288200855255127,-1.0212008953094482,1.5896451473236084,-0.057561730283102866,-0.37718479362139085,0.26798209411405044
1.6228950023651123,-0.29311245679855347,-0.19727583229541779,0.015829920768737793,1.5714105367660522,-0.7712128162384033,1.581592321395874,-0.05029471719294658,-0.3850174754190238,0.2879416616383277
1.6320509910583496,-0.27459970116615295,-0.1416216492652893,0.027566134929656982,1.881157636642456,-0.5411396622657776,1.7362736463546753,-0.040483044256583736,-0.39074670890621116,0.30993600341354965
1.6419761180877686,-0.3168944716453552,-0.1814209669828415,0.083748459815979,2.0316786766052246,-0.22868004441261292,1.8418363332748413,-0.02923481736964474,-0.39369359995550285,0.33388714296221755
1.6519148349761963,-0.35668665170669556,-0.18263216316699982,0.15652459859848022,2.1454460620880127,0.038027599453926086,2.003756046295166,-0.01725911085923913,-0.3940271051724895,0.3598081248587868
1.662060022354126,-0.366118848323822,-0.20797131955623627,0.26583927869796753,2.058007001876831,0.29639124870300293,2.147826910018921,-0.005716946163363214,-0.3919542663703487,0.38700513379044876
1.6738879680633545,-0.3174220025539398,-0.19683071970939636,0.3481152057647705,1.9714797735214233,0.5943799018859863,2.4810497760772705,0.004218255049580643,-0.3875532839306067,0.41610637524861216
1.6818079948425293,-0.296480655670166,-0.2280106246471405,0.3893080949783325,1.492623209953308,0.9474407434463501,2.5185961723327637,0.011155021329183718,-0.3800608838307613,0.4460739671279271
1.691878080368042,-0.2458326816558838,-0.28105854988098145,0.351614773273468,0.8482589721679688,1.1910960674285889,2.7277915477752686,0.012306402148341751,-0.36957557535638375,0.474570282817484
1.7019331455230713,-0.18912741541862488,-0.34661006927490234,0.3775545358657837,0.476585328578949,1.424340009689331,2.9089860916137695,0.00832390368073008,-0.35679796973915634,0.503364903441618
1.712062120437622,-0.056734949350357056,-0.2634069621562958,0.3564079999923706,0.18436986207962036,1.6511088609695435,3.094287157058716,0.001194875131446727,-0.34149611393087664,0.5327311210678226
1.7229421138763428,0.03978291153907776,-0.17779876291751862,0.2654896378517151,-0.06543543189764023,1.8027311563491821,3.265665292739868,-0.008701787841700663,-0.3241269211434833,0.5629770302043259
1.7320220470428467,0.17716971039772034,-0.1594543755054474,0.22647547721862793,-0.14647726714611053,1.9919064044952393,3.439669370651245,-0.020189592287892487,-0.3047596248912534,0.5945720312951824
1.7422029972076416,0.3243701756000519,-0.09307463467121124,0.22436147928237915,-0.3162287473678589,2.2496492862701416,3.5304558277130127,-0.0324121637247912,-0.2826884460082114,0.6273668416730177
1.7522079944610596,0.4200025796890259,-0.012006975710391998,0.23445314168930054,-0.5368713140487671,2.4292263984680176,3.6269471645355225,-0.04603586754266063,-0.2579787520569439,0.6607882480561019
1.7624080181121826,0.5553227066993713,-0.025186628103256226,0.2608237862586975,-0.7579398155212402,2.58001971244812,3.6766421794891357,-0.06109883164371562,-0.23118951677956898,0.6947886277404783
1.7735710144042969,0.7424783706665039,-0.000705130398273468,0.28536373376846313,-0.9470240473747253,2.662344455718994,3.6248939037323,-0.07724448400833588,-0.20279397963356738,0.7287856623925102
1.7823388576507568,0.867419958114624,0.062275856733322144,0.2782893180847168,-1.0425766706466675,2.685166120529175,3.536465644836426,-0.09379192241910435,-0.17317943974723116,0.7622157559222403
1.7921779155731201,0.9618197679519653,0.11960345506668091,0.24154925346374512,-0.942081868648529,2.626075506210327,3.3922154903411865,-0.10923683449673596,-0.14324381491821192,0.7950780979707529
1.8023450374603271,1.010727882385254,0.22003112733364105,0.16679757833480835,-0.48963797092437744,2.469503402709961,3.197772264480591,-0.12077816486847182,-0.11400633588979964,0.8270880200804075
1.8122761249542236,1.0102232694625854,0.28651607036590576,0.05210620164871216,0.13815991580486298,2.2375216484069824,2.979069709777832,-0.12561897958405388,-0.08662003218569479,0.8578832422082081
1.8238670825958252,0.9796252846717834,0.3250137269496918,-0.09696871042251587,0.5261135101318359,1.9228771924972534,2.683284044265747,-0.1241428838617561,-0.062158865293726044,0.8867393804592759
1.8322739601135254,0.9369121789932251,0.3073095679283142,-0.21578305959701538,0.4301176965236664,1.5490779876708984,2.2352657318115234,-0.12034960482446158,-0.041686883133957985,0.9118972586378542
1.8425049781799316,0.8154028058052063,0.30242353677749634,-0.15886789560317993,0.0277971550822258,1.1173218488693237,1.6545770168304443,-0.11863159286558875,-0.025975972741632294,0.9316195160823656
1.8523509502410889,0.6146610975265503,0.368463397026062,0.012907207012176514,-0.371136337518692,0.6958650350570679,1.0624912977218628,-0.12066041053810829,-0.015315765180644668,0.9452749995396224
1.8626091480255127,0.4723186492919922,0.4665203392505646,0.10123968124389648,-0.6017610430717468,0.315099835395813,0.5464285612106323,-0.12585332054421514,-0.00933360538702472,0.9532199354688179
1.875931978225708,0.38018760085105896,0.4860385060310364,0.06838661432266235,-0.3967125415802002,0.08217605948448181,0.18005110323429108,-0.13112841299949546,-0.007001987673308238,0.9567554808141161
1.884308099746704,0.3235715627670288,0.4044228196144104,0.012077152729034424,0.10046448558568954,0.01834036037325859,-0.058685313910245895,-0.13269480683029133,-0.006535638912131592,0.9572733280279397
1.8935599327087402,0.2585671544075012,0.3030672073364258,0.010180175304412842,0.6580155491828918,0.08258175104856491,-0.15905947983264923,-0.1288848310399955,-0.006253423689014967,0.956119899261178
1.9021928310394287,0.18481723964214325,0.1421033889055252,0.05696535110473633,1.1253951787948608,0.22506459057331085,-0.15690977871418,-0.11982628728756889,-0.004935749073263831,0.954527090503461
1.9123330116271973,0.14911460876464844,0.026051931083202362,0.09628152847290039,1.3628038167953491,0.36791735887527466,-0.092058926820755,-0.10716460727359964,-0.002092395908127852,0.9532943412249835
1.9232509136199951,0.13187874853610992,-0.016138851642608643,0.11924952268600464,1.3168359994888306,0.4669475257396698,-0.011806700378656387,-0.09357706330480797,0.00207250171442165,0.9527786089780402
1.932276964187622,0.12067841738462448,-0.04196581989526749,0.1499350666999817,1.0542935132980347,0.5009074211120605,0.06575322896242142,-0.08163844196188474,0.006969888915629632,0.9529951784698865
1.9423878192901611,0.102458655834198,-0.06378479301929474,0.16804498434066772,0.6577030420303345,0.4659939110279083,0.11937092244625092,-0.07295967453258231,0.0119385414891537,0.9538602359307592
1.9522390365600586,0.10591880977153778,-0.07012119144201279,0.13790476322174072,0.1922191083431244,0.37539708614349365,0.1669994294643402,-0.068711068918139,0.016252129613828305,0.9552543239000925
1.9623439311981201,0.11724463105201721,-0.08497901260852814,0.10106480121612549,-0.20325018465518951,0.2861013114452362,0.18316960334777832,-0.06878328850924587,0.019675022273203245,0.9570016162878613
1.973390817642212,0.1056249737739563,-0.10278882086277008,0.08442884683609009,-0.5087053775787354,0.21718408167362213,0.1933118849992752,-0.07238087091263391,0.02231975881037751,0.9589878714801119
1.9823601245880127,0.08948596566915512,-0.0981922373175621,0.07936334609985352,-0.636563241481781,0.19149364531040192,0.20498158037662506,-0.0781919950546776,0.02449872703740305,0.9611088750221355
1.9923529624938965,0.06720776110887527,-0.0965450257062912,0.08087778091430664,-0.5579923987388611,0.1970081627368927,0.22850432991981506,-0.08425520406585417,0.026609777457642363,0.9634411623631898
2.002495050430298,0.0530010387301445,-0.08346529304981232,0.04928243160247803,-0.3799406588077545,0.24272798001766205,0.2324753701686859,-0.08889304191336805,0.02901202391675913,0.9659134012991432
2.012401819229126,0.039984799921512604,-0.06572899222373962,0.013376116752624512,-0.225429505109787,0.275489866733551,0.21854223310947418,-0.09185976266313588,0.0318411326974207,0.9682809454751329
2.023103952407837,0.025701522827148438,-0.057475730776786804,0.0008903145790100098,-0.07701872289180756,0.2994748055934906,0.1830124706029892,-0.09327136696363644,0.034928490819010095,0.9703650822487867
2.0323829650878906,0.025147248059511185,-0.04088836908340454,-0.010586977005004883,-0.004841064102947712,0.2801625430583954,0.13799695670604706,-0.09357679952236866,0.03800167976759314,0.9719976133457583
2.042523145675659,0.01922452449798584,-0.006920486688613892,-0.033226728439331055,0.03153345361351967,0.22843465209007263,0.08689196407794952,-0.09339107354481467,0.040672061623694446,0.9731193891796868
2.0524818897247314,0.0185682475566864,-0.010722406208515167,-0.05045318603515625,0.045947812497615814,0.16066093742847443,0.036837056279182434,-0.092979784473785,0.042679966037180446,0.9737031759590147
2.062685966491699,0.013420600444078445,0.0035193562507629395,-0.07230520248413086,0.03485601395368576,0.10974501818418503,0.02398570626974106,-0.09251470336238425,0.04406406549894102,0.9739947502272872
2.0734059810638428,0.014617379754781723,0.005932524800300598,-0.08037471771240234,0.0023548135068267584,0.09542790800333023,-0.008649096824228764,-0.09232852968813106,0.045084412096789976,0.9740411464140405
2.082474946975708,0.0009825974702835083,0.005999267101287842,-0.06965029239654541,-0.045531753450632095,0.09798268228769302,-0.02893306314945221,-0.09255265918954536,0.046029837603357625,0.9738342008945303
2.0925018787384033,-0.007644284516572952,0.014600507915019989,-0.07142013311386108,-0.082473523914814,0.08677778393030167,-0.036241788417100906,-0.09324701280469729,0.0469436891840161,0.9735266182537935
2.102483034133911,-0.00025927647948265076,-0.0020877867937088013,-0.07624238729476929,-0.09583780169487,0.06955192238092422,-0.0390133410692215,-0.09417706247609013,0.047699893109216435,0.9731877705209785
2.1125271320343018,0.01237216591835022,-0.005718320608139038,-0.06563103199005127,-0.08594963699579239,0.05453599989414215,-0.06881651282310486,-0.09511096640485417,0.04827476594722791,0.9726945124645651
2.123093843460083,0.00926942378282547,0.007488898932933807,-0.06485974788665771,-0.07816441357135773,0.022865692153573036,-0.08438881486654282,-0.09597630775259144,0.04860630645588072,0.9719517981835164
2.1325149536132812,0.007421534508466721,0.023482657968997955,-0.08758825063705444,-0.05250944942235947,-0.0034647160209715366,-0.10888787358999252,-0.0966942465951984,0.04861126648197712,0.9710147479195277
2.1426451206207275,0.018148358911275864,0.02895711362361908,-0.09097599983215332,-0.01962020993232727,-0.01622791402041912,-0.12368093430995941,-0.09712697157316667,0.048383179897324796,0.9698575659020467
2.1526260375976562,0.01704249158501625,0.038609035313129425,-0.0918494462966919,0.03225069120526314,-0.002155106049031019,-0.1288614720106125,-0.09711856107213145,0.04816018131452669,0.9685829508164499
2.163264036178589,0.009824797511100769,0.0360451340675354,-0.07987266778945923,0.056482262909412384,0.006127324886620045,-0.11736779659986496,-0.09670506687992501,0.04806644423656765,0.9673039347055352
2.173125982284546,0.005100518465042114,0.003884255886077881,-0.06973123550415039,0.05620184913277626,0.004619842395186424,-0.09319040179252625,-0.09616384515400564,0.04799655870101639,0.9662231652380775
2.1825289726257324,0.01363445445895195,-0.030040264129638672,-0.05794525146484375,0.04355236887931824,-0.00948798656463623,-0.06755214929580688,-0.09567755617865702,0.047882585064499716,0.9654085961940968
2.1925790309906006,0.01186453178524971,-0.041149526834487915,-0.03320622444152832,0.009016195312142372,-0.014555893838405609,-0.05495539307594299,-0.09538718270555013,0.04772769624220797,0.9647777444762204
2.2025468349456787,0.006029769778251648,-0.044667646288871765,-0.022653579711914062,-0.08011873811483383,-0.03280440717935562,-0.037755101919174194,-0.0957483742245817,0.0474590471305786,0.9643239363941692
2.2125890254974365,0.009800929576158524,-0.04994984716176987,-0.0311354398727417,-0.1645151674747467,-0.04617733880877495,-0.015723252668976784,-0.09703876821289485,0.04704832823965934,0.9641151833972462
2.223724126815796,0.01956353336572647,-0.06514550745487213,-0.016876816749572754,-0.2333078235387802,-0.05853839963674545,-0.0028825541958212852,-0.09907588273930358,0.04655423027868272,0.9641176206238911
2.2327449321746826,0.020489826798439026,-0.06147071719169617,0.002484142780303955,-0.2647653818130493,-0.06551939249038696,0.002539748093113303,-0.10165491939870883,0.04597202781337596,0.9642405069015845
2.2430419921875,0.0212252214550972,-0.05395974963903427,0.007113397121429443,-0.2353249490261078,-0.06408394873142242,0.0007969755097292364,-0.10424371376236782,0.04536701956876476,0.9643818551006859
2.2528069019317627,0.011341165751218796,-0.027683094143867493,-0.007931828498840332,-0.1726040244102478,-0.06921758502721786,-0.010576958768069744,-0.10626805866404855,0.044712546313919216,0.9644321937758148
2.2633309364318848,0.008219745010137558,-0.011704578995704651,-0.0238187313079834,-0.09137680381536484,-0.08317653834819794,-0.0314130000770092,-0.10746249060626434,0.04395884323001572,0.9642791429235616
2.274091958999634,0.008447729051113129,-0.001521095633506775,-0.028739511966705322,-0.035570330917835236,-0.09310844540596008,-0.05272926017642021,-0.10790167416276657,0.04304008086131426,0.9638807528508606
2.283177137374878,0.00893007218837738,0.010346867144107819,-0.018886864185333252,-0.012896178290247917,-0.10098208487033844,-0.067731112241745,-0.10792041492352833,0.042016893907518386,0.9632734407616134
2.2928359508514404,0.00760728120803833,0.004476949572563171,-0.005833625793457031,-0.0039015011861920357,-0.11781064420938492,-0.05705881491303444,-0.10773148613671248,0.04085920372193231,0.962632430008444
2.3025779724121094,0.015266235917806625,-0.0033925101161003113,0.00945514440536499,-0.009482687339186668,-0.11600662022829056,-0.04212141036987305,-0.1073130208488309,0.03970635768728747,0.962142433487474
2.3127291202545166,0.02091607078909874,-0.012588337063789368,0.033297061920166016,-0.03793400153517723,-0.1076611578464508,-0.029878592118620872,-0.10689339604543366,0.03870217281085626,0.9618159398723902
2.3232569694519043,0.01601172238588333,-0.02480844408273697,0.03976786136627197,-0.06329209357500076,-0.0982452854514122,-0.01316272933036089,-0.10675309533194498,0.03786325136898958,0.9616460280074963
2.332674980163574,0.013711590319871902,-0.03321244567632675,0.03551149368286133,-0.0958605408668518,-0.11058952659368515,-0.0030487889889627695,-0.10719452325797217,0.036985690046246196,0.9616005932964931
2.3428549766540527,0.010526172816753387,-0.04564066231250763,0.04081737995147705,-0.12686878442764282,-0.11782853305339813,-0.0021497057750821114,-0.10813833864420212,0.035987460606809796,0.961636916715595
2.3528411388397217,0.006725504994392395,-0.05049370974302292,0.04887235164642334,-0.1470308005809784,-0.12800416350364685,-0.0007597486255690455,-0.10948986238919078,0.03490342878058758,0.9616978849441534
2.362865924835205,0.0009163729846477509,-0.05329618602991104,0.04746788740158081,-0.1549483835697174,-0.13418056070804596,-0.009665891528129578,-0.11109665624495473,0.03376831944075148,0.9617144903214667
2.3737828731536865,0.0022896453738212585,-0.04827680438756943,0.037257611751556396,-0.1257430911064148,-0.1341758519411087,-0.00048347230767831206,-0.11257147963651143,0.03254478004330861,0.9617338926909482
2.3828561305999756,0.005648069083690643,-0.041673190891742706,0.04280686378479004,-0.0872095376253128,-0.10947263985872269,0.0022558551281690598,-0.11357313477276429,0.03154821750105057,0.9617799243593804
2.393481969833374,-0.004019046202301979,-0.0445237010717392,0.056657373905181885,-0.04008583724498749,-0.09015922248363495,0.014280293136835098,-0.11409240044936837,0.03077478018113621,0.9619068418867438
2.402888059616089,0.0027157440781593323,-0.04389287531375885,0.0411677360534668,-0.02096620574593544,-0.07684554904699326,0.013116758316755295,-0.11414859561098879,0.030123906275429123,0.9620817431697737
2.4128620624542236,0.01295045018196106,-0.02303251624107361,0.02805614471435547,-0.02099659852683544,-0.0878375694155693,-0.0018461586441844702,-0.11410090707773544,0.029420899004263486,0.9621707549939734
2.423198938369751,0.013397155329585075,-0.0023726224899291992,0.02314537763595581,-0.021189942955970764,-0.10686399042606354,-0.022787924855947495,-0.11403999249626386,0.028509931676819547,0.9620606075949787
2.432853937149048,0.017694178968667984,0.02442304790019989,0.014141976833343506,-0.010340625420212746,-0.12663431465625763,-0.05877133458852768,-0.11393123577596286,0.02733251735458674,0.9616733681207268
2.4429969787597656,0.018405480310320854,0.043462879955768585,0.006907641887664795,-0.005383683368563652,-0.14889195561408997,-0.10463176667690277,-0.1137500943611487,0.025862959598731812,0.960862530888319
2.4528889656066895,0.016681937500834465,0.057001739740371704,-0.010699570178985596,-0.002417537849396467,-0.16941191256046295,-0.16018977761268616,-0.11357680784762435,0.02414113326828958,0.9595256564703597
2.463120937347412,0.015169227495789528,0.06837859749794006,-0.019781529903411865,0.028529992327094078,-0.18321667611598969,-0.19238100945949554,-0.11332198230533876,0.022207001984538323,0.9577428089925694
2.47334885597229,0.011229107156395912,0.06973536312580109,-0.011191070079803467,0.08678746968507767,-0.17263789474964142,-0.21456433832645416,-0.11261684876968175,0.020196498314136065,0.9556749332593782
2.4832849502563477,0.0038757119327783585,0.05999526381492615,0.007746219635009766,0.127866730093956,-0.15480242669582367,-0.2245621234178543,-0.1114241709414537,0.01833425674641218,0.9534460223518443
2.49383282661438,0.000673176720738411,0.051406122744083405,0.00363999605178833,0.13753370940685272,-0.1385517418384552,-0.23545870184898376,-0.11004086754569509,0.016686738003171414,0.9511180053215283
2.5030269622802734,0.005432608537375927,0.05780034512281418,-0.005395412445068359,0.09866407513618469,-0.1369123011827469,-0.26063355803489685,-0.10888876754167336,0.015135427858646583,0.9486184624615481
2.5130889415740967,0.00510643795132637,0.060603298246860504,-0.0031058192253112793,0.03429713472723961,-0.16849331557750702,-0.300636887550354,-0.10840228828034491,0.013421140490480389,0.9458031837136007
2.523376941680908,0.011291682720184326,0.055833540856838226,0.00016385316848754883,-0.04541953280568123,-0.2209852784872055,-0.36187654733657837,-0.10874903723500563,0.011251737033981515,0.9424923289952194
2.5331039428710938,0.02137308567762375,0.06443986296653748,-0.005284905433654785,-0.09616179019212723,-0.2845518887042999,-0.43483129143714905,-0.10985389100681009,0.008433001683571096,0.9385297078246774
2.543048143386841,0.021634792909026146,0.06461545825004578,-0.014844894409179688,-0.13808713853359222,-0.34986403584480286,-0.5115060806274414,-0.11151954094649393,0.004900699921285706,0.9337787953655152
2.553006887435913,0.02334655448794365,0.06038239598274231,-0.02225208282470703,-0.15761351585388184,-0.40037649869918823,-0.5848372578620911,-0.11304616648449173,0.0005066798286265326,0.9282574188040834
2.5631589889526367,0.03447634354233742,0.04998774826526642,-0.025347888469696045,-0.17384442687034607,-0.4378639757633209,-0.6443485617637634,-0.11469293430116889,-0.004414524124512505,0.9220595187051702
2.574162006378174,0.04289191588759422,0.041257552802562714,-0.018943309783935547,-0.2002020925283432,-0.46347755193710327,-0.7034544944763184,-0.11652311803286106,-0.009708495988156,0.9152645138559551
2.5830769538879395,0.05240967497229576,0.03166060894727707,0.0013172626495361328,-0.25346770882606506,-0.47881948947906494,-0.7590557336807251,-0.11868873712619128,-0.015301227629651167,0.9078451768978839
2.593294858932495,0.0664343535900116,0.03270222246646881,0.026508808135986328,-0.34324946999549866,-0.49023720622062683,-0.8150215744972229,-0.12151269217874913,-0.021104579098134218,0.8998629958092592
2.6030850410461426,0.08529584854841232,0.03577839583158493,0.05253833532333374,-0.4567373991012573,-0.5039237141609192,-0.8795773983001709,-0.12531665379666387,-0.027131295797170142,0.891220629885637
2.6132428646087646,0.10600712895393372,0.03351035714149475,0.0776943564414978,-0.605736494064331,-0.5286093354225159,-0.9683634638786316,-0.13032637764191135,-0.03349724772643226,0.8817539159995387
2.6234500408172607,0.12942363321781158,0.04229098558425903,0.10058057308197021,-0.7663434743881226,-0.5527753829956055,-1.0911219120025635,-0.13683198335868446,-0.04033344898556477,0.8711091224800834
2.6331329345703125,0.16442157328128815,0.04990774393081665,0.11404848098754883,-0.9027712345123291,-0.5698056221008301,-1.2386212348937988,-0.14471992131823497,-0.04765811068063431,0.8589992859844079
2.6431968212127686,0.20432353019714355,0.06910702586174011,0.13359355926513672,-0.9004782438278198,-0.5678569674491882,-1.3794782161712646,-0.15318707391454595,-0.05540268989251844,0.8452729360783812
2.6531169414520264,0.21512389183044434,0.07929043471813202,0.16656053066253662,-0.7683684825897217,-0.5536097884178162,-1.535202145576477,-0.16068925891874514,-0.0634096378004877,0.8300265977691759
2.663130044937134,0.209278404712677,0.08713090419769287,0.1758052110671997,-0.5748277902603149,-0.5338658690452576,-1.674843192100525,-0.16636754827688413,-0.071593869688493,0.8132948341780831
2.673887014389038,0.22579437494277954,0.09213241934776306,0.15246737003326416,-0.29551056027412415,-0.49595770239830017,-1.7686562538146973,-0.1694507958737602,-0.07974147757056506,0.7955103687286657
2.6831858158111572,0.25149041414260864,0.10870493948459625,0.12107497453689575,-0.017880283296108246,-0.4387096166610718,-1.8756463527679443,-0.1694647840330592,-0.08755599952196465,0.7769406395151953
2.693312883377075,0.21931467950344086,0.13428530097007751,0.09781312942504883,0.1674642562866211,-0.39295077323913574,-1.9813648462295532,-0.16688883087921194,-0.09496567436968292,0.7575147380508497
2.7033350467681885,0.21800322830677032,0.151031032204628,0.07476872205734253,0.2483905404806137,-0.3661663234233856,-2.0755577087402344,-0.1627673195686042,-0.10209558096696907,0.7372209777305433
2.7132890224456787,0.24038441479206085,0.17229413986206055,0.06304353475570679,0.32392197847366333,-0.34569916129112244,-2.1426053047180176,-0.15770521508978233,-0.10899990005490467,0.7162556257031545
2.7239179611206055,0.243088036775589,0.19130995869636536,0.05791163444519043,0.3868444859981537,-0.33539697527885437,-2.2306175231933594,-0.1516789806535561,-0.11571938249766892,0.6946499338950384
2.733304023742676,0.24193772673606873,0.2099188268184662,0.05622518062591553,0.38359013199806213,-0.35136741399765015,-2.3098528385162354,-0.1451134374142483,-0.12243292191300051,0.672295373661483
2.7434399127960205,0.2495204508304596,0.21124878525733948,0.04532045125961304,0.2550199031829834,-0.38316529989242554,-2.3850834369659424,-0.1389453626464039,-0.12935869347948287,0.6491369702461327
2.7535459995269775,0.2791273593902588,0.191452756524086,0.03574264049530029,0.22513271868228912,-0.4274895191192627,-2.412533760070801,-0.13346787961652914,-0.13667520382354145,0.6254170554058456
2.7634270191192627,0.26134544610977173,0.13525626063346863,0.029842853546142578,0.3102055490016937,-0.4286373555660248,-2.4598851203918457,-0.127464303950457,-0.14408101058109649,0.6014372298411649
2.7743239402770996,0.20297649502754211,0.13074782490730286,-0.011866152286529541,0.3540423512458801,-0.44799861311912537,-2.4918675422668457,-0.12047500264683322,-0.1514405402236128,0.5772139165169258
2.7834420204162598,0.2078462392091751,0.16098055243492126,-0.0655410885810852,0.358456015586853,-0.4816359579563141,-2.494591474533081,-0.1130954358892934,-0.15892707414066143,0.552914306732893
2.7934110164642334,0.23696745932102203,0.12950628995895386,-0.08844763040542603,0.36295226216316223,-0.4980017840862274,-2.507779359817505,-0.1055076666636992,-0.16648266142793525,0.5286647466461455
2.8033769130706787,0.23577626049518585,0.09753618389368057,-0.10266965627670288,0.33451077342033386,-0.5048093199729919,-2.528139114379883,-0.09774963946170921,-0.17398711719446702,0.5042990969134641
2.81341290473938,0.233724907040596,0.09526678919792175,-0.09267622232437134,0.22736990451812744,-0.48789674043655396,-2.5484044551849365,-0.09048061402472103,-0.18128486253203596,0.47967879241030775
2.8239049911499023,0.2246602475643158,0.091912642121315,-0.04830658435821533,0.16227690875530243,-0.4627770185470581,-2.5485146045684814,-0.08392214740860106,-0.18820439367420755,0.4548591743473921
2.833449125289917,0.19648639857769012,0.08465752005577087,-0.009768366813659668,0.1605924665927887,-0.41441452503204346,-2.556609869003296,-0.07749973851893882,-0.19461557581242234,0.4299856789791917
2.8434741497039795,0.1687214970588684,0.11413029581308365,0.0033878087997436523,0.18651434779167175,-0.369468629360199,-2.524890422821045,-0.07089697352288862,-0.20032841285840647,0.40525952389682857
2.853379011154175,0.1409737765789032,0.11950328201055527,-0.01422339677810669,0.3948175311088562,-0.3670838177204132,-2.4735944271087646,-0.06309557838560116,-0.2056156643997742,0.38129176954702987
2.863550901412964,0.09851224720478058,0.06532186269760132,-0.007150530815124512,0.5620091557502747,-0.3367546498775482,-2.4926722049713135,-0.05318856219792216,-0.21052790918982336,0.3579749957071855
2.8741049766540527,0.05841028690338135,0.0486522912979126,-0.021363675594329834,0.5799177289009094,-0.29667186737060547,-2.5122463703155518,-0.04225774449017139,-0.21478927254472194,0.33466242183674244
2.883484125137329,0.04427056014537811,0.07037627696990967,-0.04985755681991577,0.5597205758094788,-0.28750258684158325,-2.5092713832855225,-0.03128373031072869,-0.21856755728700847,0.311303662302715
2.893517017364502,0.05094422399997711,0.031117137521505356,-0.038224637508392334,0.4836967885494232,-0.2660600244998932,-2.50846266746521,-0.020688777829423313,-0.2219372340543596,0.28793410167102174
2.903549909591675,0.06315501034259796,0.021394550800323486,-0.04082930088043213,0.39568623900413513,-0.2641225755214691,-2.5025248527526855,-0.010833074984635597,-0.22494187228612178,0.2644440437964787
2.913648843765259,0.06784556806087494,0.03283289819955826,-0.04982858896255493,0.3233474791049957,-0.2507261037826538,-2.475520133972168,-0.001759627227504015,-0.22769092845598293,0.24096388142935465
2.9238409996032715,0.04485395550727844,0.006845963653177023,-0.04686170816421509,0.25400274991989136,-0.18559101223945618,-2.4498889446258545,0.006631538250159162,-0.2298612503925361,0.21760278660185728
2.933450937271118,-0.004687875509262085,-0.018630515784025192,-0.05242544412612915,0.17215979099273682,-0.07740503549575806,-2.4122138023376465,0.014282334771702569,-0.23096510576928483,0.19437738093355542
2.9434001445770264,-0.04688648879528046,-0.049184512346982956,-0.058639585971832275,0.12435419112443924,-0.027636408805847168,-2.3541338443756104,0.021113451888176177,-0.23100096204972434,0.1715085846191709
2.953352928161621,-0.06647047400474548,-0.12060271948575974,-0.04154562950134277,0.13057932257652283,0.04485803097486496,-2.330716848373413,0.02766962684299016,-0.23043559738414743,0.14893606646434407
2.9635961055755615,-0.08671458065509796,-0.1938079595565796,0.029653429985046387,0.16660283505916595,0.14730744063854218,-2.3146488666534424,0.03440844871253252,-0.2287957613339094,0.1266450112826632
2.975177049636841,-0.1127387285232544,-0.19716903567314148,0.0775531530380249,0.14837110042572021,0.24315062165260315,-2.331836700439453,0.04121460222467459,-0.22597903214027243,0.10435952213801866
2.9834909439086914,-0.11894997954368591,-0.16936226189136505,0.09375405311584473,0.021832607686519623,0.3437267541885376,-2.3670363426208496,0.047314113887117905,-0.22206068161998674,0.08158081921674921
2.993511915206909,-0.1002415120601654,-0.13767209649085999,0.10376572608947754,-0.09748446196317673,0.3994518220424652,-2.347430944442749,0.05206310619888325,-0.2171367541310274,0.05840682783291797
3.0035808086395264,-0.0657203197479248,-0.12175476551055908,0.1436140537261963,-0.19901135563850403,0.443145751953125,-2.3085360527038574,0.0555648698117405,-0.21171014918821857,0.035285539943645416
3.0136830806732178,-0.04189591109752655,-0.11201997101306915,0.17239880561828613,-0.28818023204803467,0.5105056762695312,-2.276592969894409,0.057857063040871265,-0.20560372948507263,0.012278671305336388
3.025177001953125,-0.044594064354896545,-0.09156806021928787,0.17327779531478882,-0.3449303209781647,0.6039770245552063,-2.2501461505889893,0.05937543300840732,-0.19872826896841378,-0.010608545143212219
3.033996820449829,-0.0561213344335556,-0.07266204059123993,0.15405577421188354,-0.44095224142074585,0.7331910729408264,-2.1779627799987793,0.05977325751395374,-0.19068649360200005,-0.03319265905694098
3.0436861515045166,-0.044249072670936584,-0.03090047463774681,0.14542436599731445,-0.5044670104980469,0.7982707619667053,-2.1031150817871094,0.05903779591902897,-0.18164198911293591,-0.05516149109335138
3.053622007369995,-0.021534964442253113,-0.05194573849439621,0.16826480627059937,-0.4983177185058594,0.7862076759338379,-2.0290749073028564,0.0577351941455722,-0.17244524394713873,-0.07644432999006759
3.063575029373169,-0.008619293570518494,-0.12793488800525665,0.1639922857284546,-0.4445916414260864,0.7456698417663574,-1.9463802576065063,0.05631344445970207,-0.16360219497841177,-0.09690848104037376
3.0739619731903076,0.008126392960548401,-0.156324565410614,0.14201438426971436,-0.3786984384059906,0.7330172657966614,-1.878403902053833,0.055327015971179005,-0.1551178800926114,-0.11647019280344578
3.0836589336395264,0.02442440390586853,-0.15888278186321259,0.10175848007202148,-0.33578959107398987,0.7270938754081726,-1.8064852952957153,0.05455292580855436,-0.1467813693159561,-0.1352900960048884
3.0937368869781494,0.025793269276618958,-0.16190563142299652,0.08260947465896606,-0.36782151460647583,0.7015049457550049,-1.7190428972244263,0.053634445438989854,-0.1386338877762421,-0.15328079726677643
3.103727102279663,0.014426752924919128,-0.19073353707790375,0.09235066175460815,-0.45326903462409973,0.6690055727958679,-1.6100484132766724,0.0518120729441616,-0.1308813727276136,-0.17038675836001185
3.1137099266052246,-0.002133600413799286,-0.20219466090202332,0.11198800802230835,-0.5278400182723999,0.6564899682998657,-1.485781192779541,0.04890745377543688,-0.12348019866468542,-0.1863901520420062
3.1237339973449707,-0.014874815940856934,-0.19383081793785095,0.09958440065383911,-0.7435590028762817,0.6901379823684692,-1.3785138130187988,0.04435741781532861,-0.11602326718194549,-0.20141641210591377
3.133650064468384,-0.021449677646160126,-0.17287687957286835,0.052713871002197266,-0.9066584706306458,0.6599674224853516,-1.2346745729446411,0.03754989986203722,-0.10864731748815633,-0.21535906750970848
3.1438000202178955,-0.01863320916891098,-0.1812744438648224,0.06698387861251831,-1.0058014392852783,0.5959205627441406,-1.1314995288848877,0.029239237636594674,-0.10194855147255424,-0.22812029484053042
3.153615951538086,-0.025328613817691803,-0.2312210500240326,0.08703827857971191,-1.0434309244155884,0.569733202457428,-1.0458476543426514,0.020046043606443537,-0.09583989607817026,-0.240016969654881
3.163684129714966,-0.0427006334066391,-0.2186829298734665,0.08563113212585449,-0.9925076961517334,0.5662399530410767,-0.9263718128204346,0.010762959436364464,-0.09001012233291669,-0.2508107038776354
3.173722982406616,-0.04503757506608963,-0.17683537304401398,0.061179518699645996,-0.9162611961364746,0.5703358054161072,-0.8169887065887451,0.0019663947672535808,-0.0842435497293523,-0.2603212983835323
3.1836040019989014,-0.03427274525165558,-0.1615816205739975,0.007630646228790283,-0.7602061033248901,0.5378901958465576,-0.7337353825569153,-0.005805394504806689,-0.07869473738235311,-0.268732129086348
3.193624973297119,-0.025335043668746948,-0.1792958825826645,-0.018285095691680908,-0.5636982321739197,0.48042115569114685,-0.6694348454475403,-0.011892715279197748,-0.07365993494415445,-0.2762397769242116
3.2036898136138916,-0.022098705172538757,-0.19879618287086487,-0.034794628620147705,-0.36948803067207336,0.43568670749664307,-0.6061208248138428,-0.01608884891304116,-0.0691982198605208,-0.28294885232892236
3.2136518955230713,-0.03287939727306366,-0.19372297823429108,-0.043599843978881836,-0.22115923464298248,0.44594499468803406,-0.5149998664855957,-0.01863017290678687,-0.06491044401859282,-0.28876757715548546
3.2237889766693115,-0.05226077884435654,-0.17439934611320496,-0.05549651384353638,-0.15283051133155823,0.4600978493690491,-0.40748804807662964,-0.02015033304317882,-0.060459680110247944,-0.29348932363762864
3.233630895614624,-0.05948835611343384,-0.15534771978855133,-0.05864977836608887,-0.16784188151359558,0.4517272710800171,-0.3054736852645874,-0.02148473382251862,-0.05595643891553841,-0.2971419962988798
3.2438559532165527,-0.05005447566509247,-0.15179342031478882,-0.042578160762786865,-0.2592378258705139,0.4190894067287445,-0.19865429401397705,-0.023454615311520783,-0.05165247133108572,-0.29978169709187735
3.2537190914154053,-0.03466683626174927,-0.1568945348262787,-0.026425600051879883,-0.38123300671577454,0.3649391233921051,-0.09586581587791443,-0.026557792298877277,-0.04776609605406936,-0.30138163630447334
3.263684034347534,-0.014958292245864868,-0.15635542571544647,-0.017319440841674805,-0.521859884262085,0.31486424803733826,-0.01324150525033474,-0.031040680262304166,-0.0443737676208269,-0.3021151414458041
3.2738540172576904,0.0006092935800552368,-0.1500539779663086,-0.025224745273590088,-0.6361494660377502,0.24563077092170715,0.04392228648066521,-0.036888613264128914,-0.04155880625810091,-0.30220118835424353
3.283726930618286,0.007094301283359528,-0.1375683695077896,-0.03591465950012207,-0.6609112620353699,0.18292690813541412,0.08185742050409317,-0.043451286625126824,-0.0394145117166439,-0.30180827151773887
3.293712854385376,0.008086692541837692,-0.11024685949087143,-0.04914045333862305,-0.6365113854408264,0.1497422307729721,0.10067553073167801,-0.049996180682579605,-0.03773004150518135,-0.30114680678281075
3.3036789894104004,-0.00024505332112312317,-0.07774108648300171,-0.07058829069137573,-0.5548631548881531,0.12119847536087036,0.11318253725767136,-0.05604261521640771,-0.03633472640900007,-0.300291365723961
3.3142478466033936,-0.010828528553247452,-0.061475906521081924,-0.07863497734069824,-0.4839315414428711,0.10671669989824295,0.10840162634849548,-0.06128609211039652,-0.035143576119635984,-0.2993835311502452
3.323918104171753,-0.019223403185606003,-0.04928159713745117,-0.09402889013290405,-0.379451721906662,0.07529272884130478,0.10879018157720566,-0.0656410853456071,-0.03415620128482209,-0.2984385212753403
3.3341381549835205,-0.02264506369829178,-0.03617091476917267,-0.09802013635635376,-0.29566246271133423,0.0421752966940403,0.11409834027290344,-0.0690481410203895,-0.03350228092573508,-0.2974423127417127
3.344330072402954,-0.024317089468240738,-0.04276162385940552,-0.10251355171203613,-0.23322626948356628,0.013277867808938026,0.11910881102085114,-0.07170866443857528,-0.03314767057098393,-0.2963691302535008
3.353935956954956,-0.02701115608215332,-0.061255164444446564,-0.11782646179199219,-0.21337787806987762,-0.012717559933662415,0.12771742045879364,-0.07395756361105933,-0.033068016240522496,-0.2952217436801766
3.364311933517456,-0.03208046779036522,-0.0780218243598938,-0.12000036239624023,-0.23929814994335175,-0.023288976401090622,0.15878427028656006,-0.0762500865275084,-0.03316217998637847,-0.293871124923235
3.374907970428467,-0.036438409239053726,-0.07563666999340057,-0.11126941442489624,-0.27704426646232605,-0.040829263627529144,0.19001802802085876,-0.0788930217430121,-0.033343555162146654,-0.29219224791210047
3.3841488361358643,-0.03721003606915474,-0.08989927172660828,-0.09044361114501953,-0.3299202620983124,-0.07345059514045715,0.21656015515327454,-0.08198091913549842,-0.03375674613802644,-0.2902455189003187
3.395416021347046,-0.034646742045879364,-0.11323286592960358,-0.06788402795791626,-0.3778548836708069,-0.10906486213207245,0.2405972182750702,-0.08561290700423155,-0.03448708199764078,-0.2880663675057923
3.4040839672088623,-0.02943217009305954,-0.11455898731946945,-0.048633575439453125,-0.43621647357940674,-0.15052682161331177,0.25657379627227783,-0.08977792340458896,-0.035584192484568504,-0.2857102078989824
3.4140989780426025,-0.028498604893684387,-0.11123970150947571,-0.034667134284973145,-0.4784765839576721,-0.18779981136322021,0.2712039351463318,-0.0944588317771415,-0.03705941476519253,-0.28321622897852067
3.424474000930786,-0.030927468091249466,-0.10990633070468903,-0.033390164375305176,-0.5045875310897827,-0.21231473982334137,0.27639123797416687,-0.09949679617489936,-0.038824263749265474,-0.2806499217556991
3.434144973754883,-0.03289034590125084,-0.10764653235673904,-0.04454958438873291,-0.4987524151802063,-0.22029103338718414,0.28427064418792725,-0.10464907621673172,-0.04073896031235491,-0.2780321158745119
3.4441609382629395,-0.03454335033893585,-0.09503071755170822,-0.06009411811828613,-0.4592265784740448,-0.2201823741197586,0.2976756691932678,-0.10957860638705993,-0.04266064258255675,-0.27531563307183554
3.4541871547698975,-0.03686670958995819,-0.07744964957237244,-0.06887894868850708,-0.3980369567871094,-0.22020381689071655,0.3124889135360718,-0.11401314287782315,-0.04453798988872748,-0.2724315448407211
3.4640800952911377,-0.03322708234190941,-0.06190859526395798,-0.07371020317077637,-0.310952365398407,-0.22421613335609436,0.32098254561424255,-0.11772304250874183,-0.04641106355100752,-0.26939507222458525
3.47442889213562,-0.023106258362531662,-0.051043085753917694,-0.07029193639755249,-0.22367942333221436,-0.23790700733661652,0.3289814591407776,-0.12054944933590182,-0.04835450830194834,-0.2662553988823726
3.4841301441192627,-0.012867260724306107,-0.049257680773735046,-0.06517773866653442,-0.1649005264043808,-0.23427045345306396,0.3386971950531006,-0.12262457624617122,-0.05033743713533629,-0.2629904956446871
3.4941489696502686,-0.009172286838293076,-0.04483930021524429,-0.05461090803146362,-0.12760746479034424,-0.22586867213249207,0.3453109860420227,-0.12426112293463437,-0.05222853615789156,-0.25960873783574534
3.5042431354522705,-0.01056140661239624,-0.048943713307380676,-0.039130568504333496,-0.14070728421211243,-0.22405612468719482,0.34738025069236755,-0.12575266050075223,-0.054055196803785205,-0.25620232900970413
3.5141899585723877,-0.01029008999466896,-0.052477627992630005,-0.030083894729614258,-0.16620656847953796,-0.24369335174560547,0.3584420382976532,-0.12748465498794903,-0.05595880010555642,-0.2527317813335941
3.52457594871521,0.0023702606558799744,-0.0398692786693573,-0.01834845542907715,-0.19943243265151978,-0.2723577320575714,0.3565381169319153,-0.12951094114952438,-0.05809593352317158,-0.2492087045120618
3.5344440937042236,0.011201784014701843,-0.03147822618484497,-0.009568870067596436,-0.2375943511724472,-0.2878689467906952,0.33188319206237793,-0.13191308324575926,-0.0604701497531157,-0.24586402523774628
3.5451810359954834,0.008569389581680298,-0.020363211631774902,0.006247520446777344,-0.20712751150131226,-0.2926517128944397,0.3008381724357605,-0.1343696115475435,-0.06299670257541885,-0.24281287007161
3.554237127304077,-0.00017174333333969116,-0.011114031076431274,0.017122089862823486,-0.17850397527217865,-0.2470678836107254,0.24775142967700958,-0.13646160954825026,-0.06536279362253995,-0.24016450165724396
3.5643560886383057,-0.011807642877101898,0.0056444257497787476,0.002765357494354248,-0.14159734547138214,-0.19094973802566528,0.19262346625328064,-0.13821330424844785,-0.06726891161459037,-0.23804496338800224
3.5746009349823,-0.020895160734653473,0.01946970820426941,-0.0031601786613464355,-0.10283225774765015,-0.13926155865192413,0.13076429069042206,-0.13953748685193423,-0.06870905873315855,-0.23648770109795003
3.5843119621276855,-0.0271279439330101,0.001466989517211914,-0.008153080940246582,-0.04962310194969177,-0.0953550934791565,0.07179711759090424,-0.14036692150305113,-0.06974477545594672,-0.23553066417755728
3.5944268703460693,-0.03006269782781601,-0.009121373295783997,-0.014005303382873535,0.008656967431306839,-0.06105930358171463,0.023023556917905807,-0.14061223203516496,-0.0704681645930982,-0.23508251769111876
3.6043829917907715,-0.02627168595790863,0.0010489672422409058,-0.0045607686042785645,0.07331638783216476,-0.016611943021416664,-0.00782916322350502,-0.14020350289375466,-0.07085722210002113,-0.2349930978615994
3.6143758296966553,-0.027041122317314148,0.007987946271896362,0.004649162292480469,0.12704293429851532,0.03451977297663689,-0.01932315155863762,-0.13919031225307513,-0.07077874728831639,-0.2350504505942103
3.6246578693389893,-0.031090959906578064,0.003462180495262146,0.008812129497528076,0.17057283222675323,0.06667930632829666,-0.03167622536420822,-0.13768975649986034,-0.07027886183047645,-0.23519627797825338
3.6343579292297363,-0.02736460417509079,-0.0034212619066238403,0.016131460666656494,0.18707208335399628,0.09113156795501709,-0.05231524631381035,-0.13585860116281348,-0.0695387609039037,-0.23548245760797637
3.6444098949432373,-0.019992634654045105,-0.005521371960639954,0.01894313097000122,0.1887677162885666,0.11521506309509277,-0.0683024674654007,-0.13392809843958914,-0.0685810734929088,-0.2359701912683255
3.6544148921966553,-0.01653940975666046,-0.005861148238182068,0.012096166610717773,0.19259263575077057,0.14558477699756622,-0.08874430507421494,-0.1319771075995907,-0.06736454063167464,-0.23662077692249353
3.664585828781128,-0.01985049992799759,-0.013891160488128662,0.010232686996459961,0.1839672029018402,0.16546660661697388,-0.11864281445741653,-0.13002642010841492,-0.06592836613420935,-0.23754046630587233
3.6746699810028076,-0.02318042516708374,-0.026729777455329895,0.0038944482803344727,0.1785815954208374,0.1769905537366867,-0.13706539571285248,-0.1281244863377344,-0.06436676079495697,-0.23872627766534424
3.6844818592071533,-0.01844993606209755,-0.023064792156219482,-0.0026856660842895508,0.16785277426242828,0.17945557832717896,-0.13805848360061646,-0.12630637644162634,-0.06274915538416492,-0.24001179151230498
3.694540023803711,-0.01003505289554596,-0.009735077619552612,-0.012164831161499023,0.15049096941947937,0.1763443797826767,-0.1278272569179535,-0.12542080751877074,-0.0621330883210779,-0.24138398154545893
3.704486131668091,-0.005318403244018555,-0.0055093467235565186,-0.015504300594329834,0.12887941300868988,0.16350527107715607,-0.11229464411735535,-0.12469897740066599,-0.06182099410006514,-0.24266224652541118
3.7145378589630127,-0.0003868304193019867,-0.010919369757175446,-0.01129615306854248,0.11144444346427917,0.14688782393932343,-0.10178708285093307,-0.12390782904267233,-0.0614789534638989,-0.2437961456343363
3.72501802444458,0.0018898434937000275,-0.014953836798667908,-0.0016192793846130371,0.1018219143152237,0.1323152631521225,-0.08912988007068634,-0.12311446816540053,-0.06102932136423233,-0.24479224152345322
3.7344789505004883,0.0007855482399463654,-0.011038534343242645,0.004806220531463623,0.08803404867649078,0.1158972755074501,-0.08116564154624939,-0.12233662784932663,-0.06055567986724752,-0.24567362212147073
3.744614839553833,0.0007155947387218475,-0.002495996654033661,0.00864797830581665,0.08201903104782104,0.10121899843215942,-0.07812324911355972,-0.12138590941021005,-0.060247018399185955,-0.24650740600827506
3.754621982574463,0.0006636381149291992,0.0024334117770195007,0.010545015335083008,0.07334751635789871,0.09082619100809097,-0.08025489002466202,-0.12004784819276705,-0.06004622937535312,-0.24733379114234166
3.7646801471710205,-0.0008210018277168274,0.001653328537940979,0.00788789987564087,0.0552300289273262,0.07794634252786636,-0.08690613508224487,-0.11891248425538611,-0.05978714114655996,-0.24819186137366855
3.7747180461883545,-0.0013465732336044312,0.002839401364326477,0.0032675862312316895,0.0410078801214695,0.06756240874528885,-0.08796059340238571,-0.1182865847558211,-0.05943718076239923,-0.24907916873322752
3.784449815750122,-0.0039952583611011505,0.006718665361404419,-0.00044411420822143555,0.03252837806940079,0.06445423513650894,-0.08803169429302216,-0.11786816247522373,-0.059040430027009164,-0.24995950795520427
3.794703960418701,-0.007330410182476044,0.011310428380966187,0.0006355643272399902,0.027677780017256737,0.05987914651632309,-0.08696584403514862,-0.11736226106631638,-0.05855096329545438,-0.2508328653549143
3.8047080039978027,-0.008321579545736313,0.01252436637878418,0.003855109214782715,0.022696603089571,0.05224146693944931,-0.0843474268913269,-0.11681595838647975,-0.05807077477561149,-0.25168111169965707
3.8147170543670654,-0.005569417029619217,0.012965351343154907,0.008193016052246094,0.018201688304543495,0.04719255864620209,-0.08322421461343765,-0.11643341132491414,-0.05770447150789457,-0.2525143642376183
3.824849843978882,-0.0028003081679344177,0.010406196117401123,0.00883185863494873,0.016450924798846245,0.037838470190763474,-0.08528603613376617,-0.11632151249415133,-0.05743405549143122,-0.2533590648457382
3.834644079208374,-0.002532046288251877,0.010474838316440582,0.010132551193237305,0.030614130198955536,0.029486043378710747,-0.09127259999513626,-0.1162370475620901,-0.05727316199892143,-0.2542356688404146
3.8447368144989014,-0.000870048999786377,0.010151728987693787,0.01030421257019043,0.031147561967372894,0.034832604229450226,-0.09804022312164307,-0.11599394984287917,-0.05716260791114134,-0.25518172315491494
3.854749917984009,-0.0028131939470767975,0.005278833210468292,0.0026875734329223633,0.022064784541726112,0.030719798058271408,-0.10185270011425018,-0.11581498271521343,-0.05703299723007453,-0.2561911308319694
3.8650858402252197,-0.004197698086500168,0.00025069713592529297,0.0015303492546081543,0.01345132291316986,0.02042960934340954,-0.10376165062189102,-0.1157922987653179,-0.05703692799956895,-0.2572355481769991
3.8747849464416504,-0.0057400912046432495,-0.00815603882074356,0.002416849136352539,0.0014199272263795137,0.016550270840525627,-0.09907715767621994,-0.11597577771428927,-0.05717536421159764,-0.2582754749863551
3.8846828937530518,-0.006612591445446014,-0.007778793573379517,-0.000574648380279541,-0.010563498362898827,0.01686292700469494,-0.0908527821302414,-0.11630264759216893,-0.05732865400327816,-0.25926070478356317
3.894749879837036,-0.006664708256721497,-0.009185709059238434,0.0012019872665405273,-0.014090788550674915,0.014131855219602585,-0.086391881108284,-0.1167205735843331,-0.05743278804192065,-0.2601772139211714
3.904695987701416,-0.01011008769273758,-0.01938052475452423,0.008319377899169922,-0.008038222789764404,0.013351015746593475,-0.07769186794757843,-0.11702980263246147,-0.05748418311288429,-0.2610215850632352
3.9148828983306885,-0.009133104234933853,-0.019140131771564484,0.00561898946762085,-0.001968512311577797,0.015268847346305847,-0.07325179129838943,-0.11727940319839521,-0.05750168700866145,-0.26179497598687185
3.92546010017395,-0.002402719110250473,-0.008608691394329071,-0.004724442958831787,0.015186239033937454,0.0105928685516119,-0.07174577564001083,-0.11739941510736182,-0.057488380133413966,-0.2625221344501419
3.9352669715881348,0.001533273607492447,-0.009732857346534729,-0.002468109130859375,0.021119944751262665,0.004951450042426586,-0.07317903637886047,-0.1172561277830122,-0.057548185702369845,-0.26324933266269196
3.9470739364624023,0.002091929316520691,-0.01618661731481552,0.0002396106719970703,0.016016796231269836,0.0020105214789509773,-0.066164530813694,-0.11700958458933271,-0.05766366422284052,-0.2639505543681503
3.95739483833313,0.0034797415137290955,-0.011045195162296295,-0.0011210441589355469,0.00459394883364439,-0.002491152845323086,-0.06079522892832756,-0.11668775137506797,-0.05783001109847496,-0.2646018814364049
3.964977979660034,0.005376327782869339,-0.011524051427841187,0.004350721836090088,-0.004722587298601866,-0.0070438263937830925,-0.06036059930920601,-0.11649389453365798,-0.05806406178446581,-0.2652216628680371
3.974868059158325,0.004780523478984833,-0.022463910281658173,0.013124704360961914,-0.01411340944468975,-0.007896171882748604,-0.0542633980512619,-0.11637030003191605,-0.058308730771632226,-0.2658224580171549
3.9848480224609375,0.003539443016052246,-0.020492032170295715,0.012628138065338135,-0.01898672804236412,-0.006132892332971096,-0.045493077486753464,-0.11616706213503927,-0.058594559300444736,-0.2663505433959036
3.994771957397461,0.0077757202088832855,-0.012061811983585358,0.006856799125671387,-0.00973414070904255,-0.007113379891961813,-0.04384005442261696,-0.11594457968422398,-0.05883354386701364,-0.26680995744303787
4.004770040512085,0.00959879532456398,-0.01173257827758789,0.005127608776092529,0.004426686093211174,-0.004975393880158663,-0.04492449387907982,-0.11579746152881573,-0.05894759743382143,-0.2672558562636545
4.01466703414917,0.008822053670883179,-0.012434668838977814,0.0051316022872924805,0.01786862500011921,0.0011413546744734049,-0.043553125113248825,-0.11549042547860601,-0.058962346741318936,-0.26769083967467844
4.024737119674683,0.008313674479722977,-0.0075650811195373535,0.0035470128059387207,0.02214353159070015,0.005440495442599058,-0.04028196632862091,-0.11496611935066649,-0.058907723238011515,-0.268096538095595
4.03459906578064,0.008931543678045273,-0.005631953477859497,0.006009936332702637,0.013917193748056889,0.009971685707569122,-0.038763269782066345,-0.11457152635299114,-0.05878953543633538,-0.26848336123037775
4.044623136520386,0.010225940495729446,-0.009530529379844666,0.010052859783172607,0.007957837544381618,0.010864910669624805,-0.03837151825428009,-0.11425662408136425,-0.0586309314243462,-0.2688443856233881
4.054906129837036,0.01191980391740799,-0.014817602932453156,0.010292232036590576,-0.002304353518411517,0.019387025386095047,-0.0354212149977684,-0.11386487358649056,-0.05842843644554516,-0.26921137272502715
4.0649659633636475,0.01144053041934967,-0.01408558338880539,0.008955776691436768,0.0006730605382472277,0.02433624491095543,-0.033754341304302216,-0.11352740653374194,-0.05818912192597494,-0.2695530671899826
4.076519012451172,0.010788828134536743,-0.011231370270252228,0.00823742151260376,0.006972551345825195,0.029010847210884094,-0.027582362294197083,-0.1133115778212189,-0.057838338869606126,-0.2698470950758448
4.084972143173218,0.010201778262853622,-0.006089620292186737,0.007825016975402832,0.01915518194437027,0.0334860235452652,-0.02232581377029419,-0.11298954893672505,-0.057413627600118006,-0.27007038694162755
4.0948450565338135,0.011335205286741257,-0.005132116377353668,0.005182921886444092,0.028081299737095833,0.03900861740112305,-0.018660079687833786,-0.11256339567229344,-0.056953729776320954,-0.2702433080669537
4.104732990264893,0.009880226105451584,-0.007262147963047028,-0.0011539459228515625,0.03150638937950134,0.03715638816356659,-0.02374218963086605,-0.11215790800257086,-0.056484284202424705,-0.2704227434807377
4.114866018295288,0.009449377655982971,-0.010576285421848297,-0.002632439136505127,0.025869127362966537,0.03092801198363304,-0.02579287812113762,-0.11180774232408328,-0.056063196758364534,-0.27063490318606276
4.125286817550659,0.009298741817474365,-0.011588960886001587,-0.0020239949226379395,0.018312674015760422,0.025417132303118706,-0.024332666769623756,-0.11146021982823288,-0.055693903509300806,-0.2708577741953812
4.1353349685668945,0.009639892727136612,-0.013128906488418579,0.000194549560546875,-0.0011433485196903348,0.020312029868364334,-0.020264526829123497,-0.11116730370590737,-0.055343897777008204,-0.271063673595983
4.145209074020386,0.0073659420013427734,-0.012646645307540894,0.0049419403076171875,-0.0071221450343728065,0.01654818467795849,-0.015011975541710854,-0.1110198257575191,-0.05505043742902851,-0.27123056791712613
4.1552159786224365,0.007008783519268036,-0.014937467873096466,0.008825361728668213,-0.003632322186604142,0.011489110998809338,-0.01395773608237505,-0.11092971434024636,-0.05481298158294972,-0.27136342888021786
4.165257930755615,0.006082367151975632,-0.016563236713409424,0.011300206184387207,0.004735862836241722,0.010315988212823868,-0.014179843477904797,-0.11086134138878395,-0.054617080256761846,-0.27149279887996663
4.175740003585815,0.002826239913702011,-0.013180628418922424,0.008921980857849121,0.019805144518613815,0.01588265970349312,-0.010368380695581436,-0.11068198587356404,-0.05437930451634955,-0.2716044194170121
4.185338020324707,-0.00022177770733833313,-0.00949127972126007,0.005011379718780518,0.02964792028069496,0.02450171485543251,-0.006800011266022921,-0.1103168224141164,-0.05407337458726756,-0.2716721326459673
4.195076942443848,-0.006520897150039673,-0.009939990937709808,0.0033948421478271484,0.04141101613640785,0.03065277449786663,-0.0036731401924043894,-0.1098011007600473,-0.0536887262370582,-0.27169139814803556
4.2048890590667725,-0.008774060755968094,-0.006448023021221161,0.0025069117546081543,0.04091034457087517,0.035494402050971985,-0.0003351342456880957,-0.10920473839025596,-0.05324459010570185,-0.2716794524645614
4.214854001998901,-0.006789680570363998,-0.0029410943388938904,0.00018268823623657227,0.03750740736722946,0.0316174142062664,-0.0011722722556442022,-0.1086240586018328,-0.052796196424826636,-0.27164901225917754
4.224933862686157,-0.004752885550260544,-0.004526056349277496,0.001511216163635254,0.03712630644440651,0.02708205208182335,-0.00464024068787694,-0.10808488284624194,-0.05243165130632892,-0.2716474243122233
4.235193967819214,-0.004819367080926895,-0.011742427945137024,0.0026254653930664062,0.036132652312517166,0.029621465131640434,-0.0066032567992806435,-0.10753131692899165,-0.05210028961589124,-0.2716809800034179
4.247586965560913,-0.004267264157533646,-0.006669357419013977,-0.0017342567443847656,0.04156603291630745,0.03048725798726082,-0.008547897450625896,-0.10694093971539964,-0.051761701838177965,-0.2717306434897989
4.2552330493927,6.439909338951111e-05,-0.0015396848320960999,-0.004845738410949707,0.04975700005888939,0.022661514580249786,-0.009487459436058998,-0.1063397058040757,-0.0514953014629794,-0.2718011072879739
4.265254974365234,0.0022035054862499237,-0.004829831421375275,-0.0025758743286132812,0.05524257943034172,0.015118643641471863,-0.009919424541294575,-0.10572012157912239,-0.051356513779458456,-0.2718739731026449
4.275263071060181,0.005754370242357254,-0.0011971518397331238,-0.00037544965744018555,0.05028655380010605,0.008863367140293121,-0.007046726066619158,-0.10510528033537087,-0.051364073586229686,-0.2719344360453813
4.285109996795654,0.0067114271223545074,0.0015687644481658936,0.00174790620803833,0.04442094266414642,0.0003167511895298958,-0.006056030280888081,-0.1045948567808549,-0.05146457828989683,-0.27199732479776656
4.295166015625,0.0038826093077659607,-0.009629875421524048,0.008862197399139404,0.037232451140880585,-0.0009362222626805305,-0.003301682649180293,-0.10420997984029916,-0.05157941364708563,-0.2720474560594953
4.305198907852173,0.000969909131526947,-0.012981079518795013,0.008984625339508057,0.026115354150533676,0.00270644947886467,0.0030677998438477516,-0.10388204698052035,-0.05164083864193918,-0.27203826568051176
4.315183877944946,0.002558935433626175,-0.0035258233547210693,0.004014849662780762,0.023596784099936485,0.000794166699051857,-1.603434793651104e-05,-0.10351907377361576,-0.051687095997967336,-0.27201179861229435
4.325345039367676,0.004386968910694122,-0.0018406286835670471,0.0058095455169677734,0.0226681400090456,-0.005720723886042833,-0.0029692137613892555,-0.10323618658461758,-0.051774699309031155,-0.2720246786048929
4.3352038860321045,0.004116460680961609,-0.006394490599632263,0.009997189044952393,0.0290532186627388,-0.004502016585320234,0.0003227728884667158,-0.10299751666042414,-0.05182368177425403,-0.27201642157743694
4.3456151485443115,0.003266550600528717,0.0001549050211906433,0.01016700267791748,0.02254685014486313,0.004475765395909548,0.006834467872977257,-0.10270265703196597,-0.051780630481513414,-0.2719623526216799
4.3552680015563965,0.00336456298828125,0.009645916521549225,0.0076596736907958984,0.021438993513584137,2.619996666908264e-05,0.0054185716435313225,-0.10250321184001147,-0.05167855487018919,-0.271878321522414
4.365244150161743,0.0020540840923786163,0.0034261122345924377,0.014788031578063965,0.018107376992702484,-0.003431381657719612,-0.0005719425971619785,-0.10235934513503273,-0.05161813866263098,-0.2718419189221434
4.375602960586548,6.412714719772339e-05,-0.0037110820412635803,0.021271467208862305,0.010974067263305187,0.00019353535026311874,0.0003678870270960033,-0.1020946435869389,-0.051579660172877705,-0.271832478219634
4.385347127914429,-0.0006368495523929596,0.004825174808502197,0.01928532123565674,0.009102930314838886,0.0050625926814973354,0.001355387270450592,-0.10184260112959727,-0.05153318586517482,-0.27181906091588737
4.395442008972168,-0.0014776065945625305,0.011329680681228638,0.017344415187835693,0.0016286356840282679,0.005970020312815905,-0.006242504809051752,-0.10176162289632602,-0.05145443409042741,-0.27183429225818107
4.405516862869263,-0.004490312188863754,0.004531346261501312,0.01788508892059326,0.0002957237884402275,0.009465152397751808,-0.009918998926877975,-0.10175450241696299,-0.051340121294099025,-0.27190635330553964
4.416837930679321,-0.005926977843046188,0.002354368567466736,0.014481782913208008,-0.001654242747463286,0.013772105798125267,-0.012557338923215866,-0.10168810005334196,-0.05118383709099819,-0.2720250201703171
4.425467014312744,-0.005495727062225342,0.004402540624141693,0.01232069730758667,-0.0014126939931884408,0.01783049665391445,-0.01998862437903881,-0.10171525145212817,-0.05101906474671382,-0.27218111280987717
4.435377836227417,-0.005168698728084564,0.0014190897345542908,0.013196706771850586,-0.006491725333034992,0.01831754483282566,-0.022606244310736656,-0.10189200594238537,-0.050842330428648955,-0.2723992402115839
4.445364952087402,-0.0052571967244148254,-0.004056073725223541,0.010614097118377686,-0.007967116311192513,0.01830263063311577,-0.022640332579612732,-0.1020119570381219,-0.05067708487537838,-0.27262189296000894
4.455320119857788,-0.003480907529592514,-0.005559712648391724,0.006967604160308838,-0.009605925530195236,0.018160328269004822,-0.02477874606847763,-0.1020816265880135,-0.05053017179664678,-0.2728643802735759
4.4654929637908936,0.0008707009255886078,-0.0063487812876701355,0.006466209888458252,-0.010785439983010292,0.013092068023979664,-0.02290547825396061,-0.10226127752075088,-0.05042646726347114,-0.2731124747748464
4.475751161575317,0.0013217814266681671,-0.009620301425457,0.01115882396697998,-0.010955914855003357,0.013457631692290306,-0.020357206463813782,-0.10251288536953042,-0.05035961180172908,-0.27334262676829857
4.485419988632202,0.000896010547876358,-0.013163946568965912,0.009819746017456055,-0.008999823592603207,0.0205733310431242,-0.015156318433582783,-0.10266990517833491,-0.05026975916309129,-0.2735398586993065
4.495607137680054,-0.0009247027337551117,-0.008400164544582367,0.0026798248291015625,0.004592384677380323,0.026288652792572975,-0.01218231301754713,-0.10272819861308766,-0.05012688077438304,-0.27368406502288317
4.505383014678955,-0.001927487552165985,-0.009206682443618774,-0.0005180835723876953,0.027464943006634712,0.033081576228141785,-0.01386383268982172,-0.10261862532704218,-0.04991561731808616,-0.2738175688694079
4.515555143356323,-0.0025506801903247833,-0.006953321397304535,-0.0046231746673583984,0.03977798670530319,0.036487627774477005,-0.013768492266535759,-0.10230145464805578,-0.04965533060211081,-0.2739493694513166
4.525648832321167,0.0006514377892017365,-0.0015726014971733093,-0.009351193904876709,0.04895923286676407,0.031753059476614,-0.016764547675848007,-0.10180095759926094,-0.049404832291233505,-0.2740868694112528
4.535494089126587,0.004009809345006943,-0.004298895597457886,-0.006951868534088135,0.04303611069917679,0.02451445534825325,-0.014994717203080654,-0.10125907000839023,-0.049203917972753766,-0.27423621668828546
