timestamp,accel_x,accel_y,accel_z,rotation_x,rotation_y,rotation_z, pitch,roll,yaw
0.04247403144836426,-0.14917084574699402,-0.027481818571686745,0.00047284364700317383,0.0012621348723769188,-0.0022363774478435516,0.011001409031450748,0.017318859490222275,0.12050391220748166,-0.0010447855382437834
0.05624699592590332,-0.1512809693813324,-0.026526952162384987,0.0013503432273864746,0.005810298025608063,0.0017877919599413872,0.007263556122779846,0.017373464185670574,0.12043159520417594,-0.00095821989775128
0.06841206550598145,-0.15139494836330414,-0.024075672030448914,0.0017807483673095703,0.00723855197429657,0.004144955892115831,0.006796438246965408,0.017459644175209052,0.12039288305991308,-0.0008882515499240267
0.07663083076477051,-0.15317857265472412,-0.022951532155275345,0.0005447864532470703,0.012998286634683609,0.006850061938166618,0.005453991703689098,0.017576723910106607,0.12037609323090272,-0.0008420313954399309
0.07837295532226562,-0.15485528111457825,-0.02366083674132824,-3.927946090698242e-05,0.012479502707719803,0.009250102564692497,0.0014169055502861738,0.017721934927565304,0.12039001376927772,-0.0008230112914497172
0.08616399765014648,-0.15631511807441711,-0.02446470595896244,0.0009169578552246094,0.00546515267342329,0.007956472225487232,0.003205431392416358,0.01783361053426606,0.12041595236866955,-0.0008109360566350065
0.09008288383483887,-0.15358656644821167,-0.02161361835896969,0.0004925727844238281,-0.002467338927090168,0.0005616727285087109,0.00019898870959877968,0.01786182260638414,0.12038804248191341,-0.0007934753409252625
0.09927105903625488,-0.1513274908065796,-0.023365996778011322,0.000991225242614746,-0.011716514825820923,-0.0009465198963880539,-0.0005111166392453015,0.017803163174665952,0.12031027591592992,-0.0007950656209446432
0.10600805282592773,-0.1531383991241455,-0.025122758001089096,-0.00013959407806396484,-0.0133863165974617,-0.0038682734593749046,0.0025067776441574097,0.017694335972288526,0.12021288423370688,-0.000770659987567828
0.11602902412414551,-0.15409395098686218,-0.022592047229409218,-0.0014668703079223633,-0.010633672587573528,-0.004871486686170101,6.06919638812542e-06,0.017585255648572058,0.12009926647196632,-0.0007345044678268809
0.12610411643981934,-0.15326184034347534,-0.022242210805416107,0.001063704490661621,-0.0009224559180438519,-0.002216581255197525,0.0007264543091878295,0.017538357226078164,0.11999874427380937,-0.0007244570381413257
0.13610482215881348,-0.15356506407260895,-0.02081598900258541,-0.0007146596908569336,0.005561808589845896,0.0053385403007268906,-0.0038674985989928246,0.017576037140797876,0.11993535478146711,-0.0007481879843784441
0.14635896682739258,-0.1534995138645172,-0.02159455046057701,-0.004041552543640137,0.003935149870812893,0.00864512100815773,-0.0037841415032744408,0.017636713679255647,0.119930927781737,-0.0007906323114341338
0.15638089179992676,-0.1526169776916504,-0.024514377117156982,-0.002472221851348877,-0.0017837221967056394,0.010816662572324276,-0.006100292783230543,0.017646577825869876,0.11994881492808789,-0.0008457805152405155
0.166517972946167,-0.15197968482971191,-0.02944887802004814,0.0012458562850952148,-0.010222097858786583,0.013101166114211082,-0.004071230534464121,0.01759488148919838,0.1199984347334613,-0.0008845890365231211
0.17648100852966309,-0.15098410844802856,-0.030934389680624008,0.004704415798187256,-0.011440593749284744,0.011213517747819424,-0.008260808885097504,0.017497904883533824,0.12005594422302175,-0.0009287641621994045
0.1865980625152588,-0.149229496717453,-0.03168714419007301,0.006213545799255371,-0.014587917365133762,0.009332527406513691,-0.006569168530404568,0.017370740953498536,0.1200865536892354,-0.0009790241818977976
0.19644904136657715,-0.1443186104297638,-0.0278604868799448,0.007440030574798584,-0.0184525977820158,0.011834833770990372,-0.005097612738609314,0.018054197449681883,0.11538796833841374,-0.000938937571676229
0.2064049243927002,-0.14049501717090607,-0.026550501585006714,0.0008641481399536133,-0.014010444283485413,0.008163399994373322,-0.0034448548685759306,0.018677643963399156,0.1109567469857065,-0.0008697748674144395
0.21656012535095215,-0.13562291860580444,-0.02307012490928173,0.0017818808555603027,-0.0049543483182787895,0.008990622125566006,-0.0037283748388290405,0.019258952028537876,0.10676216140603643,-0.0008234338695148391
0.22659611701965332,-0.1322753131389618,-0.020719250664114952,0.004284858703613281,-0.002565759466961026,0.015370223671197891,-0.007508466020226479,0.019900965345495254,0.10284430951800334,-0.000801900829617451
0.23634982109069824,-0.1318516582250595,-0.02261960878968239,0.0003046989440917969,-0.0012796024093404412,0.01602087914943695,-0.00826347153633833,0.020610004499451155,0.09919841305452469,-0.0007897810493317222
0.24640488624572754,-0.12862002849578857,-0.021492155268788338,-0.0006458759307861328,0.00010124663822352886,0.01757776364684105,-0.010657919570803642,0.021462989735302133,0.0957683833122683,-0.0008142462031707511
0.25632309913635254,-0.12248149514198303,-0.02135758474469185,0.0004162788391113281,0.0013343398459255695,0.016640374436974525,-0.009254008531570435,0.022330190516523893,0.09254628952789798,-0.0008385452470714369
0.26639294624328613,-0.11975567787885666,-0.02290794812142849,0.0029760003089904785,0.003449156414717436,0.015126634389162064,-0.006314411293715239,0.023190937869670608,0.08951900549051742,-0.0008508561881623481
0.2764461040496826,-0.11693097651004791,-0.024671178311109543,0.004067420959472656,0.009589556604623795,0.015036131255328655,-0.004889193456619978,0.023945618165479004,0.08662281299235335,-0.0008457083306733413
0.2866361141204834,-0.11410219222307205,-0.02455204352736473,0.004867196083068848,0.01277869287878275,0.007189659401774406,-0.0020361491478979588,0.024675320913662396,0.08383036354604134,-0.0008261819150664391
0.2972290515899658,-0.10992857068777084,-0.022320816293358803,0.003196895122528076,0.015549794770777225,0.004948298446834087,0.002183256670832634,0.025319835561466292,0.08112813317037458,-0.0007596385755576225
0.3066408634185791,-0.10739317536354065,-0.021918075159192085,0.004352390766143799,0.014530335552990437,0.0030784928239881992,0.0012386335292831063,0.025890610544690284,0.07850841940733182,-0.0006886234171441249
0.3166019916534424,-0.10557228326797485,-0.02092435583472252,0.0019594430923461914,0.007670416496694088,-0.0007859747856855392,0.004393946845084429,0.026472542486553438,0.0759018474540967,-0.0005930011700271031
0.32660603523254395,-0.10292384773492813,-0.02017482928931713,-0.0006433725357055664,0.0066554853692650795,-0.00034389039501547813,0.003544398583471775,0.02697810941346454,0.07338383979849862,-0.0005002802677756714
0.33663392066955566,-0.10166658461093903,-0.01931406930088997,0.00032073259353637695,0.009733067825436592,0.0005519078113138676,0.006004094146192074,0.027488106798844274,0.07103721528743843,-0.0004031105474593602
0.34682393074035645,-0.10120841860771179,-0.01798866130411625,0.0008270740509033203,0.013183459639549255,-0.0008470509201288223,0.008014514110982418,0.0280965863278904,0.06878859003906036,-0.0002730980766357738
0.35666394233703613,-0.09947838634252548,-0.014220552518963814,0.004147827625274658,0.010239068418741226,-0.008999429643154144,0.0063833813183009624,0.02875216603941384,0.06656555261833577,-0.0001557549477255147
0.3666510581970215,-0.09416472911834717,-0.011868437752127647,0.007586359977722168,0.001494579017162323,-0.01643364503979683,0.0022592099849134684,0.029334505284724997,0.06436013610746225,-6.368992159765452e-05
0.37660908699035645,-0.092121422290802,-0.013314561918377876,0.008731186389923096,-0.006241254508495331,-0.016701603308320045,0.0020756651647388935,0.029765402239855302,0.062220872261876274,1.7800524578707064e-05
0.38717007637023926,-0.0919220820069313,-0.014556238427758217,0.007213950157165527,-0.009280987083911896,-0.019486203789711,0.0012532809050753713,0.030126059991626295,0.06015583293290535,9.00384782322862e-05
0.39745497703552246,-0.0899515375494957,-0.012393031269311905,0.005584239959716797,-0.0080667519941926,-0.01880612224340439,-0.0027312340680509806,0.030443098643292716,0.058135622450601616,0.00014373068426470965
0.40680503845214844,-0.09073306620121002,-0.009283250197768211,0.0060662031173706055,-0.0034136767499148846,-0.016362672671675682,-0.000894185621291399,0.030775936540296027,0.05619759217681838,0.00017846399903106376
0.4174458980560303,-0.089435875415802,-0.0064419470727443695,0.007409095764160156,-0.0006796424277126789,-0.011581587605178356,-0.0025368232745677233,0.031114961759192625,0.05434795900451736,0.00021736779438060106
0.4266970157623291,-0.08876071125268936,-0.0058855414390563965,0.00941556692123413,0.0008237122092396021,-0.00570478942245245,-0.0068301050923764706,0.03144264541599141,0.05258659076415717,0.00021698403868787317
0.43679094314575195,-0.08810977637767792,-0.007820744067430496,0.008624672889709473,0.0031388478819280863,-0.002503270749002695,-0.008123655803501606,0.031689572812126976,0.050910641790895994,0.00019387857291912634
0.44672417640686035,-0.08362405747175217,-0.00708639994263649,0.009716212749481201,0.004711178131401539,0.002349807880818844,-0.011909338645637035,0.03192049189244128,0.049382803283257094,0.00013796543240302082
0.4567689895629883,-0.0820363312959671,-0.006255730986595154,0.010981321334838867,0.00939188338816166,0.008167305961251259,-0.014918498694896698,0.03221725878575914,0.04796096639066062,6.51572645194033e-05
0.4669978618621826,-0.08010037988424301,-0.008518334478139877,0.012835502624511719,0.009771384298801422,0.007435469888150692,-0.016480175778269768,0.03256408527341534,0.04658787208949706,-5.164177708023254e-05
0.47672200202941895,-0.07495613396167755,-0.010682996362447739,0.013071298599243164,0.005523874890059233,0.005859144032001495,-0.019617432728409767,0.03284097962898817,0.04524134221558428,-0.00018843310480300121
0.48685598373413086,-0.07157224416732788,-0.008446678519248962,0.012684047222137451,0.0040127974934875965,0.005668728146702051,-0.02023874782025814,0.03301745833879646,0.04386976459137455,-0.00033972610134004117
0.49701404571533203,-0.06916412711143494,-0.009310122579336166,0.009977400302886963,0.003002976765856147,0.003385111689567566,-0.022283630445599556,0.03310010589167733,0.04252789361552859,-0.0005009029168144796
0.5068130493164062,-0.06778921186923981,-0.01032174751162529,0.007055222988128662,0.0018391755875200033,0.004234394058585167,-0.022403739392757416,0.03317189294413637,0.0411969656309826,-0.000676494873318359
0.5168740749359131,-0.0680830329656601,-0.008970487862825394,0.008278906345367432,0.003432544646784663,0.0035723319742828608,-0.02231745235621929,0.0333025208416956,0.03988698678850915,-0.0008558970931678274
0.5268499851226807,-0.06848445534706116,-0.009434856474399567,0.0070868730545043945,0.0019939050544053316,0.0035267919301986694,-0.02332119829952717,0.033418049887300405,0.03866950870199225,-0.0010366658064530669
0.5368709564208984,-0.06711816787719727,-0.009784013032913208,0.006594836711883545,0.00785776972770691,0.0010985657572746277,-0.020043645054101944,0.03352671542230884,0.037469662085557534,-0.001215256713016083
0.5470230579376221,-0.0657244548201561,-0.011749174445867538,0.00553131103515625,0.008958720602095127,0.00515722343698144,-0.02086895890533924,0.033743687043377275,0.03631893335128172,-0.0013809208329817297
0.5568909645080566,-0.06570099294185638,-0.009894467890262604,0.003971695899963379,0.009749080054461956,0.003480319632217288,-0.02232576161623001,0.0340269002502807,0.035287483264539427,-0.0015603480587751397
0.5669238567352295,-0.06543795764446259,-0.01185913011431694,0.003877401351928711,0.0028967668768018484,0.00392213836312294,-0.02171057090163231,0.03421383547443728,0.03430633201255836,-0.001741539976268094
0.5769200325012207,-0.06172127276659012,-0.014859013259410858,0.005719542503356934,0.0030724520329385996,0.00017458247020840645,-0.017156193032860756,0.03438788174043553,0.03335058528960866,-0.0019107040262277446
0.5868849754333496,-0.05928422510623932,-0.014677010476589203,0.007300615310668945,0.0009296725038439035,0.0006869747303426266,-0.014768402092158794,0.034569993888891724,0.032408038374071094,-0.0020385977258656762
0.5970280170440674,-0.05867777764797211,-0.01329144835472107,0.0028557181358337402,3.604893572628498e-05,-0.0023671388626098633,-0.013483374379575253,0.03470441512731994,0.03144972265071587,-0.0021426458437569353
0.6069090366363525,-0.05826209485530853,-0.012459821999073029,0.00030177831649780273,0.0033226562663912773,-0.0025927084498107433,-0.010274797677993774,0.034864751996716084,0.030468571529385775,-0.002234385732058245
0.617150068283081,-0.056696414947509766,-0.010869976133108139,0.0016661286354064941,0.008011084981262684,-0.003052813932299614,-0.009761394001543522,0.03506617315697524,0.029512444487224763,-0.00230721894626462
0.6269838809967041,-0.055647216737270355,-0.00988420844078064,0.003971457481384277,0.008940528146922588,8.012866601347923e-05,-0.009267909452319145,0.03535021211427012,0.028599914288080803,-0.0023763147650264424
0.6372058391571045,-0.05733086168766022,-0.011129692196846008,0.003943085670471191,0.004863778129220009,-0.0022872881963849068,-0.01130346953868866,0.035569712209027424,0.027704125832765273,-0.0024530752165137183
0.6476829051971436,-0.056641098111867905,-0.010764073580503464,0.004126429557800293,0.00504913367331028,-0.0007908581756055355,-0.013892062939703465,0.03581341301343336,0.026815338083060258,-0.0025537413107054557
0.6569740772247314,-0.05546491965651512,-0.01190890371799469,0.00587695837020874,0.0030929252970963717,0.0004290919750928879,-0.014758388511836529,0.03610309489198914,0.026004838062776457,-0.0026692246300902877
0.6681749820709229,-0.05617601424455643,-0.011455036699771881,0.0075345635414123535,0.0004508029669523239,0.004044333007186651,-0.016761353239417076,0.0363587690381348,0.02526586194308026,-0.002794593240738827
0.677008867263794,-0.056011635810136795,-0.00935794785618782,0.0067365169525146484,-0.0008573748636990786,0.0013418456073850393,-0.01726762019097805,0.03656390456603115,0.024536382967033834,-0.0029329623908265425
0.68715500831604,-0.05492430180311203,-0.00952272117137909,0.00809025764465332,0.0017168365884572268,0.0003319750539958477,-0.012453156523406506,0.03675020663367803,0.023799454836588043,-0.003052304532162527
0.6972410678863525,-0.052279405295848846,-0.008888166397809982,0.007092654705047607,0.005863761063665152,0.003643394447863102,-0.010200122371315956,0.036942388956410596,0.023091913542640972,-0.0031356462438355335
0.707190990447998,-0.052908480167388916,-0.0048964060842990875,0.004887104034423828,0.011854542419314384,0.0035320743918418884,-0.009355900809168816,0.037165380634737274,0.02242355312635607,-0.003203084080847646
0.7171130180358887,-0.05301772058010101,-0.003560621291399002,0.005089998245239258,0.010888047516345978,0.004633202217519283,-0.007524019107222557,0.037448506520579364,0.021738924179861525,-0.0032608606940012427
0.7270910739898682,-0.05196761339902878,-0.006594151258468628,0.006880640983581543,0.006367864552885294,0.002948752837255597,-0.005321051925420761,0.037695791458759696,0.021054584390396897,-0.0033016054077835023
0.737123966217041,-0.05009599030017853,-0.0057633668184280396,0.01016765832901001,-0.0008719225879758596,0.0010737543925642967,-0.008811497129499912,0.037901107523030636,0.02037267399310693,-0.0033375994308724286
0.7474491596221924,-0.05034903436899185,-0.009223833680152893,0.011945903301239014,-0.0028384006582200527,0.0018881489522755146,-0.008618950843811035,0.03804181792161093,0.019694416410695127,-0.003404937840690625
0.7571718692779541,-0.04859315603971481,-0.010342739522457123,0.009940564632415771,-7.137632928788662e-05,0.00503911217674613,-0.0077627976424992085,0.0381436889807434,0.01903664692604422,-0.003451763690032206
0.7678358554840088,-0.048593051731586456,-0.007963694632053375,0.009198248386383057,0.0075282203033566475,0.005576804280281067,-0.004563275724649429,0.03831033369103754,0.0184104806109074,-0.003498232832535089
0.777101993560791,-0.04917507246136665,-0.00737907737493515,0.01104658842086792,0.008813311345875263,0.006388402543962002,0.0056441412307322025,0.03852890060413964,0.017832465138790072,-0.0034723986712206214
0.787153959274292,-0.04926729574799538,-0.005758378654718399,0.010091304779052734,0.0016163855325430632,0.013337654992938042,0.01127033494412899,0.0386237906182036,0.01728339133343595,-0.003362284808093875
0.7972960472106934,-0.05014441907405853,-0.00805564597249031,0.004439055919647217,-0.0085783451795578,0.0190413910895586,0.014197682030498981,0.03861533737419415,0.016786776345028755,-0.0032070598886414824
0.807157039642334,-0.049774475395679474,-0.0108744315803051,0.00026428699493408203,-0.005130084231495857,0.022609494626522064,0.009879899211227894,0.038634700685404255,0.01637070048462454,-0.0030678695749986797
0.8171899318695068,-0.04931505769491196,-0.008115828037261963,0.002923905849456787,-0.001001318683847785,0.020887937396764755,0.008480194956064224,0.03867726538038881,0.015987261504498,-0.0029509514778983887
0.8272230625152588,-0.04623197764158249,-0.00440751388669014,0.006556510925292969,0.004715156741440296,0.011308016255497932,0.0034758485853672028,0.03883040137688323,0.015543664323220461,-0.0028599955577288585
0.8372728824615479,-0.042265620082616806,-0.0014686957001686096,0.008081793785095215,0.001357759116217494,0.0059522660449147224,-0.011575858108699322,0.03903805427668256,0.015056005359036137,-0.0028820293445294934
0.8474400043487549,-0.039460863918066025,-0.004972349852323532,0.008712232112884521,-0.007703113369643688,-0.00028112856671214104,-0.005099849309772253,0.03912027786339834,0.014509121843554072,-0.002957882812575527
0.8573348522186279,-0.038039881736040115,-0.005912482738494873,0.010447204113006592,-0.020871812477707863,-0.007526081521064043,0.001271869521588087,0.03908037893307075,0.013865758476347847,-0.0029462902880662634
0.8676941394805908,-0.037221673876047134,-0.010811276733875275,0.00844663381576538,-0.02188408002257347,-0.0051923529244959354,-0.004354856908321381,0.038957494925569415,0.013214776197702461,-0.0029221984204395213
0.8772599697113037,-0.0383884534239769,-0.01188075914978981,0.007100164890289307,-0.014233984053134918,-0.010299673303961754,-0.007738775573670864,0.03887977696284576,0.012549904524278989,-0.0029868591554127162
0.8878450393676758,-0.03945881500840187,-0.004814520478248596,0.005272865295410156,0.002123418031260371,-0.006876180414110422,0.003616676665842533,0.03898809015118843,0.011895528837923096,-0.0029620742811709826
0.897413969039917,-0.04203452169895172,-0.006063327193260193,0.0103837251663208,0.011964746750891209,0.00905569177120924,0.005904118996113539,0.03917375115625554,0.011342806169057723,-0.002898162052636429
0.9074289798736572,-0.04439820349216461,-0.00483979657292366,0.004478633403778076,0.00167615688405931,0.004192227032035589,0.006167505402117968,0.039298745547713225,0.010898560596370654,-0.002818465117058633
0.9173250198364258,-0.04136928170919418,-0.011204969137907028,0.002515137195587158,-0.002717942465096712,0.0024518072605133057,0.007151756435632706,0.03929648590900646,0.010447997320259356,-0.0027419156056586163
0.9296219348907471,-0.03838035464286804,-0.015391737222671509,0.012222230434417725,-0.003268417902290821,0.006851615849882364,0.012303908355534077,0.03933642844109702,0.010052753849855841,-0.0026196922650467457
0.9374058246612549,-0.04013334959745407,-0.010517213493585587,0.012176930904388428,0.0014744719956070185,0.0004421859048306942,0.013761295937001705,0.03941976186943926,0.009669236464603168,-0.00247774002817477
0.9474530220031738,-0.040340255945920944,-0.008112657815217972,0.012066662311553955,0.0026151041965931654,-0.0041166129522025585,0.014024948701262474,0.03961194093533854,0.009234984908690819,-0.0023205737879993214
0.9575488567352295,-0.038141924887895584,-0.008993040770292282,0.01108551025390625,0.004304713103920221,-0.0018903878517448902,0.015294796787202358,0.03983036314289849,0.008775855579076683,-0.0021582611221320942
0.9681341648101807,-0.03831552714109421,-0.004707250744104385,0.005485236644744873,0.004451985936611891,-0.0008336454629898071,0.015684152022004128,0.03993532894896195,0.008323507913550996,-0.0019852166952688626
0.9774169921875,-0.0404638834297657,-0.0035849399864673615,0.001013636589050293,0.0018822022248059511,-0.002473442815244198,0.012459542602300644,0.040050652336067534,0.007846991554624433,-0.0018281109590818595
0.9873740673065186,-0.04002073407173157,-0.0025870278477668762,0.0021131038665771484,0.001676606247201562,-0.0076612806878983974,0.01102303434163332,0.0401331052158559,0.007296595597456877,-0.0016809882604775623
0.9974448680877686,-0.03881058096885681,-0.0014495179057121277,0.005146324634552002,0.0010386626236140728,-0.011305593885481358,0.009095704182982445,0.04030945158991296,0.006757430988476353,-0.0015524591329791374
1.0074260234832764,-0.03797290101647377,-0.00010107085108757019,0.0050792694091796875,-0.002864199923351407,-0.012718134559690952,0.005059950053691864,0.04054419991117673,0.006224541503008905,-0.0014590491662413107
1.017568826675415,-0.03713531792163849,0.00025757402181625366,0.004117250442504883,-0.008511632680892944,-0.013210197910666466,0.00229825172573328,0.040643525752755136,0.005661164373468978,-0.0014072440856927845
1.0276050567626953,-0.0363493487238884,-0.0008177496492862701,0.0028535127639770508,-0.012193718925118446,-0.01564672403037548,0.0009618777548894286,0.040651585117949446,0.005088342256212842,-0.0013649907753153863
1.0374879837036133,-0.03608671575784683,-0.001702878624200821,0.004687309265136719,-0.012460717931389809,-0.01764751225709915,0.000653217313811183,0.04065146630979943,0.004520057623034738,-0.001344753438551842
1.0474770069122314,-0.035488273948431015,-0.003382362425327301,0.01238340139389038,-0.01234726794064045,-0.02058684453368187,0.0024609710089862347,0.04057408924329387,0.003921099741269223,-0.0013062143187201622
1.057452917098999,-0.0338791087269783,-0.0017401613295078278,0.016096293926239014,-0.00919453427195549,-0.018577445298433304,0.0006228040438145399,0.04050724957407976,0.0033032361585303292,-0.0012740456868223274
1.0676579475402832,-0.03402511775493622,-3.253668546676636e-05,0.015047073364257812,-0.0033393078483641148,-0.014985374175012112,-7.174827624112368e-05,0.040460076738736916,0.0027163328230692275,-0.0012556286235526565
1.077665090560913,-0.03458396717905998,0.0003151223063468933,0.010866940021514893,0.0014207428321242332,-0.00861833244562149,-0.0005886146682314575,0.04047205185945205,0.00220665171229328,-0.0012482965438075525
1.087613821029663,-0.03558117151260376,0.000703081488609314,0.010350048542022705,-0.0038853390142321587,-0.008177578449249268,-0.0041921380907297134,0.04044800282981894,0.0017386259723552058,-0.0012551483690449816
1.097594976425171,-0.03649356588721275,0.0006474852561950684,0.011909961700439453,-0.009239873848855495,-0.006465033162385225,-0.0052958582527935505,0.040377090630432357,0.0012926164638206407,-0.0012835777513086752
1.1075940132141113,-0.03335890173912048,0.000850427895784378,0.010572373867034912,-0.015554496087133884,-0.007685293909162283,-0.013007041066884995,0.040259504011719426,0.0008583995623118679,-0.001359207588891849
1.1176509857177734,-0.032224684953689575,-0.0017639882862567902,0.01064068078994751,-0.023673973977565765,-0.013290982693433762,-0.011021440848708153,0.04008635492965618,0.00039519403966298624,-0.0014594465502713492
1.1297869682312012,-0.030424242839217186,-0.003246057778596878,0.009885787963867188,-0.027892954647541046,-0.00948425941169262,-0.008501824922859669,0.039885865652573904,-7.811360290368832e-05,-0.0015324142827137267
1.137967824935913,-0.031178884208202362,-0.003707151859998703,0.011314034461975098,-0.02667156234383583,-0.004730249755084515,-0.007662023417651653,0.03965346328576637,-0.0004987298583334399,-0.0015994551935614837
1.147704839706421,-0.032108280807733536,-0.007886361330747604,0.010866165161132812,-0.025853171944618225,-0.001419674139469862,-0.005664919037371874,0.03939556427556135,-0.0008666104362100692,-0.0016522791834243772
1.1575911045074463,-0.030226433649659157,-0.006457317620515823,0.00796055793762207,-0.023186232894659042,-0.007249023765325546,-0.0059156292118132114,0.039161221140065434,-0.001253385136714707,-0.0016987483585373514
1.1676619052886963,-0.024815479293465614,-0.004880204796791077,0.008365333080291748,-0.022832298651337624,-0.0087803415954113,-0.01037296187132597,0.03893762639520962,-0.0017055655624306151,-0.0017624727560283779
1.179961919784546,-0.021463366225361824,-0.007037382572889328,0.009945809841156006,-0.027564503252506256,-0.008940929546952248,-0.011214574798941612,0.0386876086114828,-0.0021588326673230504,-0.0018604183325239489
1.1877539157867432,-0.02467222884297371,-0.009347610175609589,0.011161744594573975,-0.03247217833995819,-0.0055877435952425,-0.010583139024674892,0.03839131961628696,-0.0025513102259694265,-0.0019569784151889824
1.1976821422576904,-0.026000218465924263,-0.008747421205043793,0.009462177753448486,-0.033578187227249146,-0.00033093011006712914,-0.013005816377699375,0.03812156165784231,-0.0028867465373205075,-0.002071477508234972
1.207643985748291,-0.028735831379890442,-0.00943620502948761,0.0065726637840271,-0.0341331884264946,0.0018014630768448114,-0.01264921948313713,0.0378445654935148,-0.0031725485774139477,-0.002194087990007193
1.2176849842071533,-0.0293524581938982,-0.008183371275663376,0.007847368717193604,-0.03135053440928459,0.0030578982550650835,-0.007962800562381744,0.03760186526708553,-0.0034563637099813195,-0.0022919301951456555
1.2291438579559326,-0.02957174926996231,-0.010648269206285477,0.011452853679656982,-0.029882069677114487,0.0025867850054055452,-0.0074980794452130795,0.0374561951497921,-0.0037560646973537654,-0.002351696674878172
1.23769211769104,-0.0279465951025486,-0.009040605276823044,0.011412620544433594,-0.032568931579589844,-0.0004350151866674423,-0.009916975162923336,0.03727845808182197,-0.004038619653015807,-0.0024195687663226117
1.2483479976654053,-0.026826031506061554,-0.010107133537530899,0.006998896598815918,-0.056532055139541626,0.00016765808686614037,-0.01839115284383297,0.03694412393215849,-0.0042895561760951054,-0.0025404996097932687
1.2579350471496582,-0.026506301015615463,-0.018908768892288208,0.005092322826385498,-0.06507103145122528,0.01212937943637371,-0.008688725531101227,0.03648873810752264,-0.004441471300219265,-0.002702168422282274
1.2691340446472168,-0.02958809584379196,-0.0149923674762249,0.0027178525924682617,-0.09066134691238403,0.008073118515312672,-0.008284457959234715,0.03588814266839534,-0.00457927318194461,-0.002735625637664422
1.2797701358795166,-0.02668612450361252,-0.007338561117649078,-0.0066637396812438965,-0.13143223524093628,0.0138017563149333,-0.023753110319375992,0.03493539512066401,-0.004719335660116053,-0.0029166183885756475
1.2878940105438232,-0.026741500943899155,-0.02715117111802101,0.00581437349319458,-0.150841623544693,0.024377435445785522,-0.016722630709409714,0.03369200086109125,-0.004801134345916211,-0.003112640601070786
1.2978599071502686,-0.028614206239581108,-0.026706237345933914,0.01880025863647461,-0.1786630004644394,-0.0024094386026263237,-0.0114798778668046,0.03225932489077699,-0.004972971929959009,-0.003259387479267233
1.307852029800415,-0.01647680252790451,-0.011537743732333183,0.015928447246551514,-0.2597096562385559,-0.015040012076497078,0.0029920050874352455,0.030337032926399613,-0.005406790644272576,-0.0033127739381002804
1.3181049823760986,-0.004130401648581028,-0.00827864371240139,0.0037212371826171875,-0.3199966847896576,-0.004914985038340092,0.025676757097244263,0.02764407506081568,-0.005759502133888711,-0.0031997887144558364
1.3291139602661133,-0.011491334065794945,-0.015499958768486977,-0.0027060508728027344,-0.312645822763443,-0.020352264866232872,0.0642276182770729,0.024770526241842655,-0.006149727484199619,-0.00274007164203586
1.3378980159759521,-0.012495432049036026,-0.0035272445529699326,-0.007580697536468506,-0.2679727077484131,-0.05604071170091629,0.07043597102165222,0.022292478590186574,-0.006823919352190982,-0.0020485309936134986
1.3478491306304932,-0.004376422613859177,0.012016983702778816,-0.010838329792022705,-0.24547509849071503,-0.062020037323236465,0.0575135163962841,0.020181812893032225,-0.007725423394531073,-0.0014326145181912373
1.3578641414642334,-0.011513660661876202,-0.02040446735918522,-0.021119654178619385,-0.2471054196357727,-0.056281059980392456,0.06952644884586334,0.01806392946205071,-0.008568384552158876,-0.0008400054707710521
1.3678748607635498,-0.020230069756507874,-0.04146478325128555,-0.025673329830169678,-0.2463379055261612,-0.0624537318944931,0.0804952085018158,0.01622941691519956,-0.009403850870624628,-7.257436389434233e-05
1.3793208599090576,-0.022527571767568588,-0.048619579523801804,-0.016040265560150146,-0.2640426754951477,-0.06999833136796951,0.06314583867788315,0.014323422696060344,-0.010325820754805313,0.0006043626550572718
1.388221025466919,-0.0224563330411911,-0.06770847737789154,-0.0027894973754882812,-0.285205215215683,-0.07974976301193237,0.09056521207094193,0.011988467327192867,-0.011190310267000542,0.0013392947706516538
1.3987510204315186,-0.018492737784981728,-0.06769333779811859,-0.0043891072273254395,-0.3065045177936554,-0.09587476402521133,0.11002583056688309,0.009378951558303296,-0.012056156609114804,0.002310875987106102
1.40802001953125,-0.01064023282378912,-0.05874793604016304,-0.014620780944824219,-0.30216196179389954,-0.11637364327907562,0.13563665747642517,0.006758103203473012,-0.013179396265036395,0.0034999495594393317
1.4180519580841064,-0.00849798135459423,-0.05526620149612427,-0.02281773090362549,-0.2960931658744812,-0.1267867386341095,0.153516486287117,0.004014210854604044,-0.014467093614711305,0.004906017489157127
1.4288079738616943,-0.014876043424010277,-0.05901040509343147,-0.022020399570465088,-0.31679922342300415,-0.1268189698457718,0.16015388071537018,0.0010176780128317146,-0.015718461592925132,0.006440461862175761
1.4377801418304443,-0.02257872186601162,-0.06566061824560165,-0.014781415462493896,-0.3404938876628876,-0.14677993953227997,0.17504675686359406,-0.0023061213793702825,-0.017064463470110522,0.008050332974464358
1.4479069709777832,-0.021006979048252106,-0.06141826510429382,0.00044864416122436523,-0.37015777826309204,-0.1796095222234726,0.20720522105693817,-0.005906820586505967,-0.01869778354427438,0.0098932765772537
1.4578731060028076,-0.013257920742034912,-0.04203321784734726,0.00482022762298584,-0.3915107548236847,-0.21338887512683868,0.21043579280376434,-0.0097457682965847,-0.020664795101191177,0.011916343408912601
1.467919111251831,-0.007840504869818687,-0.03294837474822998,0.0015325546264648438,-0.4198766052722931,-0.2505120038986206,0.20456086099147797,-0.013890588702966198,-0.02294067393205982,0.013897210062545837
1.4785549640655518,-0.009928001090884209,-0.039171166718006134,-0.003314971923828125,-0.44193533062934875,-0.2720566391944885,0.19936801493167877,-0.018221853523863556,-0.025540418166586323,0.015813470555072675
1.4878661632537842,-0.01139514334499836,-0.038679368793964386,-0.012670934200286865,-0.4620184898376465,-0.2972341477870941,0.20821316540241241,-0.022827468856384554,-0.028349905742609365,0.01769725627588883
1.497795820236206,-0.01340530812740326,-0.031546223908662796,-0.023912906646728516,-0.46907779574394226,-0.3201946020126343,0.23073381185531616,-0.02755190320188211,-0.031396284596154775,0.01976841797986056
1.5079638957977295,-0.010926853865385056,-0.031017422676086426,-0.035010337829589844,-0.4496971666812897,-0.3451122045516968,0.24133506417274475,-0.03225897613820494,-0.03466083908447887,0.021965647615863098
1.5179619789123535,-0.010158121585845947,-0.045276008546352386,-0.04445803165435791,-0.39127933979034424,-0.3770557641983032,0.2776833176612854,-0.03658665723472605,-0.03818601234731169,0.024391940186156588
1.5287349224090576,-0.009851019829511642,-0.057967737317085266,-0.04270601272583008,-0.29966339468955994,-0.41697707772254944,0.331581175327301,-0.040186804816521274,-0.04204464538524829,0.027295235982829735
1.53830885887146,-0.010681286454200745,-0.06564263254404068,-0.03363078832626343,-0.17880088090896606,-0.4634770452976227,0.3944985270500183,-0.0427522099721857,-0.0462927949447522,0.030802739007097915
1.5483880043029785,-0.01225966215133667,-0.092935711145401,-0.02231067419052124,-0.05809469893574715,-0.5268086194992065,0.4948224425315857,-0.04413717122736066,-0.05105988861943486,0.03518028571104462
1.5582778453826904,-0.006249785423278809,-0.11793997883796692,-0.022778868675231934,0.021268166601657867,-0.5650374293327332,0.6138123273849487,-0.04459048669319574,-0.05629005850298016,0.040719278664435296
1.5684330463409424,-0.004396084696054459,-0.1535332351922989,-0.023360371589660645,0.0776936262845993,-0.6110608577728271,0.7561854720115662,-0.044478077704623656,-0.0618360032278717,0.047574184018025094
1.5809080600738525,-0.01513054221868515,-0.22776521742343903,-0.014888942241668701,0.09477758407592773,-0.6797225475311279,0.9472277164459229,-0.044155300062427856,-0.06790400907385181,0.05612309424597655
1.5884039402008057,-0.016981124877929688,-0.29381322860717773,0.00927060842514038,0.09813849627971649,-0.7567142248153687,1.1674482822418213,-0.043934172324368054,-0.07462121564782215,0.06675432953629136
1.5983898639678955,-0.01727050542831421,-0.3464313745498657,0.03523653745651245,0.0984845757484436,-0.8458778858184814,1.3978495597839355,-0.04395530190875235,-0.08208293455073985,0.07964405857851746
1.6083710193634033,-0.026073582470417023,-0.40654614567756653,0.07790398597717285,0.1459769904613495,-0.964415431022644,1.6270021200180054,-0.04410316435164297,-0.09047061875222417,0.09485714559109928
1.6182920932769775,-0.030902355909347534,-0.4398621618747711,0.13042348623275757,0.2882455587387085,-1.0892878770828247,1.8489017486572266,-0.04362050821698353,-0.10002031082937513,0.11240368457238711
1.6302731037139893,-0.02602940797805786,-0.43728429079055786,0.13138461112976074,0.4454762041568756,-1.2153992652893066,2.031104326248169,-0.04201771295647667,-0.1106923050015451,0.1321540489647848
1.6383631229400635,-0.015621736645698547,-0.40376603603363037,0.1252012848854065,0.5848708152770996,-1.3829339742660522,2.1916511058807373,-0.03928943802764228,-0.12281229189276266,0.15380135536403566
1.6481058597564697,-0.008708417415618896,-0.37596243619918823,0.1412513256072998,0.5991746783256531,-1.5889004468917847,2.2771012783050537,-0.036218148449872395,-0.136811686330095,0.17685477262423552
1.6580619812011719,-0.024808824062347412,-0.39663222432136536,0.1889127492904663,0.4286603033542633,-1.6616950035095215,2.3164355754852295,-0.03431901313167731,-0.15236783653971317,0.20038421188255762
1.6683008670806885,-0.10675743222236633,-0.49765798449516296,0.21344929933547974,-0.02989049069583416,-1.5691502094268799,2.373347520828247,-0.035858420260732465,-0.1678336636015824,0.22385219045578514
1.6800720691680908,-0.22600266337394714,-0.5881243348121643,0.17793339490890503,-0.6152296662330627,-1.4085716009140015,2.541184902191162,-0.0432617137946968,-0.1817666753020492,0.24754531782333936
1.689182996749878,-0.30262088775634766,-0.5840062499046326,0.1459164023399353,-1.1458373069763184,-1.3425010442733765,2.7210190296173096,-0.056983264270507615,-0.19427352810045598,0.27173365899985746
1.6983001232147217,-0.31478047370910645,-0.5732324719429016,0.12239974737167358,-1.4100286960601807,-1.3401305675506592,2.91564679145813,-0.0752413002095406,-0.2060209270493473,0.296901717523508
1.7082829475402832,-0.2889845669269562,-0.5795754790306091,0.040280699729919434,-1.2985546588897705,-1.2304730415344238,3.091348171234131,-0.09509963525110009,-0.2167159279849917,0.3235411676971194
1.7183210849761963,-0.26137781143188477,-0.542468786239624,-0.11606639623641968,-0.7319707870483398,-0.9710810780525208,3.2641868591308594,-0.11213112612425784,-0.2246167370203609,0.3525291047963313
1.7293720245361328,-0.2160569280385971,-0.4726729989051819,-0.30190467834472656,0.02894732728600502,-1.0561554431915283,3.3242485523223877,-0.123545502139744,-0.23124200773417244,0.38386330954963693
1.7383310794830322,-0.14982850849628448,-0.34859326481819153,-0.32655036449432373,1.1732439994812012,-0.738624095916748,3.5129382610321045,-0.12502652541424478,-0.23631829698330514,0.41906891935702856
1.7483630180358887,-0.1881171464920044,-0.23267874121665955,-0.329817533493042,1.2609344720840454,-0.45514926314353943,3.507373332977295,-0.12095871222843001,-0.2374261188731568,0.45663725340307104
1.758350133895874,-0.2124369740486145,-0.07183197140693665,-0.156230628490448,1.1087957620620728,-0.3199567198753357,3.44600248336792,-0.11754312175462098,-0.23701373316055147,0.49340832763925313
1.768496036529541,-0.28302299976348877,-0.323701947927475,0.17590749263763428,1.0449966192245483,-0.06110785901546478,3.4287703037261963,-0.1152010997702906,-0.23480023409944567,0.5296880605985561
1.7794840335845947,-0.23875336349010468,-0.31957516074180603,0.23195648193359375,1.0463943481445312,0.23544639348983765,3.3988866806030273,-0.11282892807553019,-0.22986318621971136,0.5655600903303349
1.7884650230407715,-0.17798326909542084,-0.0701160803437233,0.1758352518081665,0.9170630574226379,0.5387564897537231,3.3527092933654785,-0.11076294723885029,-0.2219580187094874,0.6010035007177724
1.7983789443969727,-0.179475799202919,-0.07270364463329315,0.17574501037597656,0.8361456394195557,0.7964168787002563,3.355928421020508,-0.109436233081339,-0.21155366664108932,0.6358561975500582
1.808358907699585,-0.1741340160369873,-0.16113948822021484,0.16628676652908325,0.749441385269165,1.1178641319274902,3.325620651245117,-0.10851111784001746,-0.19822335494154422,0.6703969563012987
1.8184590339660645,-0.12505371868610382,-0.1504860371351242,0.15120017528533936,0.682881236076355,1.4125282764434814,3.3508753776550293,-0.10783294957089186,-0.18175911999659214,0.7047454923176165
1.8293449878692627,-0.07397454977035522,-0.11153727024793625,0.15763098001480103,0.7418984770774841,1.6755894422531128,3.4649498462677,-0.10659680854961116,-0.16269272948724944,0.7397011626522649
1.8384010791778564,-0.04353995621204376,-0.02430686354637146,0.25050103664398193,0.5740483403205872,1.9834165573120117,3.6265170574188232,-0.105357984827772,-0.14045213729800587,0.7760102744450087
1.848388910293579,-0.04102768003940582,0.044094592332839966,0.39173489809036255,0.161166712641716,2.0996837615966797,3.7609822750091553,-0.10628238090722597,-0.11593622065450485,0.8135093054290201
1.85841703414917,0.018970541656017303,-0.19287946820259094,0.4898662567138672,-0.4074265658855438,2.126392126083374,3.6584320068359375,-0.11133748506703511,-0.09080849462784024,0.8505770822367589
1.8686449527740479,0.2728614807128906,-0.35971978306770325,0.37650060653686523,-0.7447329759597778,2.2317163944244385,3.695509672164917,-0.12009430485149321,-0.06481623623144654,0.8869886000370795
1.8799631595611572,0.5084664821624756,-0.07543346285820007,0.19749224185943604,-0.7639631032943726,2.3058829307556152,3.688819169998169,-0.12956764817107258,-0.03755279542433737,0.923920910318924
1.8889610767364502,0.5744315981864929,0.19645768404006958,0.07408028841018677,-0.8438576459884644,2.4028403759002686,3.6050171852111816,-0.13848773366447456,-0.008996622421041364,0.9605322021479327
1.8994519710540771,0.5333606004714966,0.12228600680828094,0.058943867683410645,-0.8453630208969116,2.3993377685546875,3.5355966091156006,-0.14679531766786658,0.020187366827506964,0.9967326181739293
1.9086101055145264,0.5710492730140686,0.04927314817905426,0.14094847440719604,-0.8638232350349426,2.360032796859741,3.357421636581421,-0.1541256134395234,0.049383225959935495,1.0319717270693045
1.918727159500122,0.6808285117149353,0.12433557212352753,0.14445990324020386,-0.8115674257278442,2.2241859436035156,3.163846492767334,-0.1604554287083561,0.07763087721230522,1.0654611547859711
1.9305760860443115,0.7609050273895264,0.16808122396469116,0.048153579235076904,-0.7137314081192017,2.034926414489746,2.984135389328003,-0.16532773622697483,0.10419649088443339,1.0972670625056993
1.938716173171997,0.8045452237129211,0.22615118324756622,-0.08086109161376953,-0.46920502185821533,1.8106451034545898,2.8383355140686035,-0.16790135464749328,0.12837836850084045,1.1273240277591074
1.9487669467926025,0.7945809364318848,0.2787556052207947,-0.1499956250190735,-0.17358751595020294,1.6759475469589233,2.6566383838653564,-0.167259356740907,0.1505077454119371,1.155395989190707
1.9587318897247314,0.7099369168281555,0.32130375504493713,-0.1530163288116455,0.12612544000148773,1.5888333320617676,2.4874074459075928,-0.16333880199606615,0.17106108241648674,1.18123616490779
1.968825101852417,0.6025530099868774,0.34621280431747437,-0.1292441487312317,0.411278635263443,1.5546660423278809,2.3112127780914307,-0.15633054473417876,0.19048709248361273,1.2046728808369858
1.9799549579620361,0.5132410526275635,0.336081326007843,-0.10912090539932251,0.5938841104507446,1.5455032587051392,2.1377968788146973,-0.14692966412957031,0.20925580155753143,1.2256828036478626
1.9886560440063477,0.4320835471153259,0.3222629427909851,-0.10931843519210815,0.6422553658485413,1.459040641784668,1.979181170463562,-0.13635006748566,0.22702573608276586,1.2446825248959619
1.9987599849700928,0.39882075786590576,0.2875194847583771,-0.08487194776535034,0.5156594514846802,1.3012312650680542,1.7590396404266357,-0.12623714996069793,0.2431011184590891,1.261665070450472
2.0087411403656006,0.3553417921066284,0.28169041872024536,-0.03896266222000122,0.20521631836891174,1.0614917278289795,1.5164432525634766,-0.11858118521965044,0.25681486908621093,1.2767795653708232
2.0188510417938232,0.3124108612537384,0.2984985411167145,-0.024615883827209473,-0.10353110730648041,0.7847768068313599,1.3040165901184082,-0.11444028389956952,0.26755734852742713,1.290289460408699
2.029952049255371,0.27687278389930725,0.3026905953884125,-0.020762920379638672,-0.47723278403282166,0.5196250677108765,1.0335179567337036,-0.11419868632078718,0.2754737451228043,1.3024276230961582
2.0387518405914307,0.23508059978485107,0.27584555745124817,-0.0139923095703125,-0.6394657492637634,0.2750008702278137,0.8342186212539673,-0.11713756585378346,0.28061755494021695,1.313112554488816
2.0487821102142334,0.20164042711257935,0.2458949089050293,-0.0013521313667297363,-0.5532179474830627,0.12978428602218628,0.6343313455581665,-0.12094635911208647,0.2836062133348169,1.3219199859524553
2.0587260723114014,0.15643039345741272,0.2623535096645355,-0.006353139877319336,-0.3808290660381317,0.0639784187078476,0.4729871451854706,-0.12390382885336883,0.2853605781157384,1.3285653533637845
2.0688531398773193,0.09515500068664551,0.2533024251461029,-0.034116923809051514,-0.18940132856369019,0.049346745014190674,0.3603287935256958,-0.12550579879141283,0.2865054914105811,1.3334138330166077
2.0802040100097656,0.06518808007240295,0.20679576694965363,-0.023047924041748047,-0.002129417145624757,0.07173190265893936,0.2766072154045105,-0.1254728832278367,0.28752913721828455,1.3367110195652945
2.088811159133911,0.04908519983291626,0.16320393979549408,0.018698453903198242,0.0751776248216629,0.09487424045801163,0.23817965388298035,-0.1243784458885762,0.2886483862852569,1.3390704141907255
2.0989270210266113,0.06073632836341858,0.14381203055381775,0.03007662296295166,0.052717018872499466,0.1306915432214737,0.20306363701820374,-0.12303869347239008,0.29003354815523635,1.3409928952031465
2.1088640689849854,0.0645272433757782,0.125034362077713,0.0648871660232544,-0.04421565309166908,0.12418676912784576,0.17944645881652832,-0.12244850996284781,0.29154529529720946,1.3428081859664545
2.1197831630706787,0.06575790047645569,0.0863620862364769,0.08138400316238403,-0.12292667478322983,0.10451168566942215,0.16108353435993195,-0.12279330059056698,0.29294438464302636,1.3447120253887206
2.1311450004577637,0.06176438927650452,0.06058590114116669,0.07903343439102173,-0.14486393332481384,0.08296804875135422,0.1306460052728653,-0.12370457558301978,0.29411445162138317,1.3465165351517405
2.1386878490448,0.03010040521621704,0.06144924461841583,0.07875889539718628,-0.10397029668092728,0.07827910035848618,0.10445652902126312,-0.12461827301448422,0.29511528783590235,1.348037152831018
2.1489169597625732,0.005116879940032959,0.03834865987300873,0.04332500696182251,-0.013194585219025612,0.07164809852838516,0.08267480134963989,-0.1248938589531726,0.29601513307565414,1.3491019832061983
2.1588079929351807,0.0019752979278564453,0.03004901111125946,0.0068354010581970215,0.03559643775224686,0.05654367059469223,0.04628840088844299,-0.12458515387098042,0.2967411409082801,1.3496925024424284
2.1689419746398926,0.015980571508407593,0.042151257395744324,-0.0008082985877990723,0.06726542115211487,0.02995573729276657,-0.008741562254726887,-0.12399877025356415,0.29718751054665427,1.3497179617184567
2.179940938949585,0.026070892810821533,0.0610206201672554,0.0017760396003723145,0.07877806574106216,-0.010911092162132263,-0.0636066198348999,-0.1234202726208329,0.2971931426209243,1.3491503592922842
2.188896894454956,0.04331117868423462,0.07547768950462341,-0.0006539821624755859,0.10768481343984604,-0.032230496406555176,-0.10237718373537064,-0.12278283783909946,0.29683361432239247,1.348090124845841
2.1989529132843018,0.04707902669906616,0.06252476572990417,0.010234236717224121,0.15452829003334045,-0.026553967967629433,-0.11429232358932495,-0.12185861775979923,0.29633380354380423,1.346633110639145
2.20900297164917,0.03939688205718994,0.04993537813425064,0.031572163105010986,0.1711685210466385,-0.007753115147352219,-0.10565835982561111,-0.12059903570983459,0.29597287971505676,1.345048139029668
2.2191078662872314,0.03337773680686951,0.02907107025384903,0.022577285766601562,0.13297182321548462,0.007111983373761177,-0.08291544765233994,-0.11954413146002216,0.29594165382827675,1.343693795708218
2.2304508686065674,0.03133678436279297,0.02017051726579666,0.011878669261932373,0.04238731786608696,0.018659450113773346,-0.054089657962322235,-0.11902633367615924,0.2960473505478316,1.3427687607532375
2.2389891147613525,0.022114813327789307,0.01195632666349411,0.03207135200500488,-0.059756796807050705,0.012395074591040611,-0.014240937307476997,-0.11936942884655105,0.2962104705473308,1.342485208355202
2.2491438388824463,0.01941448450088501,-0.021130584180355072,0.04578369855880737,-0.15223746001720428,0.00599523214623332,0.03062347322702408,-0.12063560646447748,0.2964654661180924,1.3429157587000133
2.259052038192749,0.02099362015724182,-0.0349101796746254,0.053587496280670166,-0.1783144176006317,0.030411047860980034,0.059787534177303314,-0.12249656274227984,0.296961139817004,1.3438503527313157
2.2703189849853516,0.007421016693115234,-0.0370243638753891,0.054065704345703125,-0.15858332812786102,0.07060614228248596,0.08485667407512665,-0.12439632485484715,0.29795801167520614,1.345103108563567
2.2798779010772705,-0.005844593048095703,-0.039191752672195435,0.03552919626235962,-0.09226944297552109,0.10144146531820297,0.09167100489139557,-0.12573492993496824,0.2993353260875148,1.3463812168375502
2.28906512260437,-0.009816646575927734,-0.04226762056350708,0.023442625999450684,-0.01755073480308056,0.10878565907478333,0.0790521502494812,-0.12629755764474648,0.300827535629215,1.3474163879332408
2.29901385307312,-0.004790544509887695,-0.02371297776699066,0.006148219108581543,0.04340950399637222,0.09475874900817871,0.05529739335179329,-0.12611303770072158,0.3021670274654822,1.3480452937998884
2.3090078830718994,0.0020914971828460693,0.004285663366317749,-0.01248997449874878,0.09244842082262039,0.06710021942853928,0.03158487379550934,-0.12543754725881823,0.3031873191916042,1.3482835194583878
2.3190319538116455,0.010053962469100952,0.021371997892856598,-0.02009439468383789,0.11722005903720856,0.0417722687125206,0.011060744524002075,-0.12441071681019121,0.30387489373577525,1.3481802042957154
2.3294990062713623,0.008278489112854004,0.03472103178501129,-0.023801982402801514,0.1180400475859642,0.026117676869034767,0.0026752492412924767,-0.12316763842888155,0.30431556935604115,1.3478962903469927
2.3389670848846436,0.0057465434074401855,0.028475239872932434,-0.01445680856704712,0.10259059071540833,0.027100559324026108,0.006836757995188236,-0.12191196439841286,0.30473326427509284,1.3476229444209264
2.3491618633270264,0.0068015456199646,0.017890602350234985,0.009253263473510742,0.08320623636245728,0.034013062715530396,0.013220088556408882,-0.12075406945735012,0.3051377927956366,1.3474377597748268
2.359123945236206,0.009207457304000854,0.00834539532661438,0.011952340602874756,0.05977237969636917,0.042247381061315536,0.011339311487972736,-0.11967133952977459,0.3054563238858905,1.3473399225526053
2.369148015975952,0.009986251592636108,0.018751181662082672,0.01780378818511963,0.03841862827539444,0.050903450697660446,0.0102221155539155,-0.11871926259642246,0.3057420361296147,1.3472760951288196
2.379744052886963,0.00782698392868042,0.016847796738147736,0.0287095308303833,0.028387097641825676,0.04959939047694206,0.01705259084701538,-0.11813133562477864,0.30613100964500617,1.3472786247406858
2.3891079425811768,0.0042077600955963135,0.008055880665779114,0.028657853603363037,0.009110603481531143,0.050640687346458435,0.020811909809708595,-0.11802665568591111,0.3065975138560018,1.3473960954242068
2.399101972579956,0.003709554672241211,0.009834475815296173,0.009459853172302246,-0.019439049065113068,0.048591647297143936,0.034699175506830215,-0.11834070347999343,0.3072001037363322,1.3476886191452553
2.4091298580169678,0.003149658441543579,0.00643012672662735,-0.0014704465866088867,-0.06963404268026352,0.035836171358823776,0.04181380942463875,-0.11918753880130677,0.30771096780769197,1.3481929432070319
2.419184923171997,0.008399605751037598,0.006391562521457672,0.0055699944496154785,-0.11405254155397415,0.02814611792564392,0.04559102654457092,-0.12044053070389948,0.30812887723866694,1.3488993326876257
2.430083990097046,0.01505899429321289,0.0008067488670349121,0.016735434532165527,-0.1423635333776474,0.025634758174419403,0.04622592031955719,-0.12194703273522019,0.30868049120693697,1.3497490900020295
2.439194917678833,0.012510478496551514,0.0010381639003753662,0.01963937282562256,-0.15465892851352692,0.029485732316970825,0.0435902439057827,-0.12338968296936102,0.3092701720434321,1.3506650115418668
2.4494659900665283,0.008510559797286987,0.0023966655135154724,0.013109266757965088,-0.13980887830257416,0.032320134341716766,0.04473487287759781,-0.12500381741346905,0.30995037670943815,1.3515872230412345
2.4594249725341797,0.007203936576843262,-0.007865652441978455,0.008201003074645996,-0.12290696799755096,0.02519981935620308,0.04563656449317932,-0.12642724506949443,0.31063198635919526,1.3524413693424324
2.4699208736419678,0.0046062469482421875,-0.013819009065628052,-0.00012117624282836914,-0.10921086370944977,0.02008548378944397,0.043857838958501816,-0.1274603402027811,0.31114685835127087,1.3532393395850846
2.48103404045105,0.003126204013824463,-0.009747445583343506,-0.007056474685668945,-0.0962233617901802,0.01716683804988861,0.049215108156204224,-0.12833981569067457,0.31147409384515373,1.3540172732097755
2.4894211292266846,0.002590775489807129,-0.010379299521446228,-0.006932616233825684,-0.09965324401855469,0.00897308997809887,0.05268760398030281,-0.12905387231119922,0.31168309954560475,1.3547968119514104
2.4997479915618896,0.0007901191711425781,-0.01346445083618164,-0.01286160945892334,-0.09852654486894608,-0.0012630801647901535,0.0569031722843647,-0.12981075157676364,0.31195747263181384,1.3556521991123436
2.509424924850464,0.001796633005142212,-0.008279725909233093,-0.019539952278137207,-0.08453615754842758,-0.013419612310826778,0.05349219590425491,-0.13042959195936485,0.31229143333755827,1.3565072863617265
2.5205650329589844,-0.0010755658149719238,0.005914121866226196,-0.02492380142211914,-0.0644032284617424,-0.025053631514310837,0.05087079480290413,-0.13093426947197642,0.3124783606871739,1.3572734184763466
2.5306589603424072,-0.004389524459838867,0.01417917013168335,-0.02526801824569702,-0.05964761972427368,-0.03516938164830208,0.04351860657334328,-0.13135508857933187,0.31243457291949694,1.3579415373735804
2.5393869876861572,0.0017295479774475098,0.018326133489608765,-0.025656521320343018,-0.04596323147416115,-0.03161308541893959,0.03233674168586731,-0.13154324534880893,0.31228053564849434,1.3584838226368774
2.549520969390869,0.001017242670059204,0.01826685667037964,-0.015994787216186523,-0.027950145304203033,-0.032912977039813995,0.026154475286602974,-0.13147990811519134,0.31204625102354255,1.3588845141544825
2.559352159500122,-0.0020427703857421875,0.022614121437072754,-0.019897937774658203,-0.013954484835267067,-0.04317409172654152,0.015070025809109211,-0.13137365526961906,0.3116784936801668,1.3591459845104503
2.569424867630005,-1.4871358871459961e-05,0.026530861854553223,-0.026348650455474854,-0.005074706859886646,-0.05604062229394913,-0.0024772752076387405,-0.13119377097718465,0.3111873977416743,1.3592227021686487
2.579957962036133,0.0009271204471588135,0.038291603326797485,-0.028480827808380127,0.009286371991038322,-0.06099476292729378,-0.01427097711712122,-0.130951350314128,0.31051865598091327,1.359133306201211
2.5893959999084473,0.008231759071350098,0.0449209064245224,-0.019890666007995605,0.022781940177083015,-0.06486193835735321,-0.020417019724845886,-0.13069805476422003,0.3098176129831358,1.358899149215502
2.5996549129486084,0.010341227054595947,0.041458845138549805,-0.00657123327255249,0.023807190358638763,-0.06658092141151428,-0.02346452884376049,-0.13057322939800906,0.3090651673561524,1.3586095856324891
2.609412908554077,0.008826136589050293,0.038369953632354736,-0.006043791770935059,0.027604326605796814,-0.06565627455711365,-0.03253232315182686,-0.1305337312959863,0.30829290074514587,1.3582482477342606
2.6193721294403076,0.0011261701583862305,0.04432205855846405,-0.007632911205291748,0.03381074219942093,-0.06974835693836212,-0.039385437965393066,-0.13048638727186243,0.30755814380271107,1.357817639719703
2.6299631595611572,-0.003190934658050537,0.04817385971546173,-0.0041291117668151855,0.022178053855895996,-0.08123616874217987,-0.05035819485783577,-0.1304797398041609,0.30676553272441565,1.3572937258861477
2.6394388675689697,-0.005268394947052002,0.04147954285144806,-0.0017418265342712402,0.012038949877023697,-0.09210439026355743,-0.047745365649461746,-0.13064470115459345,0.30580631512001966,1.3567682712937463
2.649472951889038,-0.004578351974487305,0.03125530481338501,-0.0006428360939025879,0.006029526237398386,-0.09707571566104889,-0.05030306428670883,-0.1308918019762471,0.3047802662622069,1.356268845121919
2.659482002258301,-0.006096303462982178,0.028704270720481873,0.010266423225402832,-0.011540579609572887,-0.09649239480495453,-0.051463887095451355,-0.1313717570011046,0.3037592973034472,1.3557914472170056
2.6694040298461914,-0.007825106382369995,0.02475254237651825,0.017644107341766357,-0.03681264445185661,-0.10255081951618195,-0.056030143052339554,-0.1322026246706545,0.3028147328528403,1.3553622941994787
2.679986000061035,-0.006422132253646851,0.025494098663330078,0.0034079551696777344,-0.054994046688079834,-0.11246976256370544,-0.06971000134944916,-0.13330181128420435,0.30187774320478,1.3549336832334007
2.6895060539245605,-0.0050164759159088135,0.03397423028945923,-0.002773284912109375,-0.06612499803304672,-0.1285983920097351,-0.0868849977850914,-0.1345989114382032,0.30080147953719155,1.3543824572361047
2.7005350589752197,-0.008627593517303467,0.04039560258388519,0.0022495388984680176,-0.061796292662620544,-0.14376084506511688,-0.10264185070991516,-0.13609528435827087,0.2994566125324297,1.3536633536347276
2.7093939781188965,-0.007116079330444336,0.038167208433151245,0.002520620822906494,-0.06509648263454437,-0.15245047211647034,-0.11809244751930237,-0.13774400414218843,0.297946131393904,1.3528020563317034
2.719558000564575,-0.0067220330238342285,0.031746357679367065,0.008771240711212158,-0.06795085966587067,-0.15091969072818756,-0.12815919518470764,-0.1393123326862006,0.29635637268642834,1.3518151289186322
2.7296011447906494,-0.005679994821548462,0.027973636984825134,0.012396156787872314,-0.07361530512571335,-0.15212424099445343,-0.14197233319282532,-0.14076468936469583,0.2947548790270529,1.350732836540827
2.73954701423645,0.0006679892539978027,0.035140857100486755,0.011107683181762695,-0.08553935587406158,-0.15912804007530212,-0.15481215715408325,-0.1423104365648219,0.29314643757035985,1.3495535140339123
2.7495720386505127,0.0008147358894348145,0.032597824931144714,0.013444304466247559,-0.10446857661008835,-0.18594633042812347,-0.1723216474056244,-0.14398557049297028,0.2913738117159455,1.3482608111073202
2.7595608234405518,0.003232121467590332,0.026372119784355164,0.006944060325622559,-0.13899734616279602,-0.21734283864498138,-0.2037913203239441,-0.1459441177787219,0.28923144958956276,1.3468106643611644
2.769634962081909,0.007570743560791016,0.037650272250175476,-0.00035184621810913086,-0.180337056517601,-0.24318374693393707,-0.23381899297237396,-0.148471998599885,0.2867790380369745,1.34515533623454
2.779721975326538,0.0022968053817749023,0.047204792499542236,0.0055119991302490234,-0.20736563205718994,-0.24385122954845428,-0.2501238286495209,-0.15150957313273208,0.2841576707650172,1.3433675776325569
2.789520025253296,-0.0010138154029846191,0.041582316160202026,0.02668827772140503,-0.19186018407344818,-0.20900483429431915,-0.2558877170085907,-0.15455841596154934,0.2817212602528578,1.3414873019897446
2.7998569011688232,-0.007097333669662476,0.017870232462882996,0.04991263151168823,-0.17519257962703705,-0.16343854367733002,-0.24680733680725098,-0.15730775687933682,0.279718911684945,1.3395847174044115
2.809708833694458,-0.007621407508850098,0.002051606774330139,0.04594606161117554,-0.17974577844142914,-0.12268444895744324,-0.24278809130191803,-0.1599144946272847,0.27820435668641175,1.3377193264025806
2.819862127304077,-0.004020661115646362,0.000777706503868103,0.03328251838684082,-0.22341512143611908,-0.11291499435901642,-0.2545282542705536,-0.16279749220942788,0.2770042006344691,1.335899551147084
2.8300390243530273,-0.0027390718460083008,0.008738622069358826,0.03883469104766846,-0.3138166666030884,-0.13147270679473877,-0.2763693630695343,-0.1660808286545477,0.2754867868794435,1.334030741281846
2.839648962020874,0.0029911696910858154,0.019970327615737915,0.04553210735321045,-0.41907286643981934,-0.15050511062145233,-0.2997463345527649,-0.1703822549074394,0.27375440469028567,1.3322344116315854
2.849684000015259,0.009623110294342041,0.025562778115272522,0.04438161849975586,-0.5016734600067139,-0.1692521721124649,-0.3314256966114044,-0.17570302052564563,0.27183296801765755,1.3304059227474099
2.859637975692749,0.008704721927642822,0.026692360639572144,0.04215294122695923,-0.5551305413246155,-0.18585462868213654,-0.36609166860580444,-0.18173433530347066,0.269708501212888,1.3284348387882805
2.869719982147217,0.016792386770248413,0.03510773181915283,0.02086031436920166,-0.5705822110176086,-0.21329371631145477,-0.4051453173160553,-0.18823083778974106,0.26730537098933405,1.3261930439312721
2.8796639442443848,0.025052577257156372,0.04176107048988342,0.0075681209564208984,-0.5463454127311707,-0.24223707616329193,-0.4657984972000122,-0.19477389437861187,0.2644879941367488,1.3234242557158122
2.8897440433502197,0.026362180709838867,0.05164375901222229,0.0028676390647888184,-0.5103357434272766,-0.2780187726020813,-0.541806161403656,-0.20122202802678982,0.2611804209437081,1.3198765550661042
2.8998348712921143,0.029053151607513428,0.06339128315448761,-0.004796147346496582,-0.4442370533943176,-0.3054715096950531,-0.6261782050132751,-0.20733228015566146,0.2573349182950068,1.3153702241236427
2.909801959991455,0.032087624073028564,0.06467562913894653,-0.012562930583953857,-0.34949108958244324,-0.3425307273864746,-0.7227414846420288,-0.21289951009598548,0.25290629553905103,1.3096996130193723
2.9207661151885986,0.03415137529373169,0.06923931837081909,-0.020492196083068848,-0.2305532693862915,-0.3774717450141907,-0.8078421354293823,-0.21763081640822657,0.2478304401288905,1.3028461746921125
2.9300239086151123,0.047834768891334534,0.0787905752658844,-0.03060978651046753,-0.1622607558965683,-0.40932926535606384,-0.903515100479126,-0.2215557798868413,0.242139020071858,1.2948165707689034
2.939628839492798,0.0576062947511673,0.09062355756759644,-0.028614938259124756,-0.13551534712314606,-0.4382777810096741,-0.9859746098518372,-0.22524099933905692,0.2358784862103397,1.285727521520843
2.9499759674072266,0.06420114636421204,0.08196677267551422,-0.007722735404968262,-0.11915049701929092,-0.4513099491596222,-1.0628738403320312,-0.22883248358823294,0.22916747968608644,1.2757883335475797
2.959864854812622,0.07923378050327301,0.08561155200004578,0.01573765277862549,-0.1597665399312973,-0.46288758516311646,-1.1528605222702026,-0.23265910672770718,0.2221340740657153,1.2650016192141171
2.9699318408966064,0.08581067621707916,0.0839918702840805,0.03539919853210449,-0.1834428310394287,-0.4734955132007599,-1.2103564739227295,-0.23692892740112717,0.21474267030208302,1.253493511773014
2.9806368350982666,0.1020955741405487,0.0636969804763794,0.03322303295135498,-0.20877611637115479,-0.47953689098358154,-1.2794958353042603,-0.24143725259915388,0.2071037314905693,1.2413929672673147
2.9900660514831543,0.11832277476787567,0.06278154253959656,0.02732563018798828,-0.23643463850021362,-0.49852949380874634,-1.3586505651474,-0.24628013205776245,0.19910864137559556,1.2285143534927723
3.0003950595855713,0.11738008260726929,0.05406045913696289,0.028984546661376953,-0.27175068855285645,-0.5221547484397888,-1.4367456436157227,-0.2514999636979939,0.1906209641657755,1.2148434241262076
3.0100648403167725,0.13976435363292694,0.052632272243499756,0.014780938625335693,-0.2551403045654297,-0.5467115044593811,-1.5031009912490845,-0.2568854044512579,0.18164430213070337,1.200414348164408
3.0211498737335205,0.1568489670753479,0.04708150029182434,0.012955904006958008,-0.20107877254486084,-0.5790706276893616,-1.5705769062042236,-0.2618389017270376,0.1721020828797068,1.1851796069408704
3.030961036682129,0.14853143692016602,0.027832478284835815,0.024565935134887695,-0.16722919046878815,-0.6147351264953613,-1.6361987590789795,-0.26628855867132323,0.16193516105940312,1.1690944124591491
3.040382146835327,0.14717145264148712,0.024798661470413208,0.029353320598602295,-0.21842555701732635,-0.6463003754615784,-1.7151384353637695,-0.2707486669130843,0.15113984743904038,1.1522185095520174
3.0500528812408447,0.1627771109342575,0.0335516631603241,0.02590000629425049,-0.3222704529762268,-0.6676927208900452,-1.8033127784729004,-0.27596819220245694,0.13976260842196758,1.134530818742714
3.0600500106811523,0.16617713868618011,0.04741677641868591,0.01862645149230957,-0.4895801246166229,-0.6817499399185181,-1.9152196645736694,-0.2824340468255051,0.12785816888350962,1.1159023830395842
3.069990873336792,0.1810738742351532,0.06930980086326599,-0.0006652474403381348,-0.6731789708137512,-0.6794081926345825,-2.014578342437744,-0.2906298041451893,0.11548850895438943,1.096279825375147
3.0804460048675537,0.20283067226409912,0.08944699168205261,-0.018640458583831787,-0.7883324027061462,-0.6641465425491333,-2.099428653717041,-0.3002202672702841,0.10276564584638571,1.075717758978425
3.0900719165802,0.21434572339057922,0.08862712979316711,-0.03246086835861206,-0.8134230971336365,-0.6143576502799988,-2.1852974891662598,-0.31027895444715553,0.0898814053153283,1.0541740012160183
3.1000778675079346,0.2206207513809204,0.0948953926563263,-0.03256797790527344,-0.7614458799362183,-0.5335156321525574,-2.2838120460510254,-0.3200884617222499,0.07706726461007923,1.0314038403537078
3.1100528240203857,0.22074377536773682,0.1075165867805481,-0.01053839921951294,-0.5415348410606384,-0.4451011121273041,-2.3607590198516846,-0.32827969124368006,0.06448015909195755,1.0074125082325598
3.120177984237671,0.21605178713798523,0.12702202796936035,0.008023262023925781,-0.2592954635620117,-0.3480021059513092,-2.455448865890503,-0.33371205559260947,0.052330094088544776,0.9822264136712942
3.1307220458984375,0.2069270759820938,0.15192201733589172,0.011479616165161133,0.03463387489318848,-0.24461102485656738,-2.551708698272705,-0.335992583526286,0.040657211044473125,0.955763627725197
3.1401610374450684,0.20840921998023987,0.16722968220710754,0.014527499675750732,0.32010552287101746,-0.13152992725372314,-2.634007692337036,-0.33511660857776343,0.029697110779154354,0.9282154819622903
3.150315046310425,0.22021780908107758,0.17870834469795227,0.023538649082183838,0.5262989401817322,-0.0009279660880565643,-2.7141354084014893,-0.3314630675065539,0.019733929697621166,0.8997839920799563
3.1600449085235596,0.2233445942401886,0.1903780698776245,0.038887202739715576,0.5976560711860657,0.11550433188676834,-2.786799907684326,-0.32619439104204795,0.010903674890723344,0.8705950957499333
3.1702358722686768,0.23030677437782288,0.21573704481124878,0.06372851133346558,0.5681096315383911,0.21414461731910706,-2.852173328399658,-0.32049873340774404,0.0030646282187785055,0.8407860323184998
3.1804568767547607,0.2320457249879837,0.24795302748680115,0.09821617603302002,0.4934391379356384,0.3269312381744385,-2.912264108657837,-0.3151607931556419,-0.003712971237015248,0.8103873954364198
3.190112829208374,0.22289596498012543,0.27326083183288574,0.10790777206420898,0.43536919355392456,0.4065821170806885,-2.9726078510284424,-0.3103726558132475,-0.00953002051409665,0.7794561414307541
3.200181007385254,0.22894057631492615,0.268310010433197,0.09952902793884277,0.484887033700943,0.43527722358703613,-2.9944379329681396,-0.3055443233080313,-0.014813977014494491,0.7481211303496826
3.2101309299468994,0.23347854614257812,0.24052497744560242,0.08640778064727783,0.7139689326286316,0.4444260001182556,-2.9730803966522217,-0.29906965778827677,-0.019661320495065422,0.7169417857616678
3.2201550006866455,0.21139857172966003,0.21881359815597534,0.045339345932006836,0.9425593018531799,0.4340003728866577,-3.0090444087982178,-0.2901380160007564,-0.02429047855947108,0.6858618885268416
3.230501890182495,0.16610269248485565,0.21364068984985352,0.023711442947387695,1.0974252223968506,0.4164799749851227,-3.0285582542419434,-0.27904115319324596,-0.02879246314682968,0.6546505258451051
3.2401769161224365,0.12445913255214691,0.18123632669448853,0.028036892414093018,1.144141674041748,0.4289915859699249,-3.0322070121765137,-0.26683466473339823,-0.03293320877226897,0.6235106376690179
3.2503440380096436,0.1088864654302597,0.15132468938827515,0.04886162281036377,1.0530474185943604,0.44769683480262756,-3.020451545715332,-0.2547103339934317,-0.036556950946199075,0.5925357304033374
3.2602860927581787,0.0897715836763382,0.12509742379188538,0.07516080141067505,0.8950414061546326,0.47947028279304504,-2.982497453689575,-0.2437803613808895,-0.03946524674726793,0.5619148465332209
3.2714309692382812,0.07724635303020477,0.10874317586421967,0.11018240451812744,0.7046091556549072,0.502515435218811,-2.9402241706848145,-0.23463615585241357,-0.04167202537332904,0.531764239561556
3.2806098461151123,0.07218989729881287,0.07778395712375641,0.1422640085220337,0.579262375831604,0.5177844166755676,-2.8951528072357178,-0.22701742106629288,-0.04337840023499931,0.5020457783048261
3.2902560234069824,0.055292073637247086,0.01834404468536377,0.1454688310623169,0.5236004590988159,0.514247477054596,-2.8336715698242188,-0.22029563536206834,-0.04465162917987503,0.47292095474545
3.3002851009368896,0.03683846443891525,-0.03488650918006897,0.11142539978027344,0.5909065008163452,0.5266186594963074,-2.752378225326538,-0.21358497548212266,-0.04556436779118183,0.44452883074177757
3.310237169265747,0.024243038147687912,-0.06166099011898041,0.080910325050354,0.6795439720153809,0.526215136051178,-2.678036689758301,-0.20599813425008878,-0.04599864466025682,0.41708069827901095
3.320296049118042,0.015362627804279327,-0.03416559100151062,0.06771188974380493,0.8003747463226318,0.5163317322731018,-2.6056971549987793,-0.19735525162138245,-0.04610451443372358,0.39044431638028754
3.3306360244750977,-0.0008024424314498901,0.00777745246887207,0.09668850898742676,0.8471190929412842,0.503683865070343,-2.5067362785339355,-0.1879064751600719,-0.0459045936294025,0.3647734906799204
3.340399980545044,-0.015977926552295685,-0.029152333736419678,0.13160455226898193,0.765175461769104,0.5008976459503174,-2.408451795578003,-0.17862984807127524,-0.045367159549591626,0.3401470710681325
3.3504889011383057,-0.024105582386255264,-0.09592215716838837,0.16043531894683838,0.5780482292175293,0.48370692133903503,-2.3188836574554443,-0.17080234292540616,-0.04455035006904129,0.3164718681596602
3.360417127609253,-0.02376941591501236,-0.1512729972600937,0.17074161767959595,0.339749276638031,0.4745151102542877,-2.25567889213562,-0.1651606771430215,-0.04361010953356351,0.29349998187240467
3.3704330921173096,-0.018724337220191956,-0.18095062673091888,0.15789669752120972,0.0766579657793045,0.45318374037742615,-2.195180654525757,-0.16222149475516126,-0.0425927968221091,0.27100634100066406
3.380634069442749,-0.008972704410552979,-0.19172422587871552,0.12004107236862183,-0.021012160927057266,0.4071808159351349,-2.136915445327759,-0.16107832795147295,-0.0418434441977942,0.2490776863915275
3.3904521465301514,-0.0012874305248260498,-0.21509487926959991,0.0786324143409729,-0.05978885293006897,0.4097774028778076,-2.104130744934082,-0.1606396114592395,-0.04123186072363801,0.22757207168267143
3.4005000591278076,-0.00807279720902443,-0.2118508219718933,0.014248013496398926,-0.08086004853248596,0.43924829363822937,-2.0681872367858887,-0.16052210991238103,-0.04036959999153071,0.2063842196382512
3.410299062728882,-0.02196808159351349,-0.19857865571975708,-0.007475078105926514,-0.05588971823453903,0.4648814797401428,-2.0196564197540283,-0.16040145818294219,-0.039167742756941626,0.18563079504974928
3.4203908443450928,-0.03811712935566902,-0.21507528424263,0.010895907878875732,0.007763694040477276,0.504710853099823,-1.9729171991348267,-0.15992419823314058,-0.037566248638699035,0.16538957448572253
3.430722951889038,-0.0540122427046299,-0.21253398060798645,0.035987019538879395,0.051050446927547455,0.5828117728233337,-1.9430009126663208,-0.15886484249637908,-0.03529130520181402,0.14555449138459686
3.440402030944824,-0.06573859602212906,-0.18044184148311615,0.040901780128479004,0.11038011312484741,0.6397280097007751,-1.9068913459777832,-0.1574712428593921,-0.03221491859793279,0.1260699174722519
3.450759172439575,-0.06261096149682999,-0.17724289000034332,0.04527658224105835,0.1965932995080948,0.681214451789856,-1.8657721281051636,-0.15536041135629447,-0.028572563464022666,0.1069977587406612
3.4605109691619873,-0.05492476001381874,-0.2226727455854416,0.05354273319244385,0.2675553262233734,0.7127424478530884,-1.8154867887496948,-0.15250825346960115,-0.0244476924815991,0.08841349734774111
3.470700979232788,-0.05057854950428009,-0.2173204869031906,0.048381268978118896,0.25840070843696594,0.7582463026046753,-1.7658063173294067,-0.14945585870606204,-0.019803379674973823,0.07033937641577452
3.4808480739593506,-0.04794292151927948,-0.17378653585910797,0.05894738435745239,0.2026473879814148,0.7941622138023376,-1.6999751329421997,-0.1468016646974845,-0.014607875457488661,0.05283294044039258
3.490600824356079,-0.045529332011938095,-0.1873234212398529,0.08713853359222412,0.09893377125263214,0.7991013526916504,-1.64315927028656,-0.14509209602137124,-0.0090858925075096,0.03594189468401663
3.5009381771087646,-0.04020789638161659,-0.2291702777147293,0.10972636938095093,-0.06466210633516312,0.8262454867362976,-1.5853419303894043,-0.14477560092751054,-0.0033143055611453104,0.019603952316003537
3.5104801654815674,-0.033547092229127884,-0.23044580221176147,0.10740166902542114,-0.24120119214057922,0.8514927625656128,-1.5145217180252075,-0.14629608019184645,0.0028154803197236937,0.0038993819947490877
3.5205459594726562,-0.022630786523222923,-0.21342569589614868,0.10070812702178955,-0.35009101033210754,0.8661274909973145,-1.4278968572616577,-0.1494211640037438,0.009214323470697618,-0.010989116080408425
3.530730962753296,-0.009396611712872982,-0.21691583096981049,0.07809996604919434,-0.4069351255893707,0.8663445115089417,-1.3257218599319458,-0.153399324034694,0.015793064057589096,-0.024904273279273154
3.5406248569488525,0.00890478864312172,-0.18959781527519226,0.03627502918243408,-0.3942689895629883,0.8491978645324707,-1.218369483947754,-0.1577191639974658,0.02241164121623798,-0.03772039700162385
3.550662040710449,0.0287120770663023,-0.11753752827644348,0.0050580501556396484,-0.297561913728714,0.8070456385612488,-1.1223604679107666,-0.16148184368998839,0.028841808574922852,-0.04947473325383462
3.5606868267059326,0.044044557958841324,-0.09406353533267975,-0.030418217182159424,-0.20265677571296692,0.7664175033569336,-1.0331840515136719,-0.16433653766375558,0.03497064168014601,-0.060313120812872316
3.570781946182251,0.04249413311481476,-0.11333370208740234,-0.04947841167449951,-0.11276976019144058,0.7169149518013,-0.9585220813751221,-0.16628400258749704,0.040751229185187386,-0.07034415134590863
3.5809550285339355,0.03363396227359772,-0.1392015516757965,-0.0543559193611145,-0.01574677601456642,0.6622606515884399,-0.8984963297843933,-0.16735592893288004,0.046097246835191896,-0.07972520689832192
3.590736150741577,0.027156144380569458,-0.15992984175682068,-0.053741633892059326,0.08581047505140305,0.6116688251495361,-0.840911328792572,-0.1673938344035299,0.050986165058091615,-0.088581908778247
3.600942850112915,0.019601181149482727,-0.17340940237045288,-0.058335959911346436,0.13341636955738068,0.5818994045257568,-0.7775036096572876,-0.1666881723272911,0.05556858364143277,-0.09685028458300637
3.610771894454956,0.012820061296224594,-0.1607631891965866,-0.06763935089111328,0.11310364305973053,0.5638999342918396,-0.705903172492981,-0.16585605092431563,0.0600457610432852,-0.10444334905231446
3.621680974960327,0.011333920061588287,-0.14736129343509674,-0.0716714859008789,0.05985965207219124,0.5376066565513611,-0.6314047574996948,-0.1653562478332735,0.06443331538640223,-0.11128002675927669
3.6309478282928467,0.013940483331680298,-0.16467171907424927,-0.07946676015853882,-0.05068017542362213,0.5094112157821655,-0.5539137125015259,-0.16568818748355343,0.06868800892630375,-0.1172889017892587
3.6407010555267334,0.018915101885795593,-0.1781815141439438,-0.08438318967819214,-0.1858198344707489,0.4766450822353363,-0.4672985076904297,-0.16721035550320704,0.07278537978236142,-0.12237462947652815
3.6507351398468018,0.022737406194210052,-0.17788976430892944,-0.0685160756111145,-0.3106882572174072,0.4487577974796295,-0.38191407918930054,-0.17004104017292226,0.07674072949066403,-0.1264849832574058
3.660675048828125,0.02047136425971985,-0.1768798679113388,-0.04376339912414551,-0.3800080418586731,0.4148823022842407,-0.3031942844390869,-0.17377053495332337,0.0805125041955329,-0.12967104547690947
3.6707770824432373,0.014438383281230927,-0.17253711819648743,-0.020879149436950684,-0.41490665078163147,0.3776364028453827,-0.2429565042257309,-0.17800757393611494,0.08406380539351291,-0.13209184663777002
3.6810801029205322,0.010610803961753845,-0.16623859107494354,-0.010005474090576172,-0.4146967828273773,0.32970234751701355,-0.19701170921325684,-0.18233824863861667,0.08727366163729504,-0.1339480915674856
3.6907529830932617,0.014287136495113373,-0.16199731826782227,-0.016101837158203125,-0.4024347960948944,0.27565163373947144,-0.15478143095970154,-0.1865764625315419,0.09004093032869626,-0.13536768588618853
3.700839042663574,0.023064598441123962,-0.1462375372648239,-0.03636270761489868,-0.3801021873950958,0.22647535800933838,-0.10933416336774826,-0.1906024265578907,0.0923537334145262,-0.136342794853665
3.7107720375061035,0.028688646852970123,-0.1235453188419342,-0.06507086753845215,-0.3319956362247467,0.1917456090450287,-0.06526097655296326,-0.1942532200428675,0.09433178634343438,-0.1368825367405019
3.7208759784698486,0.02573290467262268,-0.11330866813659668,-0.08792316913604736,-0.2734861671924591,0.17389723658561707,-0.028320323675870895,-0.19730423951165202,0.09611958660333611,-0.13706441073378733
3.730921983718872,0.020921669900417328,-0.11839278042316437,-0.1036384105682373,-0.21260233223438263,0.15575870871543884,0.008117844350636005,-0.19975083907776947,0.09779863603359423,-0.1369264791710361
3.7408549785614014,0.016801126301288605,-0.11531570553779602,-0.10827982425689697,-0.1609809845685959,0.13401223719120026,0.03565119951963425,-0.20156241893536114,0.09932224089964023,-0.13651581939704327
3.7510998249053955,0.011205807328224182,-0.10628648102283478,-0.09870082139968872,-0.1486087441444397,0.11895258724689484,0.0638628676533699,-0.20303066918554374,0.10072529602907353,-0.13585169111855894
3.760793924331665,0.005820758640766144,-0.09886026382446289,-0.08576178550720215,-0.17021700739860535,0.10281893610954285,0.08774683624505997,-0.2045158023758205,0.10202376714999947,-0.13491375298104016
3.7708380222320557,-0.00035139918327331543,-0.09976185858249664,-0.07182395458221436,-0.21189014613628387,0.08408785611391068,0.10539720207452774,-0.2063095912373962,0.1031982199607405,-0.133724640740816
3.780914068222046,-0.004177376627922058,-0.0969950407743454,-0.06053370237350464,-0.2471238374710083,0.06538483500480652,0.11594779789447784,-0.20848752205129606,0.10422949623457066,-0.1323585113254907
3.790820837020874,-0.006516806781291962,-0.08602133393287659,-0.04865342378616333,-0.2586494982242584,0.04373626038432121,0.11569160223007202,-0.21090288988935726,0.10507277228048008,-0.13091085086798598
3.800894021987915,-0.008441045880317688,-0.07083801925182343,-0.03959536552429199,-0.24749112129211426,0.029192209243774414,0.11418899148702621,-0.213305789158978,0.10572563515688967,-0.12947688511672528
3.810991048812866,-0.011836916208267212,-0.05248598754405975,-0.03545790910720825,-0.2272510975599289,0.0189901702105999,0.11074099689722061,-0.21555895768982467,0.10625764312104638,-0.12807413483309968
3.82100510597229,-0.014647647738456726,-0.033079639077186584,-0.03408551216125488,-0.20039373636245728,0.015180296264588833,0.10082881897687912,-0.21756169209502202,0.10670076695044461,-0.12676167341755096
3.831752061843872,-0.020314455032348633,-0.021941199898719788,-0.030571937561035156,-0.17328596115112305,0.02180357649922371,0.09349074959754944,-0.2193127697838087,0.10714145398684956,-0.12557497860028313
3.8408658504486084,-0.025594815611839294,-0.011698886752128601,-0.025860249996185303,-0.13936908543109894,0.03724871575832367,0.08135684579610825,-0.22076313290350863,0.10766479564336999,-0.12450712444301512
3.8509440422058105,-0.03086475282907486,-0.0035699158906936646,-0.01935100555419922,-0.11442537605762482,0.056836795061826706,0.06605538725852966,-0.22194021194123945,0.10832861982905613,-0.12361462979786336
3.86091685295105,-0.03600136935710907,0.0002116858959197998,-0.01053309440612793,-0.08646297454833984,0.07295961678028107,0.04436618462204933,-0.22288150700562334,0.10913294715366938,-0.12293446208241693
3.8709890842437744,-0.03757674992084503,-0.0004113614559173584,-0.0005969405174255371,-0.06336191296577454,0.0916917622089386,0.02709212154150009,-0.22319181452904033,0.1100417599211842,-0.12248547486336005
3.881035089492798,-0.03721725195646286,-0.00136604905128479,0.0019108057022094727,-0.02419423870742321,0.10715540498495102,-0.0015051147202029824,-0.2232945560004287,0.11105883345084364,-0.12230443102363443
3.890934944152832,-0.03565903753042221,-0.003502175211906433,0.005620777606964111,0.013900681398808956,0.11928930133581161,-0.027334315702319145,-0.22310668740710093,0.11212283370395927,-0.12246386030768586
3.900963068008423,-0.03403615951538086,-0.0023688673973083496,0.008808493614196777,0.04589207097887993,0.12734811007976532,-0.04154318571090698,-0.22264870423134628,0.11319191698537791,-0.12287221297043956
3.9110419750213623,-0.03068714588880539,0.0004929006099700928,0.008222997188568115,0.06761494278907776,0.13475781679153442,-0.0526600182056427,-0.22199870965335522,0.1142540055108402,-0.12345510093006834
3.9210808277130127,-0.02702021598815918,-0.00030416250228881836,0.00872039794921875,0.08261952549219131,0.13874368369579315,-0.0504029355943203,-0.22122034816755748,0.11528371670188815,-0.12412532230894621
3.931473970413208,-0.025559790432453156,-0.008427724242210388,0.008648872375488281,0.08562622964382172,0.13764353096485138,-0.04976377636194229,-0.2204288248355861,0.11622799135888426,-0.12480428520586861
3.941159963607788,-0.02578936517238617,-0.012795999646186829,0.007967650890350342,0.08826912194490433,0.13415338099002838,-0.04391142725944519,-0.21968266166369402,0.11693332417779582,-0.12549706955677736
3.9520370960235596,-0.023344703018665314,-0.01503494381904602,0.007632791996002197,0.09018686413764954,0.13332487642765045,-0.043339911848306656,-0.2190374909343016,0.11721213489114424,-0.1262439969563191
3.9610788822174072,-0.02244531363248825,-0.018549546599388123,0.002910315990447998,0.09288837760686874,0.1288653165102005,-0.045693669468164444,-0.21840180705319776,0.11727508681846324,-0.12705156142661808
3.9711711406707764,-0.021863773465156555,-0.02243305742740631,-0.004758059978485107,0.0880773738026619,0.11953386664390564,-0.04765615239739418,-0.21775337180925047,0.11736655962141626,-0.1278632028224484
3.981200933456421,-0.0198192298412323,-0.020956918597221375,-0.01453542709350586,0.08848822861909866,0.1152137741446495,-0.05767421796917915,-0.21717921533557355,0.11747760553162506,-0.12870927763893808
3.9911530017852783,-0.019757241010665894,-0.02053828537464142,-0.01685774326324463,0.092740498483181,0.10583145916461945,-0.07075406610965729,-0.2166255595448958,0.11760382524236213,-0.12965216329368012
4.001201868057251,-0.020258642733097076,-0.025480151176452637,-0.015200674533843994,0.09888521581888199,0.09985949844121933,-0.07546845078468323,-0.21599861239775286,0.11775837948415083,-0.1306615195718672
4.015923976898193,-0.020403921604156494,-0.0231827050447464,-0.015466928482055664,0.09215327352285385,0.0936061292886734,-0.07331821322441101,-0.21514626868069328,0.11793322505384016,-0.13166632321677382
4.024011850357056,-0.0171615332365036,-0.009624138474464417,-0.01834970712661743,0.0811280757188797,0.08242719620466232,-0.07550392299890518,-0.21427836751410353,0.11806030555819172,-0.13264854852060382
4.032641172409058,-0.013160593807697296,-0.007906705141067505,-0.01938652992248535,0.05903475359082222,0.06485619395971298,-0.07128547132015228,-0.2135202152986743,0.11811615633234182,-0.1335871335048199
4.041145086288452,-0.009974353015422821,-0.01468437910079956,-0.019627094268798828,0.03720157593488693,0.053217072039842606,-0.06915377825498581,-0.2128829462882175,0.11805555106009732,-0.13445552637211122
4.051265001296997,-0.006071075797080994,-0.01269705593585968,-0.02277541160583496,0.03075752779841423,0.04564517363905907,-0.07622873038053513,-0.2122547683434601,0.11791679171485973,-0.13531753453610362
4.061210870742798,-0.003952875733375549,-0.010707646608352661,-0.02489537000656128,0.025779645889997482,0.03312494233250618,-0.08065671473741531,-0.21170258933125222,0.11771697726557022,-0.13623101627504752
4.071352005004883,-0.0012305229902267456,-0.00898006558418274,-0.025457799434661865,0.028969578444957733,0.018461044877767563,-0.08285994827747345,-0.2111529488673706,0.11736655418519867,-0.1371842138371518
4.08129096031189,0.0027162134647369385,-0.008674532175064087,-0.018600106239318848,0.026929548010230064,0.00728957261890173,-0.08831026405096054,-0.21049721324216106,0.1168998456674031,-0.1381694567233592
4.091192007064819,0.0034495964646339417,-0.010006681084632874,-0.009584367275238037,0.02720172330737114,0.007528191432356834,-0.08538611233234406,-0.20990906322840153,0.11638146397318565,-0.13916932572853621
4.101288080215454,0.0003903135657310486,-0.008672669529914856,-0.0004661679267883301,0.02802126109600067,0.013981075026094913,-0.07651384174823761,-0.20957478583132313,0.11597253113886459,-0.14010071917807812
4.1112449169158936,0.0005025193095207214,-0.009493932127952576,0.0008862018585205078,0.03658279404044151,0.020160142332315445,-0.07297690212726593,-0.2092132157446497,0.11573816944190601,-0.1409423489333487
4.121248960494995,0.0018151327967643738,-0.016560986638069153,0.00010263919830322266,0.04965413361787796,0.018261972814798355,-0.07264944165945053,-0.20857601988853136,0.11559648913213069,-0.1417778412192404
4.13130784034729,0.006063051521778107,-0.022270068526268005,0.002043008804321289,0.05482705682516098,0.014610779471695423,-0.06692630797624588,-0.20787656340571758,0.11549468638732376,-0.14257265838576988
4.141291856765747,0.010838791728019714,-0.015015333890914917,0.006112992763519287,0.06784538924694061,0.012661345303058624,-0.06143539771437645,-0.20712112987139059,0.11541372165115489,-0.1433136936530669
4.151264905929565,0.012706495821475983,-0.013242244720458984,0.008262276649475098,0.06388074159622192,0.0169700738042593,-0.05542411282658577,-0.20632286110774092,0.11538800968419252,-0.14398654133967165
4.161417007446289,0.011064097285270691,-0.016881927847862244,0.004913985729217529,0.05790667235851288,0.020484913140535355,-0.047477345913648605,-0.20561404441859885,0.11550635611068513,-0.14457022430913646
4.1713478565216064,0.011107631027698517,-0.017702490091323853,0.00568079948425293,0.04683058336377144,0.015001998282968998,-0.04466185346245766,-0.20498712890829615,0.11565041109226701,-0.14508652201160332
4.181348085403442,0.010523363947868347,-0.02221497893333435,0.007136642932891846,0.036234281957149506,0.011845397762954235,-0.034597184509038925,-0.20454656477948385,0.11570710364644572,-0.14553608036154406
4.1914050579071045,0.00963824987411499,-0.017803683876991272,0.009703755378723145,0.026182448491454124,0.013966605998575687,-0.025220723822712898,-0.2041866124582023,0.11577697494649969,-0.14586133620431713
4.201941967010498,0.00834566354751587,-0.015183061361312866,0.009503185749053955,0.023601962253451347,0.01569415256381035,-0.018759949132800102,-0.2037387241124657,0.11591853036523928,-0.14611144764265263
4.211395025253296,0.004304349422454834,-0.018585920333862305,0.009985744953155518,0.028153037652373314,0.01607658341526985,-0.013685560785233974,-0.20317799625853852,0.11615368873451926,-0.14628060345725674
4.221387147903442,0.003261677920818329,-0.02056203782558441,0.010265886783599854,0.03574885427951813,0.015929533168673515,-0.014215690083801746,-0.2026717725709782,0.11646041817324361,-0.14642491841521946
4.231421947479248,0.003795348107814789,-0.009506940841674805,0.0071219801902771,0.05280853062868118,0.013562515377998352,-0.013310481794178486,-0.20210313907163072,0.11679218063747392,-0.1465715001778259
4.241472005844116,0.00452113151550293,-0.004627719521522522,0.0074211955070495605,0.06010939180850983,0.010729710571467876,-0.012032590806484222,-0.20129692124313636,0.11704623028032479,-0.14674542890889616
4.251415967941284,0.003599591553211212,-0.004821851849555969,0.0060918331146240234,0.061179712414741516,0.00970332883298397,-0.004491849802434444,-0.20046728750915924,0.11729906526131964,-0.1468821003724842
4.264405965805054,0.002616889774799347,-0.0003679245710372925,0.003248751163482666,0.053401969373226166,0.005588078871369362,-0.0008684595813974738,-0.19958152599992796,0.11753503189792809,-0.14694438023951595
4.2714879512786865,0.003746144473552704,-0.0006418228149414062,0.00455397367477417,0.04213573411107063,0.00045696645975112915,0.002212551422417164,-0.19889582146761903,0.11770666564694979,-0.14696498263135843
4.281513929367065,0.0025795698165893555,-0.00398688018321991,0.007098555564880371,0.02930060774087906,-0.005131544079631567,0.006810605991631746,-0.19838562415416505,0.11781132248868502,-0.1469336505823981
4.291434049606323,0.0014780089259147644,-0.002025291323661804,0.00985175371170044,0.012908321805298328,-0.008062086999416351,0.007446036208420992,-0.19795676224092565,0.11781979795827721,-0.1468661977882276
4.3015899658203125,0.0010368376970291138,-0.0001310110092163086,0.01125556230545044,0.013182029128074646,-0.011026095598936081,0.005682970397174358,-0.19758105519559024,0.11779385329288555,-0.14680247182379938
4.313788175582886,-0.002511247992515564,-0.0030470043420791626,0.015537261962890625,0.008919106796383858,-0.011457793414592743,0.0019058086909353733,-0.19741148338981127,0.1177354278793154,-0.14677227100363185
4.322128057479858,-0.0038094595074653625,-0.002715066075325012,0.01401597261428833,0.00822480395436287,-0.014303782023489475,0.006056185346096754,-0.19733749677332596,0.11768791438164389,-0.1467212980096435
4.331721067428589,-0.003471381962299347,0.004108741879463196,0.010577619075775146,0.019294498488307,-0.01593044027686119,0.009812840260565281,-0.19717869740196103,0.11760336935797096,-0.14663910898821098
4.341495990753174,-0.004998259246349335,0.0022985637187957764,0.01058119535446167,0.03311047703027725,-0.00641922652721405,0.012536775320768356,-0.19695513130460898,0.11755212018409002,-0.14654593494480314
4.351547002792358,-0.008776284754276276,-0.0026860684156417847,0.0065795183181762695,0.051184553653001785,0.000913787167519331,0.018535811454057693,-0.19654549567907453,0.11761448440512362,-0.14641919427521488
4.363484144210815,-0.00955682247877121,-0.0012200325727462769,0.008376657962799072,0.06000261381268501,0.0027304179966449738,0.022390203550457954,-0.19595309444925263,0.11771262347093152,-0.146263688145994
4.371603012084961,-0.008556991815567017,0.0003536790609359741,0.012201189994812012,0.05449652671813965,-0.001608936581760645,0.028051551431417465,-0.195375443904097,0.11780050823036414,-0.1460689022324794
4.381605863571167,-0.005691453814506531,0.0008360892534255981,0.01611095666885376,0.05575106292963028,-0.008107094094157219,0.030785342678427696,-0.19486814832761581,0.11782316169400213,-0.14582687234451996
4.391679048538208,-0.004856690764427185,-0.0010252892971038818,0.01824343204498291,0.047650791704654694,-0.007411209400743246,0.03433666378259659,-0.19435472058612466,0.11778445164170677,-0.1455518799324609
4.401850938796997,-0.004504792392253876,-0.0014856010675430298,0.014963805675506592,0.04471338912844658,-0.010486717335879803,0.03778311610221863,-0.1939063613296499,0.11772608336920905,-0.14525386830830309
4.413706064224243,-0.004203684628009796,0.0018338710069656372,0.012135148048400879,0.04024380445480347,-0.010686188004910946,0.03831841051578522,-0.19358688428909374,0.11764455145942815,-0.14492999263578663
4.421689987182617,-0.004324980080127716,0.002231419086456299,0.008131742477416992,0.04093816131353378,-0.006834723986685276,0.03583485633134842,-0.19325951709994707,0.11757354854798646,-0.14461382286773639
4.431874990463257,-0.0077634453773498535,0.0018750876188278198,0.005425989627838135,0.04012909159064293,-0.001354471780359745,0.04108341410756111,-0.1928452382982585,0.11750674314323134,-0.1442866049997505
4.441732168197632,-0.00881241261959076,0.0027445703744888306,0.005965709686279297,0.04162079095840454,-0.002731946762651205,0.039844561368227005,-0.1924412829991917,0.11746213272008704,-0.1439372298033737
4.455932855606079,-0.008852541446685791,0.0018956661224365234,0.010622262954711914,0.04332228749990463,-0.005880602635443211,0.03450998291373253,-0.1920625307614999,0.1174006930508355,-0.14362407687791898
4.465903997421265,-0.008275598287582397,0.0007700920104980469,0.0155143141746521,0.03481476753950119,-0.009865978732705116,0.03272806107997894,-0.1917324302081635,0.1173334796058512,-0.14334246566765607
4.471955060958862,-0.006510123610496521,0.002487882971763611,0.015934228897094727,0.018728211522102356,-0.013148858211934566,0.03297174349427223,-0.19150584457521413,0.11723905554561946,-0.1430417675762267
4.48184609413147,-0.005235612392425537,0.007015332579612732,0.011192858219146729,0.009508430026471615,-0.013450993224978447,0.032572537660598755,-0.1913860224219102,0.11713419359337994,-0.14273274051648774
4.491770029067993,-0.006869576871395111,0.0019758939743041992,0.010111808776855469,0.007501471787691116,-0.013519169762730598,0.02760414034128189,-0.1913590563554309,0.11702533778553979,-0.14244933611965266
4.501773118972778,-0.009298726916313171,-0.003038540482521057,0.009169816970825195,0.01092158630490303,-0.009816709905862808,0.025178268551826477,-0.19132213305617893,0.1169180270312433,-0.1421991396231813
4.514852046966553,-0.009396567940711975,0.0041538625955581665,0.005196988582611084,0.025462713092565536,-0.011686781421303749,0.0183872077614069,-0.19119219624304745,0.11678069134893938,-0.14201595032158912
4.521765947341919,-0.010430537164211273,0.008824273943901062,0.005767226219177246,0.03349728509783745,-0.01318325661122799,0.009714250452816486,-0.19095782839124034,0.11658387630449712,-0.14192862474517634
4.531803846359253,-0.010470479726791382,0.005666956305503845,0.006220340728759766,0.031184596940875053,-0.013941990211606026,0.0009689619764685631,-0.1907078797896138,0.1163688260665554,-0.14192746192464095
4.541862964630127,-0.012815229594707489,0.0027725696563720703,0.008234918117523193,0.026380155235528946,-0.010360660031437874,-0.010219563730061054,-0.19050099416504954,0.1161711773022779,-0.14202083013402106
4.551822900772095,-0.015955135226249695,-0.0010972768068313599,0.009280860424041748,0.019020775333046913,-0.011737782508134842,-0.014517373405396938,-0.19040177815212977,0.1159933735845022,-0.1421896000751419
4.56317400932312,-0.014103353023529053,-0.001380428671836853,0.009159684181213379,0.008803308010101318,-0.014202669262886047,-0.017977990210056305,-0.1904415106549929,0.11578527908625487,-0.14238986672333737
4.571842908859253,-0.012563958764076233,0.001605689525604248,0.0029630064964294434,0.0005389868747442961,-0.013353120535612106,-0.021415865048766136,-0.1905083536461607,0.11555389237307478,-0.1425958448141984
4.58179783821106,-0.012336492538452148,-0.0005765855312347412,0.00021457672119140625,0.00316850864328444,-0.01557752676308155,-0.024369310587644577,-0.19052416935192729,0.11527410679581424,-0.14284469765008842
4.5918800830841064,-0.014173611998558044,-0.00651136040687561,0.0023214221000671387,0.007234090007841587,-0.011348960921168327,-0.02391231246292591,-0.19060096260121434,0.11500045524265079,-0.14310724140467299
4.601845979690552,-0.016214638948440552,-0.007504507899284363,0.00615084171295166,0.017949584871530533,-0.005743005778640509,-0.022715488448739052,-0.19066446675367643,0.11476346991761807,-0.143376697507199
4.613747835159302,-0.014527186751365662,-0.005749046802520752,0.007787108421325684,0.02009662613272667,-0.0027799727395176888,-0.021029973402619362,-0.19060158712811684,0.11456514895795888,-0.14364956440659807
4.621866941452026,-0.014245688915252686,-0.011107012629508972,0.006652653217315674,0.021630940958857536,-0.00011041993275284767,-0.0230482779443264,-0.19049496049805972,0.11438369675956139,-0.14392863607313655
4.631891965866089,-0.012212947010993958,-0.013231232762336731,0.004136621952056885,0.03080766089260578,-0.0020984699949622154,-0.026097863912582397,-0.1902962739798032,0.1141569189724953,-0.14424737133966764
4.641845941543579,-0.011413149535655975,-0.013170912861824036,0.005438566207885742,0.03733283653855324,-0.0025942614302039146,-0.033701296895742416,-0.19000177566103654,0.11392496245878533,-0.1446211328469821
4.651975870132446,-0.010560601949691772,-0.012341797351837158,0.009679555892944336,0.033400945365428925,-0.0025910655967891216,-0.030315617099404335,-0.18973239259636637,0.1137020912661387,-0.14501520129466552
4.663069009780884,-0.011337332427501678,-0.007668435573577881,0.010430574417114258,0.034423619508743286,-0.001463084015995264,-0.028277073055505753,-0.18943293501454897,0.11349073497661522,-0.1453810910172658
4.6719138622283936,-0.011711418628692627,-0.008841544389724731,0.0077901482582092285,0.03468859940767288,0.002714883303269744,-0.03042171709239483,-0.18905821022455546,0.11330299534951851,-0.14574119955276754
4.682018041610718,-0.010451219975948334,-0.014367178082466125,0.0025156140327453613,0.038516975939273834,-0.0016976641491055489,-0.02983720786869526,-0.18867181972520414,0.11308214161090123,-0.1461247110199455
4.691987991333008,-0.00706915557384491,-0.011492043733596802,-0.0014340877532958984,0.047248683869838715,-0.008854908868670464,-0.030671576038002968,-0.18824579916783313,0.11281267384331442,-0.1465149210850869
4.70238184928894,-0.003875553607940674,-0.004971891641616821,-0.000975489616394043,0.0507725290954113,-0.015629325062036514,-0.03188645839691162,-0.18769743477896936,0.1124836177995613,-0.14691544531506393
4.7144248485565186,-0.0008064433932304382,0.0008757710456848145,0.0010294914245605469,0.050855353474617004,-0.024521086364984512,-0.032081399112939835,-0.18707261756395352,0.11209301744012115,-0.14732134782463227
4.721995115280151,-0.0006012693047523499,-0.000687137246131897,0.0007283687591552734,0.044243041425943375,-0.03556934371590614,-0.029887275770306587,-0.1865046635322387,0.11162080791218641,-0.14770716188775299
4.732090950012207,0.0022135525941848755,-0.001069381833076477,-0.004523158073425293,0.03605222329497337,-0.047378864139318466,-0.028190309181809425,-0.18602409069655637,0.11105646022875129,-0.14806882843032823
4.742005109786987,0.0037520304322242737,-0.001042589545249939,-0.003712296485900879,0.03968234360218048,-0.053212787955999374,-0.029293708503246307,-0.18565527908671361,0.1103953663168903,-0.14842809514730598
4.75202488899231,0.0035374388098716736,-0.004086524248123169,-0.0025812387466430664,0.04546406865119934,-0.05221543461084366,-0.021818747743964195,-0.18521261074759382,0.10971555230355215,-0.14874955794142447
