timestamp,accel_x,accel_y,accel_z,rotation_x,rotation_y,rotation_z, pitch,roll,yaw
0.04019308090209961,0.008195970207452774,0.005225092172622681,0.00933694839477539,-0.005770174786448479,0.008334685117006302,-0.009268980473279953,-0.03424109185270743,-0.035247513041069684,-0.000603578183088792
0.05541419982910156,0.009652562439441681,0.003813907504081726,0.00749284029006958,0.0004286987241357565,0.008098197169601917,-0.010042735375463963,-0.034263739786228785,-0.035162891988421846,-0.0007034307407418782
0.06783509254455566,0.008593671023845673,0.004054516553878784,0.0062896013259887695,-0.001997441053390503,0.0056166634894907475,-0.010363114066421986,-0.03426727749467238,-0.0350957487261124,-0.0008063663125704553
0.07519102096557617,0.011091906577348709,0.0012840479612350464,0.007876932621002197,-0.007007928565144539,0.0045778085477650166,-0.012731409631669521,-0.03430644628744026,-0.03504575421132641,-0.0009204353563593944
0.07640600204467773,0.01286277174949646,-0.0038928277790546417,0.008027255535125732,-0.015071980655193329,0.004396713338792324,-0.010870392434298992,-0.034417468732025,-0.03500090041284257,-0.0010400046849453155
0.08280801773071289,0.011675309389829636,-0.0058491043746471405,0.006908416748046875,-0.015760358422994614,-0.00011321669444441795,-0.010319970548152924,-0.034573303284325334,-0.034988539373212856,-0.001149706540751388
0.09268403053283691,0.012011099606752396,-0.004884015768766403,0.006230831146240234,-0.015295902267098427,-0.0013614404015243053,-0.009568693116307259,-0.03473746320948401,-0.03500411409045652,-0.0012519154990200377
0.10220599174499512,0.012953013181686401,-0.005603857338428497,0.005157947540283203,-0.009079301729798317,-0.0007269419729709625,-0.008500924333930016,-0.034862286560776105,-0.03501540595204049,-0.001354573345892028
0.11121702194213867,0.012135788798332214,-0.005823321640491486,0.0017379522323608398,-0.0044555217027664185,0.002442219527438283,-0.004473160021007061,-0.03492920238503269,-0.0350069729737699,-0.0014400551501396039
0.12125015258789062,0.010892268270254135,-0.002938978374004364,0.0015540719032287598,-0.004019629210233688,0.003488220740109682,-0.0013271679636090994,-0.03497457811727269,-0.034984179443415614,-0.0014664222524860082
0.13128399848937988,0.010518737137317657,-0.00132061168551445,0.002438843250274658,-0.0017607357585802674,0.003261053003370762,0.00038045085966587067,-0.03500417754304197,-0.03496161219162526,-0.001474268382444957
0.14129900932312012,0.009105134755373001,-0.0035668499767780304,0.004057586193084717,0.0028966835234314203,0.005936863832175732,-0.00021359394304454327,-0.035007370843552085,-0.034921248657046426,-0.0014728215112593504
0.1526169776916504,0.007365677505731583,-0.004074852913618088,0.004290580749511719,0.005001380108296871,0.008870868012309074,0.00183624099008739,-0.03496603158198305,-0.034844854095164766,-0.0014644016069207324
0.16128802299499512,0.005929738283157349,-0.0014201514422893524,0.002556920051574707,0.010705088265240192,0.008954979479312897,-0.0008341636275872588,-0.03489002342527382,-0.03475148769881255,-0.0014564750424003552
0.17156505584716797,0.00789407268166542,0.0001513250172138214,0.000626683235168457,0.01354162022471428,0.006120843812823296,-0.0028035712894052267,-0.03475278496722705,-0.03467087693435186,-0.0014683109230373235
0.18163204193115234,0.00903991237282753,0.0016730763018131256,0.0013042092323303223,0.009713110513985157,0.005423406139016151,-0.001969309290871024,-0.03463477754741062,-0.03461106432992086,-0.0014884121019877912
0.19135499000549316,0.009195998311042786,0.003355231136083603,0.002239227294921875,0.003181708510965109,0.005465484224259853,-0.0028966220561414957,-0.03457001410523785,-0.0345533778921247,-0.0015147135884452593
0.20253896713256836,0.0073273926973342896,0.0018077045679092407,0.0037282705307006836,0.004323988221585751,0.006850550416857004,-0.003178118262439966,-0.034484798873337844,-0.034378189444258155,-0.0015396961457447582
0.21145200729370117,0.007089965045452118,0.0017055757343769073,0.0024695992469787598,0.007638026028871536,0.0021982742473483086,-0.005032210610806942,-0.03441904114868547,-0.034216787164235374,-0.0015752820749944108
0.22157001495361328,0.008962322026491165,0.00896305963397026,-0.0011994242668151855,0.010048402473330498,-0.0014006774872541428,-0.00530784809961915,-0.034272066820341174,-0.034120474596394015,-0.0016061379874315292
0.23183798789978027,0.010934315621852875,0.01044004037976265,0.001386880874633789,0.011227384209632874,-0.002683255821466446,-0.007723335176706314,-0.034091977129105264,-0.03407804936961476,-0.001661770090585554
0.24169921875,0.009538743644952774,0.008494094014167786,0.004398047924041748,0.012414854019880295,-0.002460082992911339,-0.013717630878090858,-0.03396265682480618,-0.03405559165091758,-0.0017607041634236822
0.25437402725219727,0.007355347275733948,0.007443051785230637,0.005364656448364258,0.00826618168503046,-0.001360996626317501,-0.015380509197711945,-0.03386923421963419,-0.033992988732238015,-0.001894148786405685
0.26154088973999023,0.009353861212730408,0.00947112962603569,0.0017203688621520996,0.010067727416753769,-0.009729402139782906,-0.018850501626729965,-0.03382477637434116,-0.03396199547352677,-0.002056871907660726
0.2715740203857422,0.010967724025249481,0.009061336517333984,0.0033074617385864258,0.011189185082912445,-0.010683613829314709,-0.01996743120253086,-0.03379204300642532,-0.03398893614016429,-0.0022559532642288855
0.28162717819213867,0.009825929999351501,0.009072814136743546,0.008297920227050781,0.007610677741467953,-0.008772218599915504,-0.017863746732473373,-0.033734754067032004,-0.034022038490225406,-0.002447962019525821
0.2915949821472168,0.009243704378604889,0.011931244283914566,0.008633852005004883,0.007190964184701443,-0.009083542041480541,-0.018775612115859985,-0.0336991797742428,-0.03405015552432899,-0.002621894911353608
0.30328989028930664,0.009753227233886719,0.007518962025642395,0.007134079933166504,0.003370409831404686,-0.011258856393396854,-0.01972508430480957,-0.03380854332497002,-0.03407155200115173,-0.002801009677683423
0.3116440773010254,0.010739929974079132,0.004614178091287613,0.007279872894287109,0.00010777125135064125,-0.013747579418122768,-0.017811069265007973,-0.03398211036636044,-0.03409718031034542,-0.0029765156219661356
0.32147789001464844,0.012001629918813705,0.00674811378121376,0.008981645107269287,-0.0013605791609734297,-0.013557475060224533,-0.018699288368225098,-0.034137080736837154,-0.03415368726979348,-0.003155439681901414
0.3317751884460449,0.01022002100944519,0.004970617592334747,0.011706352233886719,-0.0024008098989725113,-0.010838121175765991,-0.01775679551064968,-0.034281973751368086,-0.034203358607735705,-0.0033316335714082697
0.34180688858032227,0.008763432502746582,0.005909435451030731,0.009394943714141846,-0.005542274564504623,-0.012147774919867516,-0.015978282317519188,-0.03447241343326191,-0.034227119398773764,-0.0034916925972844114
0.3532600402832031,0.011066962033510208,0.007954198867082596,0.007876396179199219,-0.005864516831934452,-0.01356564275920391,-0.01665232889354229,-0.0346708135351003,-0.03425736442362424,-0.003657010311055633
0.36168503761291504,0.010693080723285675,0.005244530737400055,0.010020971298217773,-0.0018765167333185673,-0.007746678777039051,-0.01534253265708685,-0.03484762756596269,-0.034280447701141484,-0.003820142548533501
0.3717780113220215,0.007551424205303192,0.0063885897397994995,0.011191010475158691,0.004127579741179943,-0.004003605805337429,-0.015633083879947662,-0.035015927967589705,-0.034251753448711904,-0.003973655836879513
0.38167905807495117,0.00626889243721962,0.009925320744514465,0.008231699466705322,0.009028046391904354,-0.0020669116638600826,-0.015058586373925209,-0.03504977573717875,-0.034189889358161404,-0.004115284187030583
0.3917551040649414,0.007720198482275009,0.010213274508714676,0.006360054016113281,0.01679675281047821,-0.0015973960980772972,-0.013957369141280651,-0.0349753973709262,-0.034115139474486945,-0.004251167043062632
0.4032139778137207,0.010852623730897903,0.010596588253974915,0.0037259459495544434,0.016713079065084457,-0.002618230413645506,-0.014870193786919117,-0.03489721238599848,-0.034027762832155105,-0.004378013616569181
0.41173410415649414,0.012865301221609116,0.013075854629278183,0.00011205673217773438,0.007845818996429443,-0.010944869369268417,-0.01805506832897663,-0.03484406101750789,-0.03401093981022017,-0.004532712038173996
0.4218320846557617,0.016347263008356094,0.008498724550008774,0.004791140556335449,-0.005294716916978359,-0.01890212669968605,-0.019631074741482735,-0.03491989704438293,-0.03409037538024016,-0.00472809296211519
0.4323101043701172,0.017706241458654404,0.0056090280413627625,0.006579279899597168,-0.015343356877565384,-0.02274560183286667,-0.020287543535232544,-0.03515470735073921,-0.03421381744662864,-0.004928782116513424
0.4417891502380371,0.016611244529485703,0.00807228684425354,0.004492461681365967,-0.012968632392585278,-0.025141071528196335,-0.025621801614761353,-0.03534659900406192,-0.03435518551698898,-0.005160684306461618
0.4533350467681885,0.015275709331035614,0.007897168397903442,0.0006639361381530762,-0.002890165662392974,-0.028578415513038635,-0.02566840872168541,-0.035537091599282374,-0.03456127590609974,-0.005424639532802103
0.46184206008911133,0.014827322214841843,0.012228589504957199,0.0034114718437194824,-0.0027145303320139647,-0.03180376812815666,-0.026625599712133408,-0.035691855845052675,-0.03481529587513805,-0.005684170637783693
0.4720470905303955,0.016113337129354477,0.01445680856704712,0.004327595233917236,-0.0011038504308089614,-0.030695628374814987,-0.026364609599113464,-0.03585937260887208,-0.035064233191361975,-0.005949257284067751
0.4816861152648926,0.011392097920179367,0.012329459190368652,0.004802286624908447,-0.007403325289487839,-0.027048252522945404,-0.028018539771437645,-0.03604897865962148,-0.03525681102254731,-0.006218983941153535
0.49188709259033203,0.008831523358821869,0.009438294917345047,0.0014934539794921875,-0.0032277549616992474,-0.0247318334877491,-0.0275570135563612,-0.03626999589729746,-0.035397499510294576,-0.006496233762998784
0.5033869743347168,0.009690213948488235,0.01360328495502472,-0.0032909512519836426,0.0051169442012906075,-0.029824551194906235,-0.026616491377353668,-0.03637754000748441,-0.035524072154310825,-0.0067581744227860315
0.5118899345397949,0.013282295316457748,0.012751206755638123,-0.007692158222198486,-0.002633919706568122,-0.03021417185664177,-0.02920934557914734,-0.036420928967692896,-0.03566790622290932,-0.007041138465131902
0.5218100547790527,0.01588597521185875,0.011043369770050049,-0.01214599609375,-0.010222863405942917,-0.040409550070762634,-0.032495152205228806,-0.03658773824444886,-0.035876446051332334,-0.0073462729022526286
0.5317749977111816,0.017204996198415756,0.007197875529527664,-0.007983088493347168,-0.013093218207359314,-0.050654198974370956,-0.03542223200201988,-0.036755979393992645,-0.03620430291043554,-0.007675275287122792
0.5417320728302002,0.01894160360097885,0.0017544850707054138,0.00015038251876831055,-0.03225675970315933,-0.061093080788850784,-0.03759430721402168,-0.03714897932824754,-0.03662975869510812,-0.008041745836571454
0.5521841049194336,0.0202554389834404,0.0032299645245075226,0.004287898540496826,-0.05384034663438797,-0.07208101451396942,-0.043569374829530716,-0.037779654082573486,-0.037167001739393135,-0.008458680013901687
0.5617151260375977,0.02033407613635063,-0.006353762000799179,0.0071988701820373535,-0.05117517337203026,-0.07482172548770905,-0.04367110878229141,-0.03843746930607664,-0.037812083573146166,-0.008914163296364234
0.5718200206756592,0.015420246869325638,-0.006143968552350998,0.006387650966644287,-0.049473945051431656,-0.07020033895969391,-0.0421011783182621,-0.03905211088645099,-0.038454306692659763,-0.009362812553510737
0.5823280811309814,0.009807039052248001,0.002496577799320221,0.0032650232315063477,-0.018320070579648018,-0.06263300776481628,-0.043598830699920654,-0.039521418826907,-0.039022483386123887,-0.009796844624268625
0.5919630527496338,0.004163853824138641,-0.0005467236042022705,0.0017287731170654297,0.00036732968874275684,-0.051333751529455185,-0.04845457524061203,-0.0397267515124698,-0.03946857216839958,-0.01026146469663113
0.6023221015930176,-0.001691661775112152,0.00360846146941185,-0.0018990039825439453,0.015231297351419926,-0.034094132483005524,-0.04187118634581566,-0.03973722128656371,-0.0397475408084125,-0.010698062237863147
0.611842155456543,-0.006185300648212433,0.006783094257116318,-0.0030413269996643066,0.02124977484345436,-0.020611878484487534,-0.04638923704624176,-0.039568437630203145,-0.03986197822080464,-0.011121107524158307
0.6219711303710938,-0.008351556956768036,-0.00157981738448143,-0.004710793495178223,0.02666594460606575,-0.022826917469501495,-0.04389987513422966,-0.039309933457594724,-0.03989262847208341,-0.011563164176662867
0.6319210529327393,-0.006574027240276337,-0.0008370615541934967,-0.00772780179977417,0.015433264896273613,-0.025297798216342926,-0.05212850868701935,-0.03911634393128968,-0.039976258861062874,-0.012016255264811173
0.6422920227050781,-0.0008850954473018646,-0.007554057985544205,-0.003802776336669922,-0.004673418588936329,-0.018633991479873657,-0.06438906490802765,-0.03896677164059246,-0.04003455639334184,-0.012629557159117205
0.6547060012817383,-0.004064176231622696,-0.01876809075474739,0.001708686351776123,0.032329607754945755,-0.03728810325264931,-0.03906106948852539,-0.038736538222024705,-0.04018175992554953,-0.013122543589646797
0.6622381210327148,-0.003675755113363266,-0.0010834336280822754,0.006439208984375,0.04342683404684067,-0.043250031769275665,-0.04756874963641167,-0.03837033608282005,-0.040524370053532766,-0.013534166730014492
0.6723160743713379,0.00315069779753685,-0.0026965178549289703,0.003125131130218506,0.02912432700395584,-0.04694303870201111,-0.04493754729628563,-0.03798423510622614,-0.04095746425313664,-0.013985072146441225
0.6824450492858887,0.004267390817403793,-0.021762307733297348,0.0020276904106140137,0.010275471024215221,-0.04382394254207611,-0.03118669055402279,-0.037854376770444606,-0.041418550172255104,-0.01436489404223644
0.6923720836639404,0.001852571964263916,-0.027278192341327667,0.00600278377532959,-0.00480867363512516,-0.03917273133993149,-0.019260255619883537,-0.037938193425268336,-0.041888518494256496,-0.014612753580403329
0.7039730548858643,0.0025829263031482697,-0.027120962738990784,0.013522744178771973,0.0050226179882884026,-0.03749796003103256,-0.010342340916395187,-0.03790300735216472,-0.04234489215926039,-0.014773157063423518
0.7130441665649414,0.005155984312295914,-0.030614260584115982,0.019962191581726074,0.0193546861410141,-0.04488663375377655,0.003314082743600011,-0.03782569616063293,-0.04276701830177249,-0.014777221341578701
0.7224090099334717,0.011840004473924637,-0.028976023197174072,0.022075355052947998,0.014807421714067459,-0.04075922444462776,0.005369456950575113,-0.03754529200845982,-0.043195181620138516,-0.01473747869321026
0.7323460578918457,0.01536368578672409,-0.036126758903265,0.026793181896209717,0.02811364084482193,-0.02541515603661537,0.028514990583062172,-0.03709683804700293,-0.043514312356901064,-0.014543804002437755
0.7423880100250244,0.012985840439796448,-0.040633056312799454,0.028300702571868896,0.024101870134472847,-0.02714119479060173,0.035891465842723846,-0.036872751057116286,-0.04377630277302384,-0.014221267959227362
0.7554380893707275,0.01755056157708168,-0.05772312358021736,0.034683942794799805,0.057187121361494064,-0.029523923993110657,0.07472141832113266,-0.036475983078852484,-0.043991983262887835,-0.013652154354901838
0.7625808715820312,0.02045896276831627,-0.07373703271150589,0.038200438022613525,0.07045305520296097,-0.02085728757083416,0.11099473387002945,-0.03564364639368425,-0.044168022763478816,-0.012690100356526485
0.7722060680389404,0.019651588052511215,-0.0945458710193634,0.0325968861579895,0.09301082789897919,-0.020116396248340607,0.17548824846744537,-0.034723403240286284,-0.044290197968870404,-0.01125172691786755
0.7830109596252441,0.018514450639486313,-0.12583371996879578,0.0250435471534729,0.1394481360912323,-0.04068727418780327,0.2620377838611603,-0.03357039439007964,-0.04449440691802754,-0.009008772285945767
0.7922558784484863,0.02052319049835205,-0.1474270224571228,0.01250547170639038,0.1896870732307434,-0.05723216384649277,0.35517892241477966,-0.03198474699288587,-0.044868713520586516,-0.005853766486989535
0.803123950958252,0.019456572830677032,-0.18162235617637634,-0.00042897462844848633,0.23135481774806976,-0.08907855302095413,0.4675105810165405,-0.03001579768879136,-0.04543287319038326,-0.0016602277841403657
0.812251091003418,0.012807585299015045,-0.23771384358406067,-0.0236358642578125,0.2630368173122406,-0.15382878482341766,0.600261390209198,-0.027772014349551854,-0.04647286987442254,0.0037866423633040732
0.8222651481628418,0.0049314238131046295,-0.28727954626083374,-0.03268229961395264,0.32460951805114746,-0.2382875680923462,0.7376461029052734,-0.0251364797554846,-0.04822427935100095,0.010607203014720413
0.8322701454162598,-0.0022940747439861298,-0.3409394323825836,-0.027878940105438232,0.3769957423210144,-0.3559226095676422,0.9115462303161621,-0.02203279079246412,-0.050993836340022566,0.01900253914573336
0.8422889709472656,-0.015859920531511307,-0.3766365945339203,-0.016264021396636963,0.40582075715065,-0.50603187084198,1.0781859159469604,-0.01863624013029821,-0.0551159205455691,0.02918009539680706
0.8536911010742188,-0.03999803960323334,-0.41666147112846375,0.020565330982208252,0.3806312382221222,-0.6422075033187866,1.2086946964263916,-0.015325693480800363,-0.060662996410029986,0.040853677943456124
0.8623099327087402,-0.07688680291175842,-0.503122866153717,0.08207815885543823,0.30349475145339966,-0.7250170707702637,1.3280044794082642,-0.012706020849636464,-0.06736539097974882,0.05373653040935514
0.8723249435424805,-0.11812807619571686,-0.5714582204818726,0.14739924669265747,0.19430354237556458,-0.7771719098091125,1.4967632293701172,-0.01117124334250266,-0.07474119790896148,0.06797786741336126
0.8823981285095215,-0.1571841835975647,-0.6099565029144287,0.21003496646881104,-0.03949473053216934,-0.7165361046791077,1.7008870840072632,-0.011431062120474213,-0.08212574233333939,0.0839810547804739
0.8924250602722168,-0.1991114318370819,-0.6367223262786865,0.2574006915092468,-0.18867063522338867,-0.6079356074333191,1.9384301900863647,-0.014195012256488622,-0.08848873738803417,0.10210412722358087
0.9034080505371094,-0.2536203861236572,-0.6530460715293884,0.2957378029823303,-0.361933171749115,-0.5172902941703796,2.110529661178589,-0.018754882277160507,-0.09379330389928271,0.12200743752184541
0.9124631881713867,-0.2844536304473877,-0.6500037908554077,0.27878957986831665,-0.5871785283088684,-0.40503111481666565,2.35840106010437,-0.025556199865202484,-0.09792183977087207,0.14378185834285934
0.9224529266357422,-0.27640557289123535,-0.6201381087303162,0.2507890462875366,-0.8704103827476501,-0.28628653287887573,2.5878381729125977,-0.035276347677267096,-0.1006581248368481,0.1677680007223697
0.9324989318847656,-0.2543295919895172,-0.6450942158699036,0.24514257907867432,-1.0939009189605713,-0.19950367510318756,2.7796835899353027,-0.04785327211362738,-0.10201262794167741,0.1935104958023097
0.9424700736999512,-0.24335244297981262,-0.6636390089988708,0.2565609812736511,-1.2000963687896729,-0.16412420570850372,2.9889752864837646,-0.06233081023338681,-0.10226955846989712,0.22107821314077625
0.9535620212554932,-0.23170235753059387,-0.6491605043411255,0.25405412912368774,-1.1268181800842285,-0.17333155870437622,3.1728827953338623,-0.07712424044427083,-0.10198332822985488,0.2506338663795658
0.9624350070953369,-0.20512670278549194,-0.618110716342926,0.22941088676452637,-0.7300200462341309,-0.05400516465306282,3.4848248958587646,-0.09032547496109322,-0.10047452800413732,0.2828128994091443
0.972379207611084,-0.1638270914554596,-0.5572513341903687,0.1537984013557434,-0.11203408241271973,0.3313315808773041,3.5875306129455566,-0.09758282500486772,-0.09593109557680286,0.3179140094540679
0.9824810028076172,-0.14205488562583923,-0.45227426290512085,0.05433809757232666,0.3869231641292572,0.7077890038490295,3.9087040424346924,-0.09941090653347869,-0.08712274484388406,0.355617118209522
0.9925270080566406,-0.12429143488407135,-0.22607815265655518,0.01750946044921875,0.2421950101852417,1.1465126276016235,3.9569220542907715,-0.09959511306918091,-0.07384956834740382,0.3954599557041317
1.0044898986816406,-0.10615308582782745,-0.24142344295978546,0.06854486465454102,0.2531110346317291,1.5932297706604004,4.01589822769165,-0.09991208076381544,-0.05594400976112952,0.4355000778317329
1.0125789642333984,-0.13579161465168,-0.27367234230041504,0.2539430260658264,0.6368283629417419,2.0216403007507324,4.063499927520752,-0.09680662483748931,-0.03402154393450164,0.4764971652727556
1.0225892066955566,-0.10300768911838531,-0.06205590069293976,0.3130907416343689,0.4160590171813965,2.469024896621704,4.093216419219971,-0.09220088144305681,-0.007681856438138226,0.5174102886370745
1.0325908660888672,-0.0530063696205616,-0.031612105667591095,0.2626049518585205,0.11249300837516785,2.802365779876709,4.134805679321289,-0.08933317817960072,0.022550003820070573,0.5588924147972983
1.0426640510559082,-0.08369371294975281,-0.17985737323760986,0.3017019033432007,-0.04632635787129402,3.1047120094299316,4.255784034729004,-0.08750108148503095,0.0558907793810577,0.6009212729689845
1.0531589984893799,-0.01904108375310898,-0.0692889466881752,0.3678770065307617,-0.31055349111557007,3.3349642753601074,4.399012565612793,-0.08592025725148761,0.0919887939251001,0.6444741646140985
1.0625171661376953,0.144710972905159,-0.04426517337560654,0.4030039310455322,-0.470119833946228,3.2971129417419434,4.539726257324219,-0.08504797969728932,0.1291540235984251,0.6894779481198745
1.0727238655090332,0.29736122488975525,-0.17312714457511902,0.42051589488983154,-0.4012123942375183,3.2874703407287598,4.759506702423096,-0.08250760203158712,0.16593618093791127,0.736430846159852
1.0826160907745361,0.5381249189376831,-0.1604071855545044,0.34827113151550293,-0.33438220620155334,3.429621458053589,4.805924892425537,-0.07740071965864763,0.2033653106519036,0.7843572344751943
1.0927300453186035,0.7542036771774292,-0.0981714203953743,0.14613282680511475,-0.09505511820316315,3.548859119415283,4.9793524742126465,-0.0688530191744971,0.24191109327330682,0.832687387741464
1.1028518676757812,0.8912383913993835,0.018607057631015778,0.011871695518493652,0.16013403236865997,3.608893871307373,5.037569522857666,-0.05544210161111061,0.28076948569494187,0.8813127613699304
1.1127099990844727,1.0441683530807495,0.1559544950723648,-0.05825769901275635,0.3468371033668518,3.6565451622009277,4.898791313171387,-0.038299632241184885,0.3193415975710955,0.9281114061767983
1.1226539611816406,1.108510971069336,0.16910859942436218,-0.06073790788650513,0.5718544721603394,3.5638229846954346,4.814648628234863,-0.017843415965729508,0.35689803894325994,0.9724837653759595
1.1327390670776367,1.1717718839645386,0.2458314746618271,-0.07732731103897095,0.62888503074646,3.286374568939209,4.569904327392578,0.005184756586468853,0.39155239808335757,1.014071244944097
1.1428589820861816,1.2562625408172607,0.3882439434528351,-0.192365825176239,0.3506331443786621,2.864025831222534,4.108331680297852,0.027117141166488952,0.4217965101326317,1.0521015556836613
1.1536390781402588,1.2246876955032349,0.4195815622806549,-0.2959768772125244,-0.33242878317832947,2.193211317062378,3.3297529220581055,0.04322135710269561,0.44611247645582514,1.0859620043452851
1.1627578735351562,1.0744273662567139,0.5536437034606934,-0.2901243567466736,-1.3904845714569092,1.302280068397522,2.2887954711914062,0.04798549541390959,0.46235814267349384,1.1151026526071732
1.1728601455688477,0.8581597805023193,0.7574069499969482,-0.24930250644683838,-2.4345664978027344,0.28991934657096863,1.1482877731323242,0.038498241821875646,0.46925143641026484,1.1391782353533593
1.1827540397644043,0.623836874961853,0.8960868716239929,-0.27910906076431274,-3.048377513885498,-0.5614377856254578,0.13683608174324036,0.016601176282846287,0.46717716750303007,1.1573167857228641
1.193047046661377,0.436085969209671,0.9297910332679749,-0.2880919575691223,-2.9363718032836914,-1.082744836807251,-0.6145979762077332,-0.01182949507577913,0.4586572321563854,1.1686238416157664
1.2032430171966553,0.2903963327407837,0.8204830884933472,-0.24118655920028687,-2.17602801322937,-1.2715646028518677,-1.0011430978775024,-0.038810461698128865,0.4467830236719267,1.1724912253641124
1.2126600742340088,0.20112404227256775,0.6526711583137512,-0.2217804193496704,-0.9631520509719849,-1.1962502002716064,-1.13694429397583,-0.05773418577894283,0.4341002593050629,1.1694835700394743
1.2227740287780762,0.14375820755958557,0.45354825258255005,-0.13731199502944946,0.36814817786216736,-0.9505103230476379,-1.1112703084945679,-0.06512913803822233,0.4227370107011775,1.1603627334583055
1.2327980995178223,0.06583675742149353,0.24309572577476501,-0.0352703332901001,1.4611932039260864,-0.6227923631668091,-0.9230964183807373,-0.06075975713857449,0.41400847198113144,1.147153673205287
1.2427849769592285,0.05432209372520447,0.0757109746336937,0.041721999645233154,2.3056607246398926,-0.2696121633052826,-0.676384449005127,-0.04651379734723109,0.4087003017250931,1.1322096335222203
1.2544231414794922,0.024659425020217896,-0.026751793920993805,0.09808224439620972,2.783327102661133,0.06088240444660187,-0.44971853494644165,-0.025152645751927855,0.40713798841822385,1.116814830535308
1.2630009651184082,-0.04479867219924927,-0.05031106621026993,0.11540961265563965,2.9138331413269043,0.3244468867778778,-0.21025928854942322,-6.425100269902395e-05,0.40896321197723673,1.1023990174772362
1.2729730606079102,-0.05958113074302673,-0.06738365441560745,0.1103283166885376,2.632780075073242,0.5043639540672302,0.013271003030240536,0.025254767419380673,0.41331076173826525,1.0903455172192622
1.2829151153564453,-0.04177570343017578,-0.051830314099788666,0.08067238330841064,1.9667327404022217,0.5640329718589783,0.1468067467212677,0.04683450568076597,0.41904881350746026,1.0817296214339598
1.2928390502929688,-0.028482258319854736,-0.038282882422208786,0.07700502872467041,1.0631213188171387,0.5136371850967407,0.21105791628360748,0.061548079805554004,0.4247471357868904,1.077136875228124
1.3031020164489746,-0.0048438310623168945,-0.04147349298000336,0.08730190992355347,0.12631894648075104,0.36577731370925903,0.22564515471458435,0.06783106567629657,0.4292132525239714,1.07671716406375
1.3128662109375,0.03852847218513489,-0.05505296587944031,0.11132031679153442,-0.6182355880737305,0.1895785927772522,0.23169557750225067,0.06647081822886063,0.43175531823424307,1.0798650696236591
1.322854995727539,0.05909577012062073,-0.07449593394994736,0.14556050300598145,-1.1954816579818726,0.034916363656520844,0.21586373448371887,0.05899127185891011,0.43248319778920835,1.0857750390700518
1.3328540325164795,0.06689348816871643,-0.08471685647964478,0.1704588532447815,-1.421396255493164,-0.03886624798178673,0.20719248056411743,0.04777774509788717,0.43200428346264375,1.0932981670660986
1.3428800106048584,0.05044624209403992,-0.10239073634147644,0.1533820629119873,-1.3768324851989746,-0.04370920732617378,0.21136623620986938,0.035815403569257914,0.4312339056262011,1.1011084975887688
1.3538150787353516,0.04087325930595398,-0.050722070038318634,0.07673585414886475,-1.190769910812378,0.005021846853196621,0.1933763176202774,0.02494847904788474,0.43078588359642395,1.1083694507891897
1.3629751205444336,0.03587251901626587,-0.02590283751487732,0.027781307697296143,-0.9172233939170837,0.08099193125963211,0.17283493280410767,0.016043893192978633,0.43108378039426015,1.1144813192677998
1.3733060359954834,0.02507588267326355,-0.01427929662168026,0.02654850482940674,-0.5541937947273254,0.15862014889717102,0.12547408044338226,0.009951451557355325,0.43223294630119585,1.1189588093776637
1.3829278945922852,0.023488938808441162,0.0069465674459934235,0.05658376216888428,-0.15063077211380005,0.21264223754405975,0.08378139138221741,0.0071598772326411176,0.4340880528170287,1.1213862815340054
1.3929471969604492,0.023865729570388794,0.030795767903327942,0.06424784660339355,0.24826735258102417,0.2526993751525879,0.03764558583498001,0.007922559678972556,0.436418199958848,1.1217207064071786
1.4031360149383545,0.02178671956062317,0.027353888377547264,0.06582391262054443,0.4971598982810974,0.2536640167236328,0.008196988143026829,0.011438857965408127,0.4389991826018532,1.1202867042958538
1.4129738807678223,0.015769898891448975,0.005964178591966629,0.04744601249694824,0.6889488101005554,0.24342842400074005,-0.00945870392024517,0.016844122639820627,0.44153720477168495,1.1177305739412184
1.4230170249938965,0.028037548065185547,-0.012842865660786629,0.028742730617523193,0.784848153591156,0.21827274560928345,-0.02829817123711109,0.02352062996720184,0.44391554288792784,1.1143644552650154
1.4328899383544922,0.017482101917266846,-0.008441857993602753,0.02868098020553589,0.7620000839233398,0.18754439055919647,-0.04712139442563057,0.030396069339335606,0.4460462001333002,1.1106595689854142
1.4429841041564941,0.015506178140640259,-0.0158291757106781,0.025639593601226807,0.617790699005127,0.16594135761260986,-0.051428522914648056,0.03647039957069082,0.4479296506975218,1.1071747721060046
1.4539949893951416,0.023409157991409302,-0.014705400913953781,0.00507122278213501,0.42356425523757935,0.15128570795059204,-0.039215534925460815,0.04096973978698155,0.44960793461854376,1.104497318511207
1.4630260467529297,0.02254745364189148,-0.01944578066468239,0.009825348854064941,0.233234241604805,0.15100687742233276,-0.02623741701245308,0.04378499960658559,0.45120050399441186,1.1027716076217662
1.4744129180908203,0.01690495014190674,-0.03784724697470665,0.01762920618057251,0.06011116877198219,0.1441856324672699,0.0016689412295818329,0.0450075402676627,0.45271732404673337,1.1020267925876361
1.4831318855285645,0.01418277621269226,-0.05083473026752472,0.018489599227905273,-0.06961426138877869,0.14465515315532684,0.026454556733369827,0.04500528846755522,0.45416839087520267,1.1021834616153325
1.4935669898986816,0.012519806623458862,-0.0632452517747879,0.002782285213470459,-0.18569692969322205,0.14001299440860748,0.043157901614904404,0.0440226155506608,0.4555579328047673,1.1030616150736752
1.50443696975708,0.009417146444320679,-0.057563167065382004,-0.015986979007720947,-0.27653688192367554,0.12835949659347534,0.05604371428489685,0.04214986282154461,0.4568340260335298,1.1045560256785458
1.5131421089172363,0.011169195175170898,-0.0684414952993393,-0.01995021104812622,-0.3148331344127655,0.11691243201494217,0.052088119089603424,0.039707608939951344,0.45799631099133775,1.1063743283187872
1.5232181549072266,0.007220923900604248,-0.06605368107557297,-0.017396926879882812,-0.3120976686477661,0.10070598870515823,0.05009687691926956,0.0371038700638285,0.4590155782783551,1.1082288540810037
1.5331521034240723,0.0074940025806427,-0.04601237550377846,-0.03526031970977783,-0.29106107354164124,0.07818017154932022,0.03576640784740448,0.034591069261267815,0.4598415047866577,1.1099648246425005
1.5431599617004395,0.01227620244026184,-0.03242207691073418,-0.05787694454193115,-0.2779639661312103,0.04910226911306381,0.021345866844058037,0.03215829716854476,0.46042484504368947,1.111482306725893
1.5533781051635742,0.0067414045333862305,-0.031808264553546906,-0.06991851329803467,-0.2322169989347458,0.03085268847644329,-0.005420233588665724,0.029902361231788913,0.46077743319572345,1.1127086351703508
1.5632529258728027,0.0037304162979125977,-0.022943561896681786,-0.07358711957931519,-0.19469773769378662,0.00845541525632143,-0.021732255816459656,0.02791723165636157,0.46094201458962836,1.1135260374313931
1.5734591484069824,-0.0010484158992767334,-0.01596372202038765,-0.0768316388130188,-0.17115487158298492,-0.008382953703403473,-0.02964131161570549,0.02616841710088624,0.46092165560544207,1.1140872822081
1.583308219909668,0.0030021369457244873,-0.023454593494534492,-0.06815171241760254,-0.11775924265384674,-0.01584268920123577,-0.026747627183794975,0.0247500734888571,0.4607936842135155,1.114491699367811
1.5934181213378906,0.0023521780967712402,-0.030429117381572723,-0.05004400014877319,-0.04918284714221954,-0.025662830099463463,-0.02051875926554203,0.02387881409298288,0.460571806495062,1.114642665171116
1.603687047958374,0.0010860264301300049,-0.0365595668554306,-0.041203200817108154,0.003605666570365429,-0.029393471777439117,-0.007130622398108244,0.023622917973709367,0.4602958228142894,1.114603859837161
1.6132469177246094,0.006852895021438599,-0.035219740122556686,-0.048065185546875,0.025761835277080536,-0.030639830976724625,-0.00040800473652780056,0.02395576401765301,0.459926062153005,1.1144998975772178
1.6233000755310059,0.0038989484310150146,-0.024430230259895325,-0.05156666040420532,0.012531551532447338,-0.033932123333215714,0.006460820324718952,0.024277836036739293,0.4595482292051964,1.1144486023855524
1.6333119869232178,0.0022606253623962402,-0.016309373080730438,-0.05219113826751709,-0.02972509153187275,-0.050062887370586395,0.00047802901826798916,0.024326813083207246,0.45906127352878934,1.1145010232910812
1.6432609558105469,0.0025270581245422363,-0.007235998287796974,-0.044963181018829346,-0.0770331397652626,-0.0728488564491272,0.00950476061552763,0.023924355974715244,0.4583677092419964,1.114792254007065
1.6536931991577148,0.00825008749961853,-0.00897851213812828,-0.030110299587249756,-0.09728994220495224,-0.07948677986860275,0.008495422080159187,0.023219246219946053,0.4575246257180785,1.115261006597822
1.663450002670288,0.008562445640563965,-0.011077964678406715,-0.015565752983093262,-0.11096219718456268,-0.08821506798267365,0.008318321779370308,0.022386055208714263,0.4566228472117306,1.1157992541837798
1.6741151809692383,0.013337045907974243,-0.00432702898979187,-0.015831708908081055,-0.14387673139572144,-0.09660722315311432,0.007320702075958252,0.021354760734580605,0.4556442688610232,1.1164268248695781
1.6836071014404297,0.020404338836669922,0.0005807504057884216,-0.014421284198760986,-0.17271198332309723,-0.09844480454921722,-0.0016816346906125546,0.020036669282574776,0.45460865418005275,1.117162004850243
1.6934309005737305,0.02017870545387268,0.0044708251953125,-0.007989883422851562,-0.1793387234210968,-0.1126229390501976,-0.005229497794061899,0.018509590453111752,0.453503780229127,1.1178983307947792
1.7037479877471924,0.014879047870635986,0.010096723213791847,0.0044432878494262695,-0.16262513399124146,-0.1184157133102417,-0.004643176682293415,0.017009409892302416,0.4522742703618101,1.11861826316643
1.7132580280303955,0.012541890144348145,0.004200100898742676,0.0157548189163208,-0.1236412525177002,-0.11165448278188705,-0.006282618269324303,0.015781801940742954,0.45104611366377456,1.1191973163485507
1.7233409881591797,0.01049688458442688,0.0023926077410578728,0.018203437328338623,-0.09276170283555984,-0.09981557726860046,-0.008876856416463852,0.01484395786896105,0.4499376367611452,1.1195938500424119
1.733342170715332,0.010618239641189575,0.006992775946855545,0.013956546783447266,-0.056464944034814835,-0.08750458061695099,-0.01434379443526268,0.014195031020045384,0.4489850875688492,1.1198257475050561
1.7433960437774658,0.011768907308578491,0.007125578820705414,0.019268929958343506,-0.0272064246237278,-0.07935220003128052,-0.026858465746045113,0.013870036308069454,0.4481799386564007,1.1198064577080942
1.7543821334838867,0.011188298463821411,0.011477667838335037,0.026484251022338867,-0.005788483656942844,-0.07784751802682877,-0.03634065017104149,0.013674984521930732,0.4474854128077718,1.1195848947198166
1.7634592056274414,0.013716161251068115,0.006481831893324852,0.030203700065612793,0.003538888180628419,-0.0823124349117279,-0.05271163582801819,0.013500922623441132,0.4468637205967059,1.1191863822508126
1.7735629081726074,0.013691991567611694,0.002680733799934387,0.033119380474090576,0.004764741286635399,-0.09564635157585144,-0.06431795656681061,0.013239826422209982,0.4461613423459485,1.1186405945381317
1.7835140228271484,0.01631435751914978,0.006347093731164932,0.03602910041809082,0.01986865885555744,-0.10905572026968002,-0.08189450204372406,0.012923626248698817,0.4453668429594259,1.1179402451670593
1.793592929840088,0.013279050588607788,0.004059251397848129,0.04200488328933716,0.026260245591402054,-0.11597540974617004,-0.09879385679960251,0.012680434605618459,0.4445356278333823,1.1170072495317274
1.8037199974060059,0.009232878684997559,0.006431191228330135,0.03614640235900879,0.018021224066615105,-0.1201014518737793,-0.11375603079795837,0.012351544788171295,0.4437253787913728,1.1159437307480684
1.8134942054748535,0.015336334705352783,0.008568360470235348,0.025535881519317627,0.010590205900371075,-0.12764139473438263,-0.1250275820493698,0.011818388179455536,0.4428270605146858,1.114790817684241
1.82350492477417,0.013478666543960571,0.005799286067485809,0.02774447202682495,0.006537357345223427,-0.12933973968029022,-0.13019533455371857,0.01120075837040527,0.44192446949011416,1.1135889214021972
1.833549976348877,0.00941091775894165,0.00181614700704813,0.03624671697616577,-0.000657438300549984,-0.1250336617231369,-0.12644854187965393,0.01051348144769348,0.440968747364589,1.11241497387533
1.843548059463501,0.006897598505020142,-0.0048202453181147575,0.04246556758880615,0.0009195527527481318,-0.1099848598241806,-0.11346472799777985,0.009919536950094036,0.4400669573389695,1.1113312589124698
1.8539130687713623,0.005471915006637573,-0.008950590156018734,0.04995417594909668,-0.0063825687393546104,-0.08734852075576782,-0.09425082057714462,0.009436021362665137,0.4392963246485916,1.1103957182899884
1.863616943359375,0.008504271507263184,-0.007174256257712841,0.04921823740005493,-0.016800755634903908,-0.0559704452753067,-0.07003592699766159,0.008923514057597169,0.43877608218689124,1.10970050761236
1.873791217803955,0.006040304899215698,-0.009363198652863503,0.05406498908996582,-0.024599023163318634,-0.0254072118550539,-0.0530976876616478,0.0084587981284237,0.4385462821765422,1.1092254521268932
1.883817195892334,0.006242632865905762,-0.008743398822844028,0.049370646476745605,-0.03688325360417366,-0.009649552404880524,-0.03897766023874283,0.007964686833858368,0.43850632070548257,1.1089424448884582
1.893923044204712,0.006928086280822754,-0.002862672321498394,0.03984719514846802,-0.07002948969602585,-0.012569441460072994,-0.026523122563958168,0.007284114068792245,0.438522033677611,1.1088670676371317
1.9039092063903809,0.009224146604537964,-0.0025764722377061844,0.0394209623336792,-0.06571340560913086,-0.014159882441163063,-0.026727013289928436,0.0065327048484787546,0.4384947711812184,1.1089202371291478
1.9137921333312988,0.007137864828109741,2.389959990978241e-05,0.04681110382080078,-0.06326089799404144,-0.0196092426776886,-0.03907023370265961,0.005821903236855648,0.4384206643153297,1.108892036567505
1.9238309860229492,0.0009616613388061523,0.008510604500770569,0.036910951137542725,-0.08083679527044296,-0.022855812683701515,-0.05024789273738861,0.005000738482489783,0.43827978482840335,1.1087983092500775
1.9338600635528564,0.0069224536418914795,0.009724030271172523,0.02119123935699463,-0.100775346159935,-0.03504803031682968,-0.0632592961192131,0.003971106586413975,0.43808138712970557,1.1086592003920168
1.9439480304718018,0.005367368459701538,0.009099159389734268,0.015535533428192139,-0.08769874274730682,-0.03586007282137871,-0.07527297735214233,0.0028274234819078707,0.43782533606476587,1.1084566717643387
1.954246997833252,0.0037286877632141113,0.013394510373473167,0.025926649570465088,-0.050828877836465836,-0.032533518970012665,-0.09035339206457138,0.0018890111112138416,0.43757825141298634,1.1079911706866907
1.963710069656372,-0.0017655491828918457,0.0142362080514431,0.0281868577003479,-0.018216025084257126,-0.030762914568185806,-0.10039915889501572,0.001220096995255765,0.4373599305007504,1.1072774346348335
1.973729133605957,0.0006913244724273682,0.014268659986555576,0.016286730766296387,0.004120172932744026,-0.029014017432928085,-0.10556595772504807,0.0007490018249229916,0.4371405399554062,1.1063634175403054
1.9837090969085693,0.001964867115020752,0.00586949847638607,0.008092224597930908,0.04240209609270096,-0.015168732032179832,-0.09931722283363342,0.0005285576160113914,0.4369979323830454,1.1053560598855086
1.9937779903411865,-0.0008382499217987061,0.008347352035343647,0.014893531799316406,0.08776451647281647,0.001318898517638445,-0.102814219892025,0.0007023322620360808,0.4370435397892726,1.1041684225342576
2.0053200721740723,-0.008231699466705322,0.007203563116490841,0.019799470901489258,0.10668779909610748,0.014759295620024204,-0.09625480324029922,0.0011301952244734187,0.43720436370595206,1.1028392616755762
2.0138320922851562,-0.004769742488861084,0.0022288234904408455,0.01008594036102295,0.09977290034294128,0.021969804540276527,-0.09404118359088898,0.001633358229083545,0.437476162739837,1.1015388354726012
2.02396297454834,-0.0010412931442260742,-0.0033650703262537718,0.0025504231452941895,0.09703589975833893,0.021278714761137962,-0.0954413115978241,0.0020666957195471314,0.4377570444436877,1.10026093566995
2.033928871154785,-0.0069356560707092285,-0.00047839945182204247,0.005889713764190674,0.0963999405503273,0.015649590641260147,-0.09894336760044098,0.0024203986810649248,0.43804879102748073,1.098967406151655
2.0444421768188477,-0.008014440536499023,-0.001007711049169302,0.006980180740356445,0.0880696028470993,0.0072158025577664375,-0.0949062779545784,0.002699799247212634,0.4382462813757701,1.0976938279785604
2.053886890411377,-0.004715025424957275,-0.0012003155425190926,0.0031775236129760742,0.07119794189929962,0.0020684448536485434,-0.09087026119232178,0.002888673381096836,0.43836058193995786,1.0965093695887795
2.063832998275757,-0.0012490153312683105,-0.0016651377081871033,-0.00532686710357666,0.04061640053987503,-0.0023745065554976463,-0.07562755048274994,0.0029273949477968166,0.4384087132882105,1.095514488086231
2.0738701820373535,0.0009839236736297607,-0.0011751423589885235,-0.0033839941024780273,0.012938965111970901,0.002394415671005845,-0.07018830627202988,0.0027154775058063126,0.43847013926700074,1.0947377655433683
2.083961009979248,-0.0020189881324768066,-0.00935458205640316,0.006782948970794678,-0.02473476156592369,0.006515435874462128,-0.058617353439331055,0.0022569815851631396,0.43853362389221123,1.0941733889074938
2.0941100120544434,-0.00405314564704895,-0.009473889134824276,0.0016264915466308594,-0.05590279772877693,0.010320826433598995,-0.053930725902318954,0.0016036133433780457,0.4386056868994701,1.0938392325996664
2.1041600704193115,-0.0003609955310821533,-0.013529191724956036,-0.0047255754470825195,-0.08643706142902374,0.0083057451993227,-0.051757264882326126,0.0007984338442545992,0.43869003318574423,1.0936692850979353
2.114023208618164,-0.0017547607421875,-0.010063525289297104,-0.008231043815612793,-0.1095743328332901,-0.006928867194801569,-0.06049802899360657,-0.00028301380896741474,0.4386451157132934,1.0935865958982005
2.1241230964660645,-0.00023439526557922363,-0.007015588693320751,-0.012597262859344482,-0.10301165282726288,-0.020940866321325302,-0.06664305925369263,-0.0014617643100110396,0.4384325578712666,1.0934758483259843
2.1339359283447266,-0.0013487040996551514,-0.009328452870249748,-0.014295816421508789,-0.06786192208528519,-0.03992627561092377,-0.09088581800460815,-0.002477627063738418,0.4380801153750601,1.0931328145039405
2.1439340114593506,-0.005140870809555054,-0.0074215056374669075,-0.021039724349975586,-0.04491661116480827,-0.059499576687812805,-0.10779321193695068,-0.0032867451478606883,0.4375340320682142,1.0924685581207159
2.1541080474853516,9.819865226745605e-05,-0.0002784733660519123,-0.036318838596343994,-0.024725057184696198,-0.07373364269733429,-0.1356472223997116,-0.004017263706134191,0.4368556620643789,1.0915201548121958
2.1641159057617188,0.007339835166931152,0.0021896096877753735,-0.04252856969833374,-0.003046110738068819,-0.08776170760393143,-0.1598389446735382,-0.004524638191823493,0.4360554478430585,1.0902365435475274
2.1740920543670654,0.005841314792633057,0.010149684734642506,-0.03735971450805664,0.010447327047586441,-0.09946709871292114,-0.18321004509925842,-0.004956911294540863,0.43508371498045495,1.0886638195757885
2.1839780807495117,0.007230520248413086,0.008886326104402542,-0.028890609741210938,0.009907404892146587,-0.11518250405788422,-0.19818611443042755,-0.005381034326923423,0.4339905627918788,1.0868804251707316
2.1940832138061523,0.008975803852081299,0.002990136854350567,-0.025997161865234375,0.0032705413177609444,-0.13239797949790955,-0.21172429621219635,-0.0059976912312478415,0.4327248383036934,1.0849930032813546
2.20418119430542,0.013192445039749146,-0.001356801949441433,-0.019520938396453857,-0.008738035336136818,-0.15163829922676086,-0.21803945302963257,-0.00681988075483357,0.431276467840496,1.0830488797347624
2.214043140411377,0.012263774871826172,-0.0016148155555129051,-0.014360189437866211,-0.014362631365656853,-0.15961579978466034,-0.22676929831504822,-0.007718781838325249,0.42968199994556705,1.081073680284573
2.2240869998931885,0.009575486183166504,-0.007533557713031769,-0.008594274520874023,-0.049819089472293854,-0.17193815112113953,-0.23387274146080017,-0.008861563917299234,0.4279778827829089,1.0791040570984676
2.234128952026367,0.009323269128799438,-0.006392281502485275,-0.014559924602508545,-0.100661501288414,-0.1905680149793625,-0.2460082322359085,-0.010497465249269054,0.4260995367040299,1.0772305588957671
2.2441458702087402,0.015544146299362183,-0.007929333485662937,-0.018849730491638184,-0.14297083020210266,-0.20678921043872833,-0.26316437125205994,-0.012629753886141959,0.42408903352660365,1.0754206830338398
2.2544970512390137,0.015249162912368774,-0.0018214350566267967,-0.016606509685516357,-0.19962584972381592,-0.23182211816310883,-0.28701910376548767,-0.0153264314786441,0.42188577145220957,1.0736059900694206
2.264294147491455,0.013442784547805786,0.0020779334008693695,-0.020204782485961914,-0.26524338126182556,-0.27311480045318604,-0.31218665838241577,-0.01867547367032375,0.41935977463519264,1.0718194269227421
2.2741000652313232,0.027639418840408325,0.0005641188472509384,-0.022669553756713867,-0.3181518614292145,-0.3085324466228485,-0.34455180168151855,-0.022631546287672045,0.4164504875545056,1.070006116219134
2.2840700149536133,0.03213056921958923,-0.001441318541765213,-0.01901918649673462,-0.37699323892593384,-0.3511869013309479,-0.38345178961753845,-0.027278205782589618,0.4131104143770403,1.0680716672031443
2.294217109680176,0.03352779150009155,0.0038590356707572937,-0.019686102867126465,-0.43573564291000366,-0.40042343735694885,-0.40721890330314636,-0.032615631876454936,0.4092570100141477,1.0660585769986772
2.304276943206787,0.04702755808830261,0.008596368134021759,-0.016608059406280518,-0.4738174378871918,-0.4261395335197449,-0.4393030107021332,-0.0384716019414784,0.4050448070314313,1.0639820227422456
2.314336061477661,0.04356050491333008,0.010356474667787552,-0.008009672164916992,-0.5020546913146973,-0.44331586360931396,-0.4652613699436188,-0.04474305358963612,0.400594480782995,1.0617060386834596
2.3242990970611572,0.03136032819747925,0.010555893182754517,-0.0027695298194885254,-0.5297021865844727,-0.45672497153282166,-0.4846283197402954,-0.05134141766060486,0.3959638546952889,1.059327629343301
2.3341879844665527,0.04194566607475281,0.0006726682186126709,-0.0028032660484313965,-0.5638079643249512,-0.46411365270614624,-0.5050790309906006,-0.05829015379113747,0.3912288656732361,1.0568455798231213
2.344197988510132,0.046346455812454224,-0.0010023340582847595,-0.004727959632873535,-0.6307259798049927,-0.4903844892978668,-0.5406615138053894,-0.06577791049138583,0.3863075533447993,1.0542751079124795
2.3542630672454834,0.05514496564865112,0.006861887872219086,-0.0016766190528869629,-0.7327489852905273,-0.5412394404411316,-0.5973695516586304,-0.0742155074739404,0.3809606681444283,1.0515454116579077
2.364220142364502,0.06066882610321045,0.019787102937698364,0.006717562675476074,-0.8301363587379456,-0.5809162259101868,-0.6634446382522583,-0.08381171967078946,0.3751025811888221,1.0485773434020231
2.3742852210998535,0.05772900581359863,0.026172831654548645,0.012196362018585205,-0.9165714383125305,-0.6277740001678467,-0.7472013235092163,-0.09454326898853886,0.3687620747730841,1.0451590968731592
2.3842720985412598,0.05779048800468445,0.02632754296064377,-0.0015279054641723633,-0.9674159288406372,-0.6815229654312134,-0.831788957118988,-0.10619653037311395,0.3618051764810379,1.0411327578076957
2.3942489624023438,0.08090576529502869,0.030904188752174377,-0.01772284507751465,-0.9450315237045288,-0.7465919852256775,-0.92240971326828,-0.11828231755669391,0.35410285358991006,1.036243016285997
2.404294013977051,0.09762051701545715,0.028057396411895752,-0.025882840156555176,-0.8603683710098267,-0.8090060949325562,-1.0110341310501099,-0.13013158563690636,0.3455509294638491,1.0302118164575722
2.414306163787842,0.11016491055488586,0.029813840985298157,-0.024880707263946533,-0.738323450088501,-0.853545069694519,-1.1015729904174805,-0.14121816785265529,0.33623243618880144,1.0228676992520478
2.424391031265259,0.12217959761619568,0.037300512194633484,-0.03392094373703003,-0.6176681518554688,-0.8919435739517212,-1.212004542350769,-0.15138780421893536,0.32620490188951373,1.0140443328850663
2.4343650341033936,0.1371152698993683,0.06023611128330231,-0.04787939786911011,-0.5239869356155396,-0.9468808770179749,-1.3471453189849854,-0.16085496373913757,0.3153901680267071,1.0035631178307165
2.444395065307617,0.16392841935157776,0.08083087205886841,-0.065834641456604,-0.45427757501602173,-1.0110529661178589,-1.5020251274108887,-0.16984760612821634,0.30357139316408993,0.9913241452738257
2.4548890590667725,0.21212974190711975,0.1116301417350769,-0.08402597904205322,-0.417868435382843,-1.0858334302902222,-1.6850066184997559,-0.17865626989601008,0.2906308438137277,0.9771279666689671
2.464427947998047,0.25016024708747864,0.1419544219970703,-0.08699274063110352,-0.3701227903366089,-1.191405177116394,-1.8868505954742432,-0.18748094669022325,0.2762790071287803,0.9608034609022886
2.475044012069702,0.285732626914978,0.15197981894016266,-0.08187532424926758,-0.2882463037967682,-1.3072888851165771,-2.0882551670074463,-0.19596739048025602,0.26023619526092023,0.9421501716761413
2.484334945678711,0.32982754707336426,0.16880187392234802,-0.09901982545852661,-0.2740723490715027,-1.4199862480163574,-2.2739710807800293,-0.20407194309893079,0.2424165719581847,0.9212401648108903
2.494297981262207,0.366508424282074,0.19186417758464813,-0.1270042061805725,-0.27698078751564026,-1.4815044403076172,-2.426697015762329,-0.21225317330457985,0.22316099597297087,0.8984698611090198
2.5046300888061523,0.386079341173172,0.1686398684978485,-0.12394112348556519,-0.21158042550086975,-1.477676510810852,-2.5636277198791504,-0.21997096601246496,0.20309026302045957,0.874027596564216
2.5143508911132812,0.3737908601760864,0.16178418695926666,-0.10614562034606934,-0.10771182179450989,-1.449582576751709,-2.676119804382324,-0.22662568633813834,0.18268046807365498,0.8479407529577173
2.5245020389556885,0.360557496547699,0.18562883138656616,-0.08104825019836426,0.056961484253406525,-1.448569893836975,-2.762359619140625,-0.23158182698680815,0.16189249653527316,0.8204226161318201
2.5345029830932617,0.36217981576919556,0.18311618268489838,-0.05740642547607422,0.2153138369321823,-1.405470848083496,-2.804953098297119,-0.2344465531035294,0.14097071412692158,0.7918911982630569
2.5447330474853516,0.3644762337207794,0.18050982058048248,-0.05736035108566284,0.3434533178806305,-1.2987172603607178,-2.872023820877075,-0.235322197088874,0.1206077288962676,0.7625604333006281
2.5547430515289307,0.33767077326774597,0.15615779161453247,-0.022236645221710205,0.43408307433128357,-1.2001566886901855,-2.942230463027954,-0.23464650338636892,0.10108824071510851,0.732366644254224
2.5644001960754395,0.31015801429748535,0.1543365865945816,0.030243873596191406,0.5030546188354492,-1.1208152770996094,-2.9883296489715576,-0.23267574843478372,0.0823178211008448,0.701517568661633
2.5746541023254395,0.3087442219257355,0.18621422350406647,0.06768733263015747,0.515754222869873,-1.0122653245925903,-3.027038812637329,-0.2297735998245492,0.06448448499518786,0.6702653512182142
2.5846340656280518,0.292159765958786,0.19832904636859894,0.07617229223251343,0.5041568279266357,-0.9050331115722656,-3.0285818576812744,-0.22637507033502885,0.04779183225158654,0.6388831349706876
2.5946290493011475,0.2677258849143982,0.15393055975437164,0.08388626575469971,0.4877443015575409,-0.7736316919326782,-3.019681930541992,-0.2226609328335686,0.03241137822533561,0.6076572176570075
2.6047070026397705,0.2337479293346405,0.09633021056652069,0.10620951652526855,0.5478857755661011,-0.6140251159667969,-3.009786367416382,-0.21829651166640898,0.018664369788499544,0.5765949871029303
2.6145849227905273,0.19356593489646912,0.05415831506252289,0.12398350238800049,0.6278842091560364,-0.4683946669101715,-2.9942171573638916,-0.2127946940227266,0.0066730395510978075,0.5457320236443286
2.6245169639587402,0.18315891921520233,0.04968899488449097,0.13526606559753418,0.7525448799133301,-0.37112316489219666,-2.952709913253784,-0.2060073288533837,-0.0038582941987924508,0.5152680629548951
2.6347432136535645,0.16797351837158203,0.03211952745914459,0.1627269983291626,0.9091616868972778,-0.25342822074890137,-2.888622522354126,-0.19743244333007956,-0.012952160528615557,0.4855078387789795
2.6447629928588867,0.11795332282781601,-0.018747910857200623,0.16813188791275024,1.0259077548980713,-0.12312253564596176,-2.841034173965454,-0.18719805867319803,-0.020379970480331258,0.45647086929013947
2.655210018157959,0.06936843693256378,-0.04368065297603607,0.1686674952507019,1.0625089406967163,-0.02559518627822399,-2.7839274406433105,-0.17613633445402674,-0.026259764655529396,0.428059490801253
2.6645889282226562,0.055327825248241425,-0.036480650305747986,0.18346983194351196,1.2148728370666504,0.004728010855615139,-2.6734116077423096,-0.16407777806601284,-0.030937559026162395,0.40066147204924524
2.674774169921875,0.04876042157411575,-0.044125378131866455,0.2277800440788269,1.3405174016952515,0.05805940926074982,-2.5860462188720703,-0.15032787936260425,-0.034739727235586,0.3744955628130448
2.6863279342651367,0.010496582835912704,-0.014925569295883179,0.2547973394393921,1.2743815183639526,0.10696214437484741,-2.5082738399505615,-0.13633477860618803,-0.0374335648219867,0.3492035152861058
2.6946868896484375,-0.006869710981845856,0.02454323321580887,0.2574009895324707,1.171290636062622,0.10054898262023926,-2.385897159576416,-0.12327581428325231,-0.03946059269761621,0.3249966275898877
2.704677104949951,0.021797265857458115,-0.051720745861530304,0.27114927768707275,1.0827292203903198,0.12472663074731827,-2.2923367023468018,-0.11095434058483963,-0.04108931149875989,0.30194864126870263
2.7146968841552734,0.027794934809207916,-0.12824290990829468,0.22846734523773193,0.8226504325866699,0.18901321291923523,-2.220825672149658,-0.1005807018285716,-0.04179715935314621,0.279640400339724
2.7247982025146484,0.020225893706083298,-0.0886409655213356,0.17191076278686523,0.6511045694351196,0.1767408400774002,-2.1458170413970947,-0.0923277078538174,-0.04199316010927317,0.2580109191785959
2.736431121826172,0.03771624714136124,-0.10748765617609024,0.17253106832504272,0.5421764850616455,0.16908371448516846,-2.0669894218444824,-0.08543611844385411,-0.04213977865833337,0.2371134802751315
2.7448649406433105,0.03910460323095322,-0.13730141520500183,0.13469702005386353,0.39188215136528015,0.15887221693992615,-1.9981635808944702,-0.07998341884929064,-0.04213585569954493,0.21690131123564424
2.756938934326172,0.03319777920842171,-0.09923390299081802,0.10643655061721802,0.4435218870639801,0.11388157308101654,-1.9155826568603516,-0.07519617970414368,-0.042271654477878354,0.19742135783344736
2.764707088470459,0.029425978660583496,-0.1329621970653534,0.10698574781417847,0.5901978611946106,0.10357096791267395,-1.8286468982696533,-0.06909842293472226,-0.04255631626340918,0.17890143234760866
2.7748260498046875,-0.006327539682388306,-0.12821488082408905,0.07190823554992676,0.7921411395072937,0.10678434371948242,-1.7745498418807983,-0.06149673703692473,-0.04267068754608626,0.1611408416967193
2.786825180053711,-0.043961137533187866,-0.003949236124753952,0.06066536903381348,0.9177104830741882,0.07482267171144485,-1.695885419845581,-0.05231323974870348,-0.04267351569608216,0.14406791780297318
2.7947402000427246,-0.040343377739191055,0.01660015434026718,0.034731924533843994,0.9897809624671936,0.003938916139304638,-1.6050018072128296,-0.041777168609840785,-0.04303593010551068,0.12797809550299488
2.8048272132873535,-5.287677049636841e-05,0.009511828422546387,-0.01620548963546753,0.856575608253479,-0.11671071499586105,-1.5155030488967896,-0.031890970530871116,-0.04411251247944973,0.11275480845961296
2.8150620460510254,0.028440408408641815,0.017702149227261543,-0.003932178020477295,0.6930599212646484,-0.2653521001338959,-1.4377288818359375,-0.023468515460633096,-0.04644498871527756,0.09834105003383037
2.824800968170166,0.01821829006075859,-0.07915110886096954,0.06662887334823608,0.500217616558075,-0.3374532461166382,-1.3697911500930786,-0.01672847816139879,-0.04980126601384338,0.0846022969450433
2.837337017059326,-0.023545067757368088,-0.14787176251411438,0.07819968461990356,0.1699180006980896,-0.3659810423851013,-1.3022241592407227,-0.012725306311611301,-0.05351141847617457,0.07140779311823744
2.8448848724365234,-0.049079280346632004,-0.15817363560199738,0.07254528999328613,-0.048782605677843094,-0.3998773694038391,-1.2279582023620605,-0.01143039320444275,-0.05752383245280695,0.05879008764939154
2.8549041748046875,-0.04894246906042099,-0.21935157477855682,0.06308555603027344,-0.4201963543891907,-0.3720172345638275,-1.1451070308685303,-0.013022885529575241,-0.06154496750904034,0.04677744961948526
2.8649301528930664,-0.044735997915267944,-0.2002018392086029,0.005442321300506592,-0.6419217586517334,-0.3654635548591614,-1.0387136936187744,-0.01775371030678244,-0.06538277271696828,0.03551962468744572
2.8751349449157715,-0.038207583129405975,-0.174947589635849,0.032414913177490234,-0.7053132653236389,-0.355182409286499,-0.9358271956443787,-0.023903394074932117,-0.06922856104800458,0.025197509870475008
2.8863420486450195,-0.0412716343998909,-0.1909533590078354,0.043215811252593994,-0.8148282170295715,-0.3126377761363983,-0.8511843085289001,-0.03084805279372,-0.07282602535708754,0.01574470317880607
2.8948569297790527,-0.044135212898254395,-0.11216993629932404,0.0393977165222168,-0.9281947016716003,-0.3252238929271698,-0.7760128378868103,-0.038907321846183104,-0.0762817219423223,0.006980316913042653
2.904971122741699,-0.03480201214551926,-0.11786043643951416,0.08959174156188965,-0.942816972732544,-0.35611164569854736,-0.715448796749115,-0.04779527895816457,-0.08006014556045385,-0.0012081861940629274
2.9149599075317383,-0.029789939522743225,-0.19864638149738312,0.12883561849594116,-0.9493741989135742,-0.33411580324172974,-0.6766215562820435,-0.05666341655340506,-0.08395363295716175,-0.008928387770389346
2.9249730110168457,-0.03855510056018829,-0.19224666059017181,0.09886401891708374,-0.8615475296974182,-0.30361345410346985,-0.6435876488685608,-0.06518736564978349,-0.08758211286898196,-0.0163059106633162
2.936681032180786,-0.041377849876880646,-0.17000974714756012,0.054654717445373535,-0.8064624667167664,-0.2720035910606384,-0.6143330931663513,-0.07289130146433517,-0.09094691547151212,-0.023325003775579837
2.9450721740722656,-0.03363115340471268,-0.18957063555717468,-0.002366006374359131,-0.7528768181800842,-0.24419228732585907,-0.582115888595581,-0.08015963656761153,-0.09403695321277482,-0.03003514201615554
2.955047130584717,-0.025383003056049347,-0.17836341261863708,-0.022311270236968994,-0.656952977180481,-0.22154849767684937,-0.5527819395065308,-0.08665995032432018,-0.09689701026908866,-0.036385527108006535
2.9650630950927734,-0.02430570125579834,-0.1831042617559433,-0.014581382274627686,-0.513617753982544,-0.18449988961219788,-0.521770715713501,-0.09197130149591638,-0.09947776782013638,-0.04233482018819778
2.9750609397888184,-0.030920229852199554,-0.16851270198822021,-0.013801872730255127,-0.44568952918052673,-0.13789322972297668,-0.48757171630859375,-0.09622791175340717,-0.10159033697268427,-0.047869710418341524
2.986821174621582,-0.030707746744155884,-0.14667408168315887,-0.01603788137435913,-0.38661307096481323,-0.13002856075763702,-0.44029489159584045,-0.09988906948718963,-0.10341418847549987,-0.05294911372011737
2.9952259063720703,-0.024794772267341614,-0.16233181953430176,0.00028264522552490234,-0.29880598187446594,-0.11840865015983582,-0.3863629400730133,-0.10289746188077961,-0.10511963049818607,-0.0574511342432282
3.006916046142578,-0.025336578488349915,-0.18276038765907288,-0.0028386712074279785,-0.24720986187458038,-0.0952601507306099,-0.3393351435661316,-0.10518041228488853,-0.10658736534891006,-0.06136405848533942
3.015064001083374,-0.030953384935855865,-0.16189603507518768,-0.02703636884689331,-0.23507730662822723,-0.08217523992061615,-0.2937341034412384,-0.10723106158845638,-0.10782857284890045,-0.06478396231914565
3.025261878967285,-0.030542567372322083,-0.14500483870506287,-0.019375264644622803,-0.25957489013671875,-0.0707501471042633,-0.2588428258895874,-0.10938017532255274,-0.1089335801107726,-0.06782131816273582
3.037126064300537,-0.033419616520404816,-0.17018434405326843,0.005234062671661377,-0.2830229699611664,-0.051241159439086914,-0.23043407499790192,-0.11183909332998604,-0.10985087839647897,-0.07056976402564781
3.045175075531006,-0.043374620378017426,-0.18794909119606018,0.023709475994110107,-0.30682572722435,-0.015835454687476158,-0.20083580911159515,-0.11451476303704847,-0.11048074377301431,-0.07304189222619094
3.0550670623779297,-0.0490587055683136,-0.18777978420257568,0.024890601634979248,-0.34480372071266174,0.01977899856865406,-0.17892731726169586,-0.11755498803355616,-0.11071310724340365,-0.07531436243333729
3.0650339126586914,-0.047887906432151794,-0.17276641726493835,0.01695990562438965,-0.3462757468223572,0.03958750143647194,-0.15756215155124664,-0.12081424649276185,-0.1106440638365865,-0.0773940146360466
3.0750808715820312,-0.037645354866981506,-0.16151559352874756,0.00625985860824585,-0.33436185121536255,0.04834211245179176,-0.1283257156610489,-0.12406837540091327,-0.11041403673309032,-0.07920452456955034
3.087049961090088,-0.02763696014881134,-0.14261217415332794,-0.0065877437591552734,-0.26668211817741394,0.061049651354551315,-0.10310370475053787,-0.12694663869076317,-0.11006600634902165,-0.08070017343391976
3.095376968383789,-0.025644242763519287,-0.12404099106788635,-0.01518869400024414,-0.19834275543689728,0.0772445946931839,-0.0716075599193573,-0.129191573572203,-0.10950343552864597,-0.0818324625487844
3.1053030490875244,-0.02567579597234726,-0.09884944558143616,-0.03114527463912964,-0.12244759500026703,0.07968920469284058,-0.03893100470304489,-0.13070036512129046,-0.108796395417331,-0.08256041260398778
3.115230083465576,-0.019539251923561096,-0.06999678909778595,-0.033061206340789795,-0.05478998273611069,0.06375444680452347,-0.01096914242953062,-0.1315639850995148,-0.10811466172606261,-0.08290471022386946
3.1251699924468994,-0.014188319444656372,-0.05838307738304138,-0.020174801349639893,-0.009108314290642738,0.04940284788608551,0.005418619140982628,-0.1318546462006213,-0.10754102886878021,-0.08294558763921499
3.1364221572875977,-0.010290771722793579,-0.06061407923698425,-0.006300747394561768,-0.01213073544204235,0.034873440861701965,0.010947074741125107,-0.13195025551772704,-0.10710008516268786,-0.08285783539063038
3.1451900005340576,-0.008649617433547974,-0.05306139588356018,-0.002073526382446289,-0.06388985365629196,0.01939847692847252,0.01274982187896967,-0.13228930905954414,-0.10681935264824796,-0.08276939840473063
3.1551661491394043,-0.004869475960731506,-0.05221074819564819,-0.0008501410484313965,-0.11952435225248337,0.0004895012825727463,0.007773439399898052,-0.13326303586035482,-0.1067363091278311,-0.08276410599096429
3.1656010150909424,-0.002433203160762787,-0.055866703391075134,-0.0009163022041320801,-0.18757189810276031,-0.0011872691102325916,-0.0029784345533698797,-0.13444234628351176,-0.10674810141070794,-0.08289884263775461
3.175403118133545,-0.0035243630409240723,-0.053083136677742004,-0.02120673656463623,-0.23162829875946045,-0.00692611513659358,-0.017747793346643448,-0.13628377781236714,-0.1068290499282818,-0.08323857346253358
3.186824083328247,-0.0019445642828941345,-0.04327170550823212,-0.03422003984451294,-0.2091791033744812,-0.010045786388218403,-0.034544721245765686,-0.13827083597953166,-0.10699071539661113,-0.08373656181809205
3.195281982421875,-0.0017876774072647095,-0.03905990719795227,-0.04575812816619873,-0.18142150342464447,-0.0079520083963871,-0.055613789707422256,-0.14002693841548874,-0.10717648156917033,-0.08440719182215689
3.2052512168884277,-0.0016670674085617065,-0.009136900305747986,-0.05731546878814697,-0.14260917901992798,-0.023247651755809784,-0.07146961241960526,-0.1414134090474304,-0.10742866269032594,-0.08522320403295855
3.215276002883911,0.0015674754977226257,0.005506381392478943,-0.04881441593170166,-0.10004600882530212,-0.037705421447753906,-0.08810850977897644,-0.14237427152367707,-0.1078617635052426,-0.08615105034912406
3.225290060043335,0.0031407326459884644,-0.009783774614334106,-0.03064572811126709,-0.07040902227163315,-0.029322678223252296,-0.10916031897068024,-0.14289924612499857,-0.10835225047561084,-0.08722558991887984
3.2362940311431885,-0.0026469454169273376,-0.01649412512779236,-0.029352188110351562,-0.059862371534109116,-0.024430982768535614,-0.12188675999641418,-0.14315776289391516,-0.1087548260089332,-0.08846189195804798
3.2452969551086426,-0.003196030855178833,-0.01736481487751007,-0.03183656930923462,-0.04966745898127556,-0.022129125893115997,-0.12769709527492523,-0.1431895543004614,-0.10911226694909026,-0.08977473670547138
3.2557590007781982,-0.0007225945591926575,-0.03296905755996704,-0.024873554706573486,-0.01435527391731739,-0.006460683420300484,-0.12906941771507263,-0.14286025951934928,-0.10935673181090494,-0.09108503369361155
3.2653369903564453,-0.0011576265096664429,-0.040880441665649414,-0.02239137887954712,0.01035962626338005,0.006108904257416725,-0.12722602486610413,-0.14229730606057217,-0.10943299027936439,-0.0923623231721524
3.2754080295562744,-0.0025041550397872925,-0.04057513177394867,-0.025516152381896973,0.03435657173395157,0.010206976905465126,-0.12079822272062302,-0.14152647425057677,-0.10941708155490092,-0.09356975801607667
