timestamp,accel_x,accel_y,accel_z,rotation_x,rotation_y,rotation_z, pitch,roll,yaw
0.046946048736572266,0.011021584272384644,-0.0029129385948181152,0.0015578866004943848,0.0022404470946639776,-0.01678326353430748,-0.00036659330362454057,-0.018966315179075474,0.07599449107216795,0.0007210361278094877
0.05516409873962402,0.011742569506168365,-0.002622261643409729,-0.0018467307090759277,0.0008204497862607241,-0.018906600773334503,-0.0009096118155866861,-0.01895029357305663,0.07582227820001984,0.0007122311694683274
0.056427955627441406,0.01331058144569397,-0.004336711019277573,-0.0036449432373046875,0.003983885515481234,-0.026871850714087486,0.00021003431174904108,-0.01892523668920881,0.07559632026059242,0.0007218760555727076
0.061774253845214844,0.014247402548789978,-0.006645528599619865,3.916025161743164e-05,0.0034163659438490868,-0.028630336746573448,0.0011011279420927167,-0.018884191996245175,0.07531471381200118,0.0007213582861379323
0.07115030288696289,0.0125054270029068,-0.007169963791966438,0.006637275218963623,-0.004245714750140905,-0.02798398584127426,0.0030126385390758514,-0.018889828240303386,0.07502640877445867,0.000743738244131844
0.08121204376220703,0.009964637458324432,-0.010178711265325546,0.009295523166656494,-0.01201575342565775,-0.02568487823009491,0.006903250701725483,-0.018968905218403272,0.07475890310107458,0.0007996993614193401
0.09117817878723145,0.009248889982700348,-0.012523965910077095,0.013997495174407959,-0.010856280103325844,-0.027454815804958344,0.008312488906085491,-0.019071134831772505,0.07449745345043263,0.0008823020245625035
0.10123300552368164,0.009176872670650482,-0.011387970298528671,0.015754520893096924,-0.0015978004084900022,-0.02203075774013996,0.01408222783356905,-0.019125332330730258,0.07424837552360554,0.0009961032407681827
0.11115503311157227,0.010121025145053864,-0.008273830637335777,0.014562547206878662,-0.000807091360911727,-0.015684310346841812,0.01945052109658718,-0.019123988093829553,0.07406663024376353,0.0011621268497474676
0.12164807319641113,0.008262760937213898,-0.008416816592216492,0.012130916118621826,0.0027293202001601458,-0.013193720951676369,0.02431957796216011,-0.019099123754494893,0.07394085183794542,0.0013830767464546002
0.131195068359375,0.00735677033662796,-0.006777646020054817,0.01545339822769165,0.00946846604347229,-0.012463881634175777,0.027850821614265442,-0.019016335097412133,0.07380873883508499,0.0016470122324289372
0.1412372589111328,0.007345162332057953,-0.006203772500157356,0.021305322647094727,0.0054433648474514484,-0.005797191523015499,0.029786141589283943,-0.018915464420176473,0.07372842591352437,0.001924466490431794
0.15127801895141602,0.0042701587080955505,-0.0025246180593967438,0.02054351568222046,-0.0017926438013091683,0.0011611157096922398,0.026442117989063263,-0.01888315593042333,0.0737210884544261,0.0022092995571009917
0.16152524948120117,0.0011221319437026978,-0.002078896388411522,0.021305620670318604,-0.006126672029495239,-0.0014969855546951294,0.020320842042565346,-0.018910460463480144,0.07372584807665952,0.0024454520940817193
0.17158126831054688,0.0017689019441604614,-0.0017261654138565063,0.022541463375091553,-0.0028172286693006754,0.0009576501324772835,0.01984482817351818,-0.018939204104935835,0.0737199764349705,0.0026449246626980122
0.18156719207763672,0.0022435560822486877,0.008398927748203278,0.018755853176116943,-0.003987421747297049,0.0003826739266514778,0.016447432339191437,-0.01896120916148568,0.07373366765801324,0.0028330961429709075
0.19144821166992188,0.0032228901982307434,0.01151726208627224,0.0141754150390625,-0.005633005406707525,0.0025304683949798346,0.01006373018026352,-0.0190014524993509,0.07376155573157583,0.002970165352912712
0.20150518417358398,0.002934485673904419,0.00792495347559452,0.012870490550994873,-0.008402693085372448,0.006275671999901533,0.007952109910547733,-0.01900794806088578,0.0738671690126365,0.003067792328454912
0.211456298828125,0.0005238726735115051,0.009567370638251305,0.01231229305267334,-0.011828317306935787,0.003872967790812254,0.005563520826399326,-0.019059265609748837,0.07397409186345036,0.0031499162364250883
0.22148609161376953,0.0010491609573364258,0.013640668243169785,0.010015428066253662,-0.015302144922316074,0.0020247341599315405,0.0007290843641385436,-0.019151632680937697,0.0740595319307852,0.0031881880645264603
0.2312159538269043,0.000711195170879364,0.00930657610297203,0.00872659683227539,-0.02280099131166935,0.0012149116955697536,-0.005179191939532757,-0.019335367339393002,0.07410797714459072,0.0031776470788154884
0.24171018600463867,-0.0006604641675949097,0.007056891918182373,0.009041666984558105,-0.021766886115074158,0.00011928705498576164,-0.011254395358264446,-0.019555675096057327,0.07412197068760452,0.003109224304414828
0.2514340877532959,-0.0025051385164260864,0.007191304117441177,0.009296953678131104,-0.02194511517882347,-0.004532101564109325,-0.010264817625284195,-0.019772257689937622,0.0741206446887522,0.003012525747025965
0.2614891529083252,-0.002379775047302246,0.0070709288120269775,0.005128383636474609,-0.020330706611275673,-0.006021074950695038,-0.012263519689440727,-0.020045271937728874,0.07408712555293993,0.0029076418023411318
0.27164506912231445,-0.0009990334510803223,0.00474509596824646,0.004104554653167725,-0.016176659613847733,-0.008420005440711975,-0.013195466250181198,-0.020311225686778567,0.07403414676156556,0.002791164064297129
0.2813992500305176,-0.0024963170289993286,0.0006178691983222961,0.005324006080627441,-0.016083449125289917,-0.002365575172007084,-0.012139789760112762,-0.020532248234346052,0.07399050285560214,0.0026671766771408176
0.2913811206817627,-0.003431551158428192,-0.0022171828895807266,0.0053026676177978516,-0.016217704862356186,0.003957035485655069,-0.006662252824753523,-0.020758093894090966,0.07401060238457086,0.0025805080622338223
0.30151796340942383,-0.0030065327882766724,-0.0048064012080430984,0.0025937557220458984,-0.01805342175066471,-0.0014345343224704266,-0.004964487627148628,-0.02102803652363829,0.07404387672460526,0.0025344125028395423
0.31160807609558105,-0.0013767480850219727,-0.004798980429768562,0.003418147563934326,-0.01467523630708456,-0.013544372282922268,-0.005506973713636398,-0.02126480961456401,0.07397064023575463,0.0024977179081833176
0.32191014289855957,0.004743300378322601,-0.004861697554588318,0.005285680294036865,-0.01711469143629074,-0.012213590554893017,-0.003946893848478794,-0.02146490254290525,0.07383193998095125,0.0024625356180696194
0.3315751552581787,0.003938563168048859,-0.004220360890030861,0.0023426413536071777,-0.029434524476528168,-0.008103400468826294,-0.0009941939497366548,-0.021754419487630315,0.07372128334538054,0.0024578948441018704
0.34162211418151855,0.0013609081506729126,-0.005682568997144699,-0.0017601847648620605,-0.02741398476064205,-0.0150595773011446,-0.003356151282787323,-0.02208755577084231,0.07359830986191593,0.0024675613349115313
0.3515772819519043,0.003908418118953705,-0.008619869127869606,0.0014672279357910156,-0.01693865656852722,-0.020992079749703407,-0.003910781349986792,-0.022339371767487907,0.07341578432024429,0.0024514409338766193
0.3618149757385254,0.0061633288860321045,-0.00327853299677372,0.005981743335723877,-0.014684291556477547,-0.020563310012221336,0.0005966187454760075,-0.0224912367487155,0.07318986891547295,0.0024487573438553355
0.37291622161865234,0.0063285306096076965,0.0008961576968431473,0.002713620662689209,-0.01628393493592739,-0.017335958778858185,-0.0006017503910697997,-0.022619557911340137,0.07297849508393593,0.0024669168694802643
0.3816852569580078,0.005664274096488953,-0.0033334381878376007,0.0010312795639038086,-0.01543678343296051,-0.017771385610103607,0.00032955699134618044,-0.022729309339150496,0.07278788642170482,0.0024708132926236203
0.3916893005371094,0.0077936649322509766,-0.004516776651144028,0.0011039376258850098,-0.008042633533477783,-0.017193613573908806,0.0011660025920718908,-0.022783511383159816,0.07261119925012267,0.002477141274846797
0.4016752243041992,0.00796537846326828,-0.002397015690803528,0.00384366512298584,-0.009499382227659225,-0.018706820905208588,0.0015460357535630465,-0.022815249427657967,0.07248495045266996,0.0024938486260010976
0.41172027587890625,0.00813903659582138,-0.0036306995898485184,0.006019115447998047,-0.013752584345638752,-0.019103987142443657,0.001646862830966711,-0.02288928392869089,0.07234151412239138,0.002518763631853772
0.4218780994415283,0.00995984673500061,-0.0063843317329883575,0.006639361381530762,-0.019695695489645004,-0.018848856911063194,-0.0006218840135261416,-0.023003175506639616,0.07216834594482686,0.002535086377737209
0.433657169342041,0.011688672006130219,-0.005389047786593437,0.008858323097229004,-0.0206894688308239,-0.015662873163819313,0.001848730375058949,-0.023121813223501042,0.07204151933680697,0.00255919926264819
0.44278812408447266,0.00977625697851181,-0.004176679998636246,0.008844077587127686,-0.01956774666905403,-0.012218605726957321,0.0033667320385575294,-0.023298043894144013,0.07197038896951062,0.002599080815861037
0.45180320739746094,0.009100981056690216,-0.00363345630466938,0.008844137191772461,-0.014173146337270737,-0.012105953879654408,0.0025128163397312164,-0.023472029486596425,0.07191336680895903,0.0026435351862596937
0.4617950916290283,0.010130323469638824,-0.0027572549879550934,0.009227752685546875,-0.008378108963370323,-0.00904811266809702,0.004778101108968258,-0.023541892130447467,0.07186055139576107,0.0026926822415434186
0.4719541072845459,0.009276613593101501,-0.0021717865020036697,0.011072397232055664,-0.007325527258217335,-0.002576542552560568,0.0070229326374828815,-0.02356678423947389,0.07187512204491346,0.002764717971877003
0.48180198669433594,0.007744282484054565,-0.0025861281901597977,0.009738922119140625,-0.007350561209022999,0.0029630986973643303,0.007923614233732224,-0.023614925982626392,0.07194287204930985,0.00284859315944279
0.4918820858001709,0.006999507546424866,-0.004638416692614555,0.010659098625183105,-0.0076703401282429695,0.007727671414613724,0.008306097239255905,-0.023653066315817324,0.07207775864725749,0.002931758157911433
0.5018720626831055,0.006175830960273743,-0.004099234938621521,0.010235130786895752,-0.004272146616131067,0.009024364873766899,0.010881374590098858,-0.023647939285785465,0.07224577130463489,0.0030429797380065538
0.5118532180786133,0.005562402307987213,-0.004130342975258827,0.012374162673950195,0.0020990832708775997,0.007534104399383068,0.007938900962471962,-0.023602743351721717,0.07243242510764727,0.003141989041859966
0.522118091583252,0.0055931806564331055,-0.00297573022544384,0.014440000057220459,0.005156391765922308,0.00877407193183899,0.008681124076247215,-0.023531484073290813,0.07258507541072634,0.003232002588081913
0.5318622589111328,0.005859151482582092,-0.0007528923451900482,0.013299643993377686,0.0030602682381868362,0.011814646422863007,0.007591518107801676,-0.02346011564879488,0.07276200979770567,0.003315915351979722
0.5419092178344727,0.003411620855331421,-0.0007140003144741058,0.010370850563049316,-0.0031068138778209686,0.01304076611995697,0.008222153410315514,-0.023436476695113225,0.07296705186174349,0.0033982588509301587
0.5518612861633301,0.005206398665904999,-0.00024041160941123962,0.007228672504425049,-0.0027451233472675085,0.0118950754404068,0.007091429550200701,-0.023451170681361065,0.07315649683417742,0.003478822486530826
0.5628061294555664,0.0073685795068740845,0.0016402117908000946,0.005812644958496094,0.0004972752649337053,0.010825549252331257,0.009668038226664066,-0.023432116955425797,0.07332938782164539,0.0035592582688311262
0.5723361968994141,0.007134675979614258,0.004345409572124481,0.0031166672706604004,0.002105291932821274,0.010676411911845207,0.010151402093470097,-0.023381934426848706,0.07348739029575056,0.003661620835900072
0.5818862915039062,0.006337545812129974,0.0063204169273376465,0.0031551122665405273,0.008003661409020424,0.005320529453456402,0.010851813480257988,-0.023298994633297182,0.07361335975559592,0.003770614912890269
0.5919241905212402,0.006776407361030579,0.006708566099405289,0.003747701644897461,0.012364303693175316,0.003354183863848448,0.00911660399287939,-0.023154944714794977,0.0736932823545177,0.0038579313285156415
0.6019291877746582,0.005369760096073151,0.004962775856256485,0.00458526611328125,0.008351186290383339,0.0012793149799108505,0.005780728068202734,-0.023023868346940052,0.07375712380455564,0.003916803521746842
0.6119601726531982,0.00406365841627121,0.0036770273000001907,0.007801711559295654,-0.00024275085888803005,0.0030265708919614553,0.004248238168656826,-0.022982093679614703,0.07381211020318293,0.003962817796020032
0.622401237487793,0.003927767276763916,-0.0010524652898311615,0.010418891906738281,-0.007347265724092722,0.010478895157575607,0.0013413983397185802,-0.023011887000210274,0.0739025388831045,0.003992525175995127
0.6320030689239502,0.0020665153861045837,-0.0011773668229579926,0.01167154312133789,-0.01096397079527378,0.012347811833024025,0.004915786907076836,-0.02312155887990495,0.07405545773390453,0.004032111889715262
0.6420392990112305,0.002333410084247589,-0.0006067119538784027,0.01235806941986084,-0.007963920943439007,0.012688962742686272,0.0030449163168668747,-0.023222317237768995,0.07423177376548568,0.004074083725598379
0.6520061492919922,0.004898875951766968,-0.0037614423781633377,0.010557234287261963,-0.00458032451570034,0.012811068445444107,0.005967415403574705,-0.023310055472008047,0.07441359175346875,0.004124839803883158
0.6621041297912598,0.007177785038948059,-0.0005155857652425766,0.008102238178253174,-0.0025536587927490473,0.010531935840845108,0.00977147463709116,-0.02337537244619473,0.07457668629952771,0.004202658510774935
0.6721131801605225,0.006935767829418182,0.0007072258740663528,0.006747186183929443,-0.007914152927696705,0.009463964030146599,0.010752104222774506,-0.023464843410642013,0.07471247603118876,0.004308215371065179
0.6820220947265625,0.008791245520114899,-0.0037108194082975388,0.009069502353668213,-0.011626865714788437,0.008978735655546188,0.012289812788367271,-0.023579941941636103,0.07484123371422392,0.004427477081869521
0.6920890808105469,0.007487386465072632,-0.0065416209399700165,0.01037055253982544,-0.015887390822172165,0.005510767921805382,0.01300780102610588,-0.023740499872556504,0.07494024208717616,0.004563139863802166
0.7020430564880371,0.00697655975818634,-0.005691425874829292,0.011155128479003906,-0.01826559379696846,0.0033432210329920053,0.013224582187831402,-0.023897430143503463,0.07500904777665297,0.004710991675744154
0.71209716796875,0.005507230758666992,-0.001313021406531334,0.012245118618011475,-0.01687968522310257,0.007960610091686249,0.01258462481200695,-0.024050929623714672,0.07507505679162897,0.0048651454534051255
0.7220649719238281,0.002289704978466034,-0.0031184908002614975,0.00925755500793457,-0.00948088988661766,0.013181470334529877,0.012632828205823898,-0.02417796998039757,0.07519565224411794,0.005002067232682909
0.7320890426635742,-0.0006164833903312683,-0.002757631242275238,0.004618525505065918,0.0010090346913784742,0.020166143774986267,0.01375854667276144,-0.024183321544916897,0.07540169024007837,0.005139347542339413
0.7420361042022705,-0.0026711001992225647,0.0012580901384353638,0.003730297088623047,0.012040913105010986,0.021253513172268867,0.010869815945625305,-0.02410434571150978,0.07567173138375098,0.005264606125171611
0.7521452903747559,-0.0006236210465431213,0.003787348046898842,0.0013191699981689453,0.019853830337524414,0.01936098001897335,0.008989304304122925,-0.023940152667888612,0.07592883744509793,0.005353995184507814
0.7623100280761719,0.0018624141812324524,0.0024170689284801483,0.001046597957611084,0.019910555332899094,0.01868799887597561,0.009033513255417347,-0.023708193493967338,0.07617449339912401,0.005422537705782747
0.7728052139282227,0.002231910824775696,0.00034850649535655975,-0.0002944469451904297,0.012481234036386013,0.019213708117604256,0.009346860460937023,-0.023503137632907206,0.07641574526572863,0.005496755014293861
0.7821471691131592,0.0015240311622619629,-0.0029762592166662216,0.0007456541061401367,0.004760463256388903,0.012893760576844215,0.007498094346374273,-0.023379383157671726,0.07662051658126114,0.005576116868809299
0.7922861576080322,0.005131877958774567,-0.006887255236506462,0.003576338291168213,-0.004447565879672766,0.0019348079804331064,0.007128393743187189,-0.02336886799628948,0.07672086328600264,0.00564610055660936
0.8022642135620117,0.008047528564929962,-0.009946247562766075,0.005939960479736328,-0.013006964698433876,-0.0032306592911481857,0.008305776864290237,-0.023437155205184544,0.07671975349417334,0.005721605951162719
0.8128781318664551,0.008296772837638855,-0.00594664178788662,0.004278600215911865,-0.017269903793931007,-0.006874440237879753,0.0133582204580307,-0.02357272098703161,0.07665364734749733,0.005833625737623391
0.8224129676818848,0.007405996322631836,-0.005551161244511604,0.002586662769317627,-0.013248531147837639,-0.0030011385679244995,0.013776603154838085,-0.023726599554817412,0.0765831799531324,0.005971759603793161
0.8323330879211426,0.005131848156452179,-0.006569297984242439,0.00047963857650756836,-0.0019831431563943624,0.0008534761145710945,0.01770487241446972,-0.023829235480034648,0.07656864339966672,0.006138000551143323
0.8422901630401611,0.0036042407155036926,-0.0032889675348997116,0.0004019737243652344,0.009562192484736443,0.0010811761021614075,0.021579770371317863,-0.023783755679761296,0.07660090617213766,0.006329184890792704
0.8522100448608398,0.0027167797088623047,0.0013479553163051605,0.0006327033042907715,0.014000367373228073,-0.0006237346678972244,0.02097933366894722,-0.02364813696409977,0.07661842220836525,0.006540274733429577
0.8622651100158691,0.002576097846031189,0.0010927338153123856,0.0039324164390563965,0.011018691584467888,0.0010889442637562752,0.01821896806359291,-0.023476065657230327,0.07662147296249203,0.006728033540088491
0.872344970703125,0.0009386241436004639,0.000671830028295517,0.006066560745239258,0.0012523648329079151,0.00435065058991313,0.017389286309480667,-0.023347618211998857,0.0766872835393725,0.006894545460056758
0.8822741508483887,-0.0014395713806152344,0.0013341810554265976,0.007891178131103516,-0.0019570107106119394,0.004906718619167805,0.011124467477202415,-0.02328034175398098,0.07679213704490034,0.00703713172006113
0.8923172950744629,-0.0016804561018943787,0.0011295713484287262,0.011714518070220947,-0.004352257587015629,0.0027793855406343937,0.005638355389237404,-0.023271326628189468,0.07688070432491499,0.007127200617357172
0.9023170471191406,0.0007775723934173584,0.004338262602686882,0.011388421058654785,-0.0015237143961712718,0.0017591286450624466,0.005416247993707657,-0.02326697926374347,0.07695586745383319,0.0071855134901768055
0.912459135055542,0.004164248704910278,0.006501873955130577,0.009678363800048828,0.005076347850263119,-0.0007230709306895733,0.003548093605786562,-0.023209064933195425,0.0769871585040779,0.007229309203727554
0.9224491119384766,0.00407012552022934,0.0067878104746341705,0.009802639484405518,0.010406398214399815,-0.0020594452507793903,0.0019778935238718987,-0.02310620629430869,0.07698955232636558,0.007250809755351873
0.9324071407318115,0.004301592707633972,0.006766824051737785,0.009881556034088135,0.004703305661678314,-0.004326417110860348,-0.00025804294273257256,-0.023050884477486617,0.07697155480212063,0.007265076547816926
0.943770170211792,0.0030275508761405945,0.005406435579061508,0.010294497013092041,9.550410322844982e-05,0.0016036438755691051,0.00027165981009602547,-0.02303797654076504,0.07696379888357734,0.007266929478011972
0.9523451328277588,0.002048477530479431,0.001336708664894104,0.012060165405273438,-0.004492323379963636,0.007212616503238678,0.0027042445726692677,-0.02306413302031857,0.0770122968159621,0.0072817598809071455
0.9624052047729492,0.00023125112056732178,0.0006008129566907883,0.012098431587219238,-0.005206050351262093,0.008637407794594765,0.003947141580283642,-0.02312866051458401,0.07709039057903869,0.007318973645690496
0.9724359512329102,-0.0020497366786003113,0.0010098349303007126,0.013738751411437988,-0.00650836993008852,0.008384318090975285,0.0050650304183363914,-0.02317741554332584,0.07717446846774567,0.007361527950817007
0.982388973236084,-0.0007883235812187195,0.00028440728783607483,0.01574075222015381,-0.008479375392198563,0.01572106033563614,0.01005179900676012,-0.023277258658333792,0.07730219836405534,0.007437778596213837
0.9924471378326416,-0.001408793032169342,0.0015692245215177536,0.013875186443328857,-0.011954533867537975,0.019809545949101448,0.011346361599862576,-0.023411543138819036,0.07751160490911915,0.007552340474597781
1.004812240600586,-0.0017174631357192993,0.001333070918917656,0.012753486633300781,-0.013506891205906868,0.023772064596414566,0.011634515598416328,-0.023571449311569216,0.07776035529639312,0.007680204677103303
1.0124790668487549,-0.002084016799926758,0.00039580464363098145,0.012409389019012451,-0.010188908316195011,0.024399902671575546,0.009793153032660484,-0.023715298712646188,0.07802121961383589,0.007792100508020694
1.0224690437316895,-0.000695936381816864,0.002654651179909706,0.011836826801300049,-0.01213567890226841,0.023028109222650528,0.009335355833172798,-0.023836854848901065,0.07828218410996535,0.00789542459567195
1.0324771404266357,-0.0010885819792747498,0.003401283174753189,0.011645615100860596,-0.01635928638279438,0.02478712610900402,0.009305634535849094,-0.023975273864686474,0.07853862237764932,0.008003336249258626
1.0426392555236816,0.0004984289407730103,0.002334795892238617,0.010615706443786621,-0.02358737215399742,0.022327430546283722,0.008310943841934204,-0.024172069205504174,0.07876855818186126,0.008110209786103538
1.0526771545410156,0.002960219979286194,0.001809561625123024,0.010274767875671387,-0.031013647094368935,0.01588466763496399,0.004997013136744499,-0.02443798101260141,0.07894765094953043,0.008193142819060457
1.0626931190490723,0.004273898899555206,0.0025665387511253357,0.009538769721984863,-0.036139700561761856,0.012163433246314526,0.000459252973087132,-0.0247644790844382,0.07908466681354948,0.008252717934339677
1.0725979804992676,0.0022850409150123596,0.001304497942328453,0.011777520179748535,-0.03845634683966637,0.016360485926270485,0.000836622784845531,-0.025141627184183314,0.07921313607595068,0.00829353221554476
1.0825042724609375,0.0002588331699371338,0.0016503557562828064,0.011188805103302002,-0.03842092677950859,0.021822363138198853,0.000967916683293879,-0.025528313323616263,0.07939443804856808,0.008332169251840086
1.0925860404968262,-0.0011026263236999512,0.003169858828186989,0.00833982229232788,-0.030366597697138786,0.023708591237664223,0.0005608790088444948,-0.02587049738030436,0.07961295306290705,0.008364013114329284
1.102626085281372,0.0009684115648269653,0.002693846821784973,0.008298695087432861,-0.03472166508436203,0.020001204684376717,-0.0026479638181626797,-0.02619403081717384,0.0798321701768927,0.008371007887230532
1.1125850677490234,7.458031177520752e-05,0.0026509780436754227,0.01379537582397461,-0.0532187819480896,0.02089798077940941,-0.0003050742670893669,-0.026633781542360055,0.08002570908311867,0.008382730629815316
1.1233692169189453,-0.0025190189480781555,-0.0001378953456878662,0.010844588279724121,-0.06593271344900131,0.02811940759420395,-0.004538701381534338,-0.0272561308906687,0.08027167260670652,0.008407769645543592
1.1329500675201416,-0.0011255741119384766,-0.0056798942387104034,0.0065000057220458984,-0.05773400515317917,0.028131568804383278,-0.003960316069424152,-0.027885039620640678,0.08057443683472762,0.008416977819354465
1.1427669525146484,0.0009901896119117737,-0.0034235920757055283,0.0041915178298950195,-0.04819802567362785,0.01778918318450451,0.0006285767303779721,-0.028406044532202492,0.08082589191924794,0.00844806852866363
1.1527280807495117,0.0021267831325531006,0.004580765962600708,0.0024418234825134277,-0.04231545329093933,0.014626989141106606,-5.3778523579239845e-05,-0.028839973751020223,0.08098789134111971,0.00848411811961486
1.1627082824707031,0.003605946898460388,0.0019271653145551682,0.004858791828155518,-0.04376714304089546,0.016801195219159126,0.0013606264255940914,-0.029250706337231785,0.0811429595701378,0.0085214176190641
1.1726601123809814,0.0030028745532035828,-0.0012744590640068054,0.0031067728996276855,-0.049335777759552,0.018719470128417015,0.006565028801560402,-0.02970594645192148,0.0813205379040342,0.008594362133094125
1.182662010192871,0.0005876421928405762,-0.00244763121008873,0.004052162170410156,-0.04715465009212494,0.020394863560795784,0.009251093491911888,-0.03019269187456939,0.08152519628665647,0.008709565122824052
1.1926732063293457,0.0021273866295814514,-0.0032790154218673706,0.0072135329246521,-0.05689159780740738,0.01153053343296051,0.013539474457502365,-0.030688613096452225,0.08168099796259307,0.008865017234607581
1.2044460773468018,0.0032358840107917786,-0.00107649527490139,0.009830474853515625,-0.06028659641742706,0.006148017942905426,0.01760665513575077,-0.031248202236322412,0.08174910567242938,0.009062382534871313
1.2127280235290527,0.005873166024684906,-0.002622518688440323,0.015226602554321289,-0.09615912288427353,-0.0035510817542672157,0.034142330288887024,-0.03181794429341714,0.08178371699262688,0.00936552792286149
1.2227301597595215,0.006150342524051666,0.006099969148635864,0.01803535223007202,-0.2022235095500946,-0.05464142933487892,0.05104168504476547,-0.03333491057760872,0.08154014459560241,0.009920112465551873
1.2326569557189941,0.01222989708185196,0.014288950711488724,0.03274834156036377,-0.38866573572158813,-0.16651314496994019,0.0427495576441288,-0.03607287029643156,0.08051496421558263,0.01064130453481741
1.2427091598510742,0.018101893365383148,-0.06350123882293701,0.06549090147018433,-0.6858082413673401,-0.31475454568862915,0.002844220260158181,-0.04140307603610335,0.07814434867112591,0.01129571601688197
1.25423002243042,0.025580041110515594,-0.10388535261154175,0.12166529893875122,-1.0188703536987305,-0.49234738945961,-0.008353466168045998,-0.049874652496078434,0.07418951913399516,0.01188627747004151
1.2629690170288086,0.03152816742658615,-0.1185288205742836,0.16069775819778442,-1.3229352235794067,-0.6470608115196228,0.003070162609219551,-0.06157614725545961,0.06847799181512787,0.012693444798508091
1.2728941440582275,0.032834261655807495,-0.1321573257446289,0.1889514923095703,-1.5334657430648804,-0.7852843999862671,0.042334746569395065,-0.0758947154839215,0.061420936551953395,0.013846013053175942
1.2828631401062012,0.03379403054714203,-0.12184768170118332,0.18222159147262573,-1.7069501876831055,-0.8971661925315857,0.06009430065751076,-0.09211645705372162,0.053125980395549804,0.015310757119183744
1.292902946472168,0.040633928030729294,-0.0858394205570221,0.16263455152511597,-1.6958045959472656,-0.9704950451850891,0.12259761989116669,-0.10911182872923603,0.0439308882896667,0.017010775190085026
1.3044230937957764,0.05278977006673813,-0.05147090554237366,0.12003517150878906,-1.850938081741333,-1.1401019096374512,0.16661807894706726,-0.12657671548636953,0.03377522825510034,0.019256236377168424
1.3128480911254883,0.0771007388830185,-0.031325116753578186,0.06408929824829102,-2.332355499267578,-1.2725974321365356,0.05937205255031586,-0.1472898343476571,0.021692309581650443,0.02097208110827229
1.3228340148925781,0.09992165863513947,-0.09555955231189728,0.04179471731185913,-3.111123561859131,-1.2690322399139404,-0.011115164496004581,-0.17441492125493527,0.009056780797127314,0.021625852487287957
1.3328561782836914,0.07768294960260391,-0.22361807525157928,-0.022125422954559326,-3.8379101753234863,-1.1523127555847168,-0.032658059149980545,-0.20933553356393717,-0.003120373780992271,0.021442644888043844
1.3428890705108643,0.02262505143880844,-0.2566676735877991,-0.04846721887588501,-4.327744960784912,-1.0817712545394897,-0.01824343577027321,-0.25039544669466524,-0.014392142362231367,0.020830483211468197
1.3543782234191895,-0.015653958544135094,-0.18043997883796692,-0.06696420907974243,-4.498195171356201,-1.102823257446289,-0.015026230365037918,-0.2947351090317167,-0.025630357605708826,0.01969290607342961
1.362992286682129,-0.02634497731924057,-0.09199634194374084,-0.06471627950668335,-4.481958866119385,-1.1664642095565796,0.03105364739894867,-0.33970325746867397,-0.037351722004386544,0.018284445393244284
1.3743531703948975,-0.018457934260368347,-0.049749910831451416,-0.0987733006477356,-4.41654634475708,-1.2686240673065186,0.06217438727617264,-0.3842883383166032,-0.05014503769948552,0.01669700023904235
1.3829002380371094,-0.014001797884702682,-0.02557837963104248,-0.12275415658950806,-4.2133965492248535,-1.229952335357666,0.11391934007406235,-0.42753811901533,-0.06341552785878807,0.014982249507541302
1.392991065979004,-0.018750116229057312,-0.03181752562522888,-0.15928608179092407,-3.9375393390655518,-1.1863150596618652,0.11566653847694397,-0.46837208014246695,-0.07627680511716675,0.013135735252832568
1.4041600227355957,-0.04917118698358536,0.019953995943069458,-0.17061585187911987,-3.5620296001434326,-1.124299168586731,0.07449779659509659,-0.506002694473416,-0.08904291874611192,0.010717748102974647
1.413008213043213,-0.07515890151262283,0.07666099071502686,-0.12451088428497314,-2.9270436763763428,-0.9802190661430359,0.0021644216030836105,-0.5385512926741679,-0.10113989008612619,0.0076313241268877756
1.422917127609253,-0.10943146795034409,0.11709350347518921,-0.09079831838607788,-2.0158286094665527,-0.804709255695343,-0.15544411540031433,-0.5632332480305465,-0.1122002848094878,0.0036737487700894697
1.4330101013183594,-0.16421669721603394,0.18833786249160767,-0.06740152835845947,-0.6839137673377991,-0.4231295585632324,-0.2838398516178131,-0.5767162468294623,-0.12094210055750831,-0.0008704390792172121
1.4429821968078613,-0.18960745632648468,0.25535762310028076,-0.11613327264785767,1.1354700326919556,0.09640946984291077,-0.4168413281440735,-0.5742752536417473,-0.12466838712440718,-0.0046968086683919314
1.454483985900879,-0.1847672164440155,0.32189440727233887,-0.2526775002479553,3.5213892459869385,0.7138580679893494,-0.5336437821388245,-0.5508325101738989,-0.12184123331605427,-0.006928434020326518
1.4630680084228516,-0.1751384735107422,0.4353809058666229,-0.36518537998199463,5.7707905769348145,1.2337089776992798,-0.7683143615722656,-0.5037464187009041,-0.11267161225385892,-0.00800582172253467
1.473095178604126,-0.18684059381484985,0.5790261030197144,-0.35702282190322876,7.848968982696533,1.9280811548233032,-0.9360299706459045,-0.4348216330454565,-0.09752083565460008,-0.009543274458667381
1.4830312728881836,-0.21265143156051636,0.6585569381713867,-0.2846526503562927,9.48944091796875,2.5249361991882324,-1.1234692335128784,-0.3469424625395764,-0.07605238162139662,-0.012409107815054474
1.4937620162963867,-0.25540924072265625,0.7421472668647766,-0.1744958758354187,10.687947273254395,2.9660727977752686,-1.289574146270752,-0.24532193181663303,-0.05034864122607209,-0.018478744499466335
1.5045299530029297,-0.2985837459564209,0.7885628938674927,0.045545756816864014,11.545926094055176,3.306601047515869,-1.2251924276351929,-0.13330990848760021,-0.020492982899690818,-0.027341288596561708
1.5131011009216309,-0.249803364276886,0.8861737251281738,0.12204867601394653,12.058318138122559,3.413248062133789,-1.0314253568649292,-0.015026166607306728,0.01237828725265912,-0.03830304085074299
1.5231132507324219,-0.1463521420955658,1.1572619676589966,0.18040043115615845,12.071105003356934,3.377809524536133,-0.6529427170753479,0.1059003325368788,0.04705413382076629,-0.050382420499780624
1.5330941677093506,-0.03685777634382248,1.2710720300674438,0.20599687099456787,11.217278480529785,3.174217462539673,-0.3088487982749939,0.22261323631606827,0.08196920322543995,-0.06287719159008344
1.5431642532348633,0.02235741913318634,1.1477270126342773,0.236954927444458,9.630722999572754,2.9193525314331055,-0.4761911928653717,0.3262437178240196,0.11640121161306151,-0.07710115989636004
1.5544800758361816,-0.009684622287750244,0.7983195781707764,0.33282923698425293,7.948572158813477,2.947584629058838,-1.2953002452850342,0.41230411801675027,0.15358554619027368,-0.09885195040305517
1.5631520748138428,-0.14357300102710724,0.32450222969055176,0.40625113248825073,6.6080403327941895,3.1897478103637695,-2.074671983718872,0.48057506049951376,0.19845498193757966,-0.13173723887464966
1.5731861591339111,-0.28339052200317383,0.09961110353469849,0.4682294726371765,5.600369930267334,3.273772954940796,-2.1871373653411865,0.5350563172833724,0.25022824859060483,-0.1713453971492469
1.583172082901001,-0.26354435086250305,0.06210803985595703,0.5812644362449646,5.01325798034668,3.1312074661254883,-2.0975914001464844,0.5802375235324531,0.3043613604926138,-0.212686663863391
1.5931341648101807,-0.1084551215171814,0.1174277663230896,0.755358874797821,4.804469585418701,2.646590232849121,-2.187375783920288,0.6196256717456875,0.3582575967693946,-0.2564033434005893
1.6043410301208496,0.08053246140480042,0.1505138874053955,0.8848375678062439,4.685363292694092,2.1066324710845947,-2.301044225692749,0.6552159667936751,0.4107274366424915,-0.30459849409098916
1.6132721900939941,0.26911595463752747,0.11058831214904785,0.8662304878234863,4.820847034454346,1.8025007247924805,-2.262728214263916,0.6882488199649417,0.46246509529698004,-0.3567305315918181
1.6243700981140137,0.3767966032028198,0.1533556580543518,0.7867792844772339,4.717706203460693,1.5136537551879883,-2.231088399887085,0.7202210587251932,0.5148741160970312,-0.4124230668899571
1.6331911087036133,0.33129367232322693,0.07506829500198364,0.6757253408432007,4.270447731018066,1.3479679822921753,-2.246762752532959,0.7473091516700378,0.5675100724188327,-0.46963218162121534
1.6433601379394531,0.23236733675003052,-0.11174631118774414,0.5466773509979248,3.743872880935669,1.234991192817688,-2.1185975074768066,0.7682943061201793,0.618808483209553,-0.5255006138956614
1.6542949676513672,0.16200169920921326,-0.2404058575630188,0.3841317296028137,3.282256603240967,1.1020315885543823,-1.9628245830535889,0.784208028055726,0.6672462366057821,-0.5779596317147333
1.6633520126342773,0.10697922110557556,-0.2752246856689453,0.2534245252609253,2.7530572414398193,1.096315622329712,-1.8093159198760986,0.7955255832101318,0.7122407604064985,-0.6260042536868173
1.673281192779541,0.05983176827430725,-0.34830933809280396,0.1481066346168518,2.198066234588623,1.1133790016174316,-1.6249628067016602,0.8023804020235844,0.7536380624692425,-0.6681948427545183
1.6835932731628418,-0.01981133222579956,-0.42973124980926514,0.03588145971298218,1.723273515701294,1.135463833808899,-1.320732593536377,0.8060966095689298,0.7900710434166782,-0.7031524887647657
1.6932950019836426,-0.08480560779571533,-0.460884153842926,0.011702418327331543,1.2788857221603394,1.1407358646392822,-0.9928053021430969,0.8081123649224704,0.8211370756273951,-0.7304039368051075
1.704267978668213,-0.14192432165145874,-0.4613063335418701,0.02993181347846985,0.8881579041481018,1.1351096630096436,-0.6525750160217285,0.8092025140548723,0.846610523866045,-0.7498640959855069
1.7133171558380127,-0.17545634508132935,-0.4948984384536743,0.02499273419380188,0.690558135509491,1.0477746725082397,-0.3198864161968231,0.8106299572580474,0.8671153063573391,-0.7630405154957914
1.7235212326049805,-0.1556360125541687,-0.41278403997421265,-0.003975391387939453,0.6849386096000671,0.9378836154937744,0.0015344774583354592,0.8137898479974398,0.8836454277410078,-0.77215135788114
1.7334980964660645,-0.1149328351020813,-0.24011719226837158,-0.0652327835559845,0.7512849569320679,0.8344070315361023,0.2702708840370178,0.8194032584807498,0.8974603096314999,-0.7789517915044784
1.7440872192382812,-0.08904999494552612,-0.12286770343780518,-0.11540728807449341,0.8445097208023071,0.7471650838851929,0.4114897847175598,0.8271032894127014,0.9098103048387386,-0.7850329353408613
1.7543892860412598,-0.08190035820007324,-0.03428781032562256,-0.1239999532699585,0.8634283542633057,0.6836101412773132,0.5117837190628052,0.836030761813944,0.9214555428508903,-0.7910911619658206
1.7636022567749023,-0.07793176174163818,-0.01278698444366455,-0.1235104501247406,0.7525428533554077,0.6034151911735535,0.5173627734184265,0.8451600786202255,0.9316757782451858,-0.7961669719982082
1.7735610008239746,-0.06361079216003418,0.022265315055847168,-0.07469367980957031,0.6216109991073608,0.5592220425605774,0.399576872587204,0.8529475141516614,0.9405551551556419,-0.8002989164826764
1.7835321426391602,-0.032461464405059814,0.02436131238937378,-0.07011446356773376,0.542460024356842,0.5164631009101868,0.26265576481819153,0.8590084480881338,0.9492058051493923,-0.8046051331446508
1.7935690879821777,-0.018977642059326172,0.0851370096206665,-0.09776362776756287,0.4632284343242645,0.5186396241188049,0.13642773032188416,0.8635288382781577,0.9578492148068452,-0.8091711715417192
1.8043980598449707,0.00015813112258911133,0.17375361919403076,-0.09480959177017212,0.3853951692581177,0.5296704769134521,-0.03526918217539787,0.866388723198638,0.9668187483758922,-0.8140543264070117
1.8134751319885254,0.0028843283653259277,0.18792253732681274,-0.08345931768417358,0.36227962374687195,0.5266714692115784,-0.14264065027236938,0.8677464750529147,0.9763249564060987,-0.8195708760122297
1.8234362602233887,0.015370309352874756,0.18626540899276733,-0.0667489767074585,0.3754737377166748,0.4972032606601715,-0.25825807452201843,0.8681335108271133,0.9863809316522258,-0.8260330397580024
1.8334770202636719,0.03616821765899658,0.20503276586532593,-0.05028367042541504,0.34305134415626526,0.4451752305030823,-0.30045825242996216,0.8677307149435092,0.9965629013242993,-0.833153236947353
1.8438429832458496,0.06547945737838745,0.14495807886123657,-0.04084503650665283,0.3008812367916107,0.3617333173751831,-0.3086714446544647,0.8669038196149684,1.0057150287895733,-0.8398727989891721
1.855051040649414,0.09942376613616943,0.09627974033355713,-0.023073822259902954,0.2695550322532654,0.30129101872444153,-0.2942219078540802,0.8657921108050298,1.0138373478778477,-0.8461379055401503
1.8633711338043213,0.11632323265075684,0.034627556800842285,-0.03621095418930054,0.26435279846191406,0.25986501574516296,-0.2697541415691376,0.8647934990713108,1.0210053977632605,-0.8519235430757462
1.873500108718872,0.12000393867492676,-0.005680441856384277,-0.060799241065979004,0.24911470711231232,0.22575445473194122,-0.22890789806842804,0.8640029997294305,1.0275238527239792,-0.8572686168873754
1.8835492134094238,0.10955190658569336,-0.026066362857818604,-0.07775259017944336,0.21821004152297974,0.1806265264749527,-0.22590745985507965,0.8632981519479892,1.0332243904033909,-0.8621628934452029
1.893692970275879,0.11322200298309326,-0.03371989727020264,-0.0669068694114685,0.12404784560203552,0.14320692420005798,-0.24261091649532318,0.8621817842237652,1.0380400466077397,-0.8663620573594037
1.9048151969909668,0.10205239057540894,-0.06587433815002441,-0.05832973122596741,-0.01509460061788559,0.09497229754924774,-0.22857925295829773,0.8603720990602878,1.0412040105904756,-0.8689017938964295
1.9134292602539062,0.09244954586029053,-0.09260982275009155,-0.04215461015701294,-0.029418811202049255,0.026968566700816154,-0.23957322537899017,0.8582421283355051,1.0427813415958425,-0.870223940795545
1.9235930442810059,0.09853255748748779,-0.054031968116760254,-0.0340554416179657,0.01495397835969925,-0.003037269227206707,-0.25246477127075195,0.8560332206574681,1.04429938776646,-0.8720795295863139
1.9337291717529297,0.08178728818893433,-0.021602392196655273,-0.04330107569694519,-0.014903169125318527,-0.04739217087626457,-0.21599337458610535,0.8540404419653883,1.0454661527430738,-0.8739652745472302
1.9436659812927246,0.05901503562927246,-0.04128718376159668,-0.03763771057128906,-0.1208551675081253,-0.061560455709695816,-0.1983664333820343,0.8519511606367663,1.0454278310180465,-0.8746643961938533
1.9543941020965576,0.05687570571899414,-0.10922408103942871,-0.0240364670753479,-0.2534055709838867,-0.06573633849620819,-0.20934660732746124,0.849237090551631,1.0441640051593015,-0.8738120130007675
1.9636430740356445,0.03545600175857544,-0.17554891109466553,-0.020025193691253662,-0.44980305433273315,-0.03979208692908287,-0.18560612201690674,0.8457405606052986,1.0412992970002803,-0.8707346156856697
1.9737019538879395,0.02250528335571289,-0.23285889625549316,-0.011962950229644775,-0.5772714614868164,-0.01127984095364809,-0.14200612902641296,0.8416804025405998,1.036969360206939,-0.8652370480176605
1.9835941791534424,0.01388925313949585,-0.2324771285057068,-0.004337489604949951,-0.6408403515815735,0.010635577142238617,-0.1135353371500969,0.8374536456145018,1.031802281590395,-0.8583315684090979
1.9939732551574707,0.02370452880859375,-0.1886712908744812,-0.0001652836799621582,-0.6383556723594666,-0.005786539521068335,-0.0356409065425396,0.8334698520519193,1.0262381242088994,-0.8507254196224219
2.004977226257324,0.03368943929672241,-0.16389763355255127,-0.0006351768970489502,-0.5877135396003723,-0.04387266933917999,0.007671412546187639,0.8301749831384759,1.0202913988237505,-0.8430384756870262
2.013792037963867,0.05324757099151611,-0.11041754484176636,0.0025992393493652344,-0.5461533069610596,-0.06971687078475952,0.07280199229717255,0.827484990791307,1.0142217391181794,-0.83559101077673
2.023797035217285,0.05461275577545166,-0.10515767335891724,-0.0026162266731262207,-0.51398766040802,-0.12685607373714447,0.15089812874794006,0.8256539281136676,1.0075938394661086,-0.827975251414664
2.033734083175659,0.057034969329833984,-0.07175391912460327,0.0017164349555969238,-0.5140095353126526,-0.13823042809963226,0.1536022573709488,0.824218252556066,1.0007219940878371,-0.8204257028619953
2.0439109802246094,0.04481959342956543,-0.06956708431243896,-0.00251200795173645,-0.5507717728614807,-0.16931989789009094,0.1998770833015442,0.8227435519995303,0.9933601897287653,-0.8124396132660939
2.0547831058502197,0.028066277503967285,-0.09794163703918457,0.012762188911437988,-0.47542908787727356,-0.21062207221984863,0.21456526219844818,0.8216550905664387,0.9854110253521816,-0.8042671493377062
2.063765048980713,0.04599505662918091,-0.014854669570922852,0.0077759623527526855,-0.28888505697250366,-0.2003081738948822,0.2158411741256714,0.8213008188224947,0.9787096045792008,-0.7978690421486515
2.0737762451171875,0.04200845956802368,0.08659970760345459,-0.04818981885910034,-0.19517485797405243,-0.2247309684753418,0.22972120344638824,0.8218590440872565,0.9731306516091078,-0.7931811051867045
2.0837531089782715,0.04433482885360718,0.11981844902038574,-0.054729461669921875,-0.23850208520889282,-0.23002053797245026,0.2129960060119629,0.8225321670005546,0.9676234010803819,-0.7887684470210612
2.0938501358032227,0.04553467035293579,0.0570032000541687,-0.041539281606674194,-0.3540947139263153,-0.2433479279279709,0.15365321934223175,0.8223602591465492,0.961545722149171,-0.7836923902920455
2.1046671867370605,0.02697843313217163,-0.013368844985961914,-0.031830549240112305,-0.46282145380973816,-0.2600350081920624,0.13670486211776733,0.8211300344219469,0.9545248365649028,-0.7775403088095264
2.1138110160827637,0.02176535129547119,-0.039644598960876465,-0.01326298713684082,-0.4617097079753876,-0.3138393461704254,0.15341545641422272,0.8195860374071078,0.9466105829094333,-0.7706285810819685
2.1241869926452637,0.027565419673919678,0.022430002689361572,-0.0005635619163513184,-0.3664955496788025,-0.36150941252708435,0.15704746544361115,0.8183822113459684,0.9386744328015112,-0.7643883906013419
2.1338000297546387,0.029573917388916016,0.08525890111923218,0.0032753348350524902,-0.2932646572589874,-0.42210817337036133,0.1699269562959671,0.8177919375958891,0.9308830821153443,-0.7590836380473757
2.1439590454101562,0.015686511993408203,0.08135628700256348,0.021809697151184082,-0.2824902832508087,-0.43235549330711365,0.1545352190732956,0.8173734486451757,0.9230827692817725,-0.7543302340772451
2.1557490825653076,0.0062749385833740234,0.03932887315750122,0.012301504611968994,-0.3484741449356079,-0.3960305452346802,0.17363497614860535,0.8167868258387777,0.915234272304814,-0.7492786048561294
2.1639270782470703,-0.01532977819442749,0.013311326503753662,-0.020778894424438477,-0.5140761733055115,-0.3405528962612152,0.1784648895263672,0.8155820488256325,0.9067825435089868,-0.7427690543649716
2.173896074295044,-0.02844947576522827,-0.03420305252075195,-0.01614248752593994,-0.7778044939041138,-0.3077998757362366,0.17472997307777405,0.8129832782763134,0.8970902351631235,-0.7338462218939961
2.1838760375976562,-0.034123361110687256,-0.11441749334335327,0.008954226970672607,-1.1131401062011719,-0.3347923457622528,0.16321712732315063,0.8083783858962287,0.885066473504199,-0.7216602941699285
2.1939611434936523,-0.017814576625823975,-0.18797659873962402,0.04915589094161987,-1.5143452882766724,-0.3955676853656769,0.1752462387084961,0.8012519307110042,0.8698546335706012,-0.7055826408301661
2.2048230171203613,-0.005729317665100098,-0.2766667604446411,0.09196561574935913,-1.8840796947479248,-0.5242281556129456,0.31712642312049866,0.7919023174021759,0.8504806879924762,-0.6848573351046393
2.2139570713043213,0.008269786834716797,-0.3352671265602112,0.1436314582824707,-2.0409140586853027,-0.7121533155441284,0.517509400844574,0.781757690223806,0.8267028390035439,-0.6599708548737168
2.2241761684417725,0.025374174118041992,-0.26732391119003296,0.20385998487472534,-1.879597783088684,-0.9174071550369263,0.5976473689079285,0.7723140333179503,0.800550861914973,-0.6343104101955019
2.2341411113739014,0.017988502979278564,-0.11002486944198608,0.25309139490127563,-1.5878264904022217,-1.0936154127120972,0.6102971434593201,0.7643510901594212,0.7744192281428527,-0.6112359260439177
2.2470521926879883,0.012403041124343872,-0.01881849765777588,0.2574576735496521,-1.4135327339172363,-1.1725213527679443,0.6692560911178589,0.7579508125899902,0.7488339644650904,-0.5907077144251428
2.2566542625427246,0.010260909795761108,0.017686307430267334,0.18479442596435547,-1.46929931640625,-1.1960477828979492,0.797534704208374,0.7523219481863016,0.7228733568809657,-0.5701211146363351
2.2640371322631836,0.022120296955108643,-0.00623852014541626,0.05978798866271973,-1.7627426385879517,-1.216623067855835,0.901321530342102,0.7457184918697672,0.6950644561524517,-0.5470143398625574
2.2743020057678223,0.05828368663787842,-0.11941307783126831,-0.0009965896606445312,-2.3295905590057373,-1.1825062036514282,0.9348562359809875,0.7357315273170795,0.6647080157794625,-0.5199407276429066
2.284201145172119,0.058193475008010864,-0.27093690633773804,0.0059773921966552734,-3.145944833755493,-1.1298853158950806,0.9127179384231567,0.7195627835248586,0.6319029875643171,-0.4880258365485376
2.294157028198242,0.03266417980194092,-0.3903176188468933,0.041767656803131104,-4.07119083404541,-1.0747432708740234,0.8740748763084412,0.6951758468576245,0.5967562141073617,-0.45094525870645813
2.3045310974121094,0.022679299116134644,-0.46527063846588135,0.10565382242202759,-4.533860206604004,-1.0093848705291748,0.8227176666259766,0.6633420483067003,0.5613744031474193,-0.4112978886182706
2.3140902519226074,0.016325414180755615,-0.445107638835907,0.13365411758422852,-4.52035665512085,-0.9908527731895447,0.953258216381073,0.6288719620821435,0.527915698789023,-0.372237282805813
2.3240842819213867,0.024868547916412354,-0.13412082195281982,0.14249157905578613,-4.109147548675537,-1.0954822301864624,1.0338449478149414,0.5960830844836996,0.49649840708702986,-0.3356288068343204
2.3340461254119873,0.08540409803390503,0.20738595724105835,0.157240092754364,-3.7055482864379883,-1.3253329992294312,1.037589430809021,0.5662514356118817,0.46651840783525944,-0.30298494365259937
2.344222068786621,0.16872259974479675,0.22050738334655762,0.17039811611175537,-3.458691358566284,-1.5222159624099731,1.090257167816162,0.5387686912600023,0.4366534688564338,-0.2734389256817199
2.354483127593994,0.1965421736240387,0.16649013757705688,0.18696117401123047,-3.4775307178497314,-1.5647457838058472,1.1455492973327637,0.5118528578420469,0.4069895970200209,-0.2452555737837742
2.3641281127929688,0.15300798416137695,0.12400737404823303,0.1683119535446167,-3.7970199584960938,-1.5098150968551636,1.1007946729660034,0.4826991514057375,0.378316226961623,-0.21755894910675586
2.3743929862976074,0.09988835453987122,-0.0365084707736969,0.15424680709838867,-4.502532482147217,-1.363311529159546,0.9174754023551941,0.44777256991467734,0.35171266028521153,-0.19044148709168093
2.384143114089966,0.05500882863998413,-0.23531118035316467,0.1905820369720459,-5.355314254760742,-1.1621196269989014,0.6310945153236389,0.40389188757022765,0.32826713411118086,-0.16434236165909938
2.3942930698394775,0.018545150756835938,-0.3776013255119324,0.26203274726867676,-6.324608325958252,-1.0137972831726074,0.29585033655166626,0.3498436115340439,0.3084536045336758,-0.1399427051391544
2.404541015625,0.0023203492164611816,-0.41612622141838074,0.33061105012893677,-7.257991313934326,-0.9465942978858948,0.050920456647872925,0.28507663241357223,0.29149572186518546,-0.11713683539566365
2.4142251014709473,0.01228177547454834,-0.27370476722717285,0.43290019035339355,-7.622653961181641,-0.9605787992477417,-0.04051870107650757,0.2133221181000186,0.27667754560239605,-0.09549157731513823
2.4242351055145264,0.042488545179367065,-0.06554368138313293,0.45062142610549927,-7.617414474487305,-1.2124755382537842,-0.10290857404470444,0.139313284825251,0.26243492948902425,-0.07547399435590588
2.434239149093628,0.07243479788303375,0.10996848344802856,0.41252458095550537,-7.24811315536499,-1.5477548837661743,-0.12900365889072418,0.06691235368422768,0.24672358443327766,-0.0577535547819508
2.444291114807129,0.10676619410514832,0.18638676404953003,0.36928480863571167,-6.731967926025391,-1.7478946447372437,-0.1096656545996666,-0.001509956988752722,0.22964352959628065,-0.04234318305735357
2.4546310901641846,0.12529443204402924,0.1874924600124359,0.26584506034851074,-6.0659589767456055,-1.8003901243209839,-0.12104950100183487,-0.06436777158301746,0.21219499579935872,-0.029379616410960624
2.464240074157715,0.10425505042076111,0.14594678580760956,0.15900081396102905,-5.260682582855225,-1.7501094341278076,-0.17908084392547607,-0.12008872571788397,0.19528690724213305,-0.019325399630505547
2.4743242263793945,0.06449675559997559,0.0897882878780365,0.04466438293457031,-4.86184549331665,-1.7012650966644287,-0.2626788914203644,-0.17010994063223817,0.1790811906917575,-0.012027153214578748
2.484236240386963,0.04343530535697937,0.0658787190914154,0.016506552696228027,-4.621738433837891,-1.63862144947052,-0.25848841667175293,-0.21721267815140108,0.16338325492780784,-0.006479805154891633
2.494266986846924,0.056848689913749695,0.05596053600311279,0.059530436992645264,-4.812217712402344,-1.581794023513794,-0.159540593624115,-0.2637841517165114,0.14865009798508377,-0.0011757244793187134
2.504812240600586,0.06977373361587524,0.11056402325630188,0.11960113048553467,-5.211328983306885,-1.701769471168518,-0.004964327905327082,-0.31371553303448746,0.1340496738690814,0.005331178616907975
2.51434326171875,0.07287643104791641,0.18398383259773254,0.22259968519210815,-5.621908187866211,-1.7067490816116333,0.11832133680582047,-0.3671637721724648,0.11956225208116372,0.013297319877174614
2.5243582725524902,0.05933721363544464,0.028986990451812744,0.24108606576919556,-5.947288990020752,-1.5129002332687378,-0.029154673218727112,-0.42514164669283233,0.1063319554314801,0.02102125119977013
2.5343260765075684,-0.01365593820810318,-0.13704416155815125,0.2548139691352844,-5.689920902252197,-1.5372272729873657,-0.16848352551460266,-0.4830674826828352,0.09331651994478476,0.02632090055520796
2.544358253479004,-0.08864589780569077,-0.18226486444473267,0.17365866899490356,-5.575345993041992,-1.3617949485778809,-0.2186654806137085,-0.5396353188096997,0.08052541808840637,0.02966364819939218
2.554530143737793,-0.030922643840312958,-0.0727689266204834,0.05136227607727051,-5.16788387298584,-1.3026516437530518,-0.13448216021060944,-0.5934988912069541,0.06853587957392775,0.03222476021474355
2.5643911361694336,0.031248856335878372,0.06039708852767944,-0.07263195514678955,-4.689525604248047,-1.1701987981796265,-0.00048041692934930325,-0.6428379329366893,0.05789298003375853,0.03527356957828567
2.5744872093200684,0.04564693570137024,0.07012069225311279,-0.16040641069412231,-4.046490669250488,-0.9666699171066284,0.03109242394566536,-0.6865519734384825,0.049192887007496106,0.03854744857425413
2.5845460891723633,0.019548602402210236,-0.006407320499420166,-0.18160152435302734,-3.4565606117248535,-0.8018133640289307,-0.02361023798584938,-0.7240559876323862,0.041908078559339236,0.04087233360782722
2.595761299133301,-0.014474807307124138,-0.0748412013053894,-0.14579516649246216,-2.7338762283325195,-0.6865198612213135,-0.06743500381708145,-0.7551198204520239,0.03513982990002751,0.04185235658189623
2.6045970916748047,-0.026124099269509315,-0.06168365478515625,-0.040872812271118164,-2.1171839237213135,-0.5986728668212891,-0.058120861649513245,-0.7793002707770954,0.0287896746008759,0.04197236089307471
2.6143980026245117,-0.024433327838778496,0.010585427284240723,0.0487402081489563,-1.4978002309799194,-0.5641862750053406,0.07452447712421417,-0.7974329072246803,0.023533459622722443,0.04267227955232886
2.6244771480560303,-0.024009419605135918,0.20865672826766968,0.11615234613418579,-0.8827973008155823,-0.5848580002784729,0.2698284685611725,-0.809260989587867,0.019825248568711453,0.04553606083729631
2.634427070617676,-0.013685003854334354,0.2960430979728699,0.11388945579528809,-0.42960184812545776,-0.5410260558128357,0.3977946937084198,-0.8156298047597311,0.017874391576394658,0.05069475841047247
2.644522190093994,-0.004894770681858063,0.1914251446723938,0.07474970817565918,-0.1580885946750641,-0.41386353969573975,0.41875776648521423,-0.8183998576624529,0.01752355562319843,0.05681843054304253
2.654693126678467,-0.028252679854631424,0.0549655556678772,0.03066563606262207,-0.013519207946956158,-0.23557543754577637,0.3895586431026459,-0.8191149278850395,0.018604865457164183,0.06278123565240978
2.664499282836914,-0.062056686729192734,-0.011706650257110596,-0.00919407606124878,0.0936322808265686,-0.053972888737916946,0.3647907078266144,-0.8186330434094029,0.021194997599467944,0.06829034628630183
2.6746931076049805,-0.06662951409816742,-0.009715080261230469,-0.03359508514404297,0.17827360332012177,0.09060728549957275,0.3339083790779114,-0.8171708805877886,0.025102857569385403,0.07335881915317159
2.684530258178711,-0.052685633301734924,0.017715513706207275,-0.03321826457977295,0.22540515661239624,0.20812591910362244,0.3025083839893341,-0.815061859956477,0.029924818021157845,0.07792771572804862
2.69464111328125,-0.038612958043813705,0.03514820337295532,-0.017640352249145508,0.27849435806274414,0.33234265446662903,0.2712223529815674,-0.812451814820662,0.03558593634242769,0.08198330099527382
2.704508066177368,-0.03525608032941818,0.03415638208389282,0.0008404850959777832,0.3506721556186676,0.4400443434715271,0.24208444356918335,-0.8092400840520558,0.04203830547385815,0.08553478206649462
2.7146341800689697,-0.0374893955886364,0.04596364498138428,0.01680612564086914,0.46899259090423584,0.525318443775177,0.23144276440143585,-0.80505229073071,0.04915762176837776,0.08867951137207161
2.724583148956299,-0.034698598086833954,0.08383792638778687,0.031055450439453125,0.5718190670013428,0.5581285953521729,0.23683859407901764,-0.7997142851172501,0.0567601773336307,0.09165533570573661
2.7345662117004395,-0.025863271206617355,0.12095928192138672,0.045040249824523926,0.7236539721488953,0.5795310139656067,0.23860619962215424,-0.793128985964151,0.06448333163411321,0.09449156458742054
2.744619131088257,-0.020193763077259064,0.12490272521972656,0.07006204128265381,0.8691672086715698,0.5973629951477051,0.24071729183197021,-0.7849974588546925,0.07224687454598028,0.09712614544550832
2.754894256591797,-0.025061961263418198,0.10831713676452637,0.06304723024368286,0.9641966819763184,0.6063190698623657,0.21893545985221863,-0.7755926010675088,0.07989283916373642,0.09939264509785171
2.764803171157837,-0.03289474546909332,0.10417383909225464,0.04454934597015381,0.9991709589958191,0.6179807782173157,0.18645207583904266,-0.7656297783523551,0.08715725703867061,0.10105172771918852
2.7746450901031494,-0.03428150713443756,0.07581186294555664,0.03132838010787964,0.9976629018783569,0.645845353603363,0.15792259573936462,-0.7554928828658323,0.09425098786453112,0.10215830683044128
2.78488826751709,-0.03527776151895523,0.04738509654998779,0.012289583683013916,0.9435869455337524,0.6625499725341797,0.1291103959083557,-0.7456231874524226,0.10125834545159819,0.10280506976058146
2.7956011295318604,-0.03905642032623291,0.05175596475601196,-0.006936073303222656,0.8599337339401245,0.6533969044685364,0.09202543646097183,-0.7365545882093643,0.107991217446977,0.1030166220164956
2.805788040161133,-0.036338478326797485,0.04181879758834839,-0.002622663974761963,0.7679390907287598,0.644011914730072,0.06836378574371338,-0.7283507579008942,0.11439227789468495,0.10286835167659822
2.81453800201416,-0.03355279564857483,0.01031196117401123,0.0027511119842529297,0.7100487351417542,0.6313664317131042,0.04465600848197937,-0.7209495623131847,0.12050266821381174,0.10245774099113356
2.824763298034668,-0.0362572968006134,0.009507477283477783,0.008202195167541504,0.6515763998031616,0.6148220896720886,0.04699985682964325,-0.7141188824441733,0.12640050628893384,0.10191967721509465
2.834677219390869,-0.03462103009223938,0.02360743284225464,0.005072653293609619,0.6040167212486267,0.5903304219245911,0.07154493778944016,-0.7078147504968004,0.13224889956099653,0.1016179817048038
2.8447930812835693,-0.022776298224925995,0.03711658716201782,0.00048553943634033203,0.5577272772789001,0.5768119692802429,0.11038500815629959,-0.7019383984660588,0.13817476464722678,0.10177217442206228
2.8548521995544434,-0.01546885073184967,0.022418081760406494,-0.006848514080047607,0.5245057940483093,0.5772780179977417,0.14701977372169495,-0.6964016964221272,0.14438134157604518,0.1024524655807551
2.864767074584961,-0.018871016800403595,-0.0019028782844543457,-0.02174532413482666,0.5011056661605835,0.5926303267478943,0.18112608790397644,-0.6910809389536757,0.15096566215148507,0.10358519401527093
2.874786138534546,-0.030823126435279846,-0.01594674587249756,-0.04545474052429199,0.4640425741672516,0.6012058854103088,0.2100881040096283,-0.6859901898323826,0.15793889568947164,0.1051259416743658
2.884733200073242,-0.037643417716026306,-0.01792013645172119,-0.061453938484191895,0.41341453790664673,0.5958324074745178,0.22609025239944458,-0.6813123650098916,0.16511454762511243,0.10700646458601189
2.8947951793670654,-0.03880150616168976,-0.029251933097839355,-0.06120586395263672,0.36448293924331665,0.5894079208374023,0.22823046147823334,-0.6770693454279203,0.17234705622786628,0.10905180987727088
2.905247211456299,-0.040368735790252686,-0.04824453592300415,-0.05336928367614746,0.25702521204948425,0.5541572570800781,0.20790761709213257,-0.6735835023502682,0.17939052520131837,0.1111307895003369
2.9147911071777344,-0.04655556380748749,-0.05108135938644409,-0.045695602893829346,0.16679339110851288,0.5217922329902649,0.17945969104766846,-0.6711829320838258,0.1859885387025463,0.11307443592666352
2.9248831272125244,-0.04575580358505249,-0.05650758743286133,-0.029313981533050537,0.10604136437177658,0.47227710485458374,0.16081063449382782,-0.6695396658929001,0.1921150330195075,0.11489968128511112
2.934844970703125,-0.039286673069000244,-0.04748988151550293,-0.02945619821548462,0.07445809990167618,0.40728479623794556,0.1397191286087036,-0.6683923276963648,0.19754766408729932,0.11657262113594401
2.9448652267456055,-0.0337933748960495,-0.010720431804656982,-0.03353679180145264,0.07337738573551178,0.35225725173950195,0.13703706860542297,-0.6674065491207192,0.20230775806385334,0.11810630716292649
2.9552230834960938,-0.026065006852149963,0.004297196865081787,-0.044519126415252686,0.09760110080242157,0.29523220658302307,0.14163251221179962,-0.6662959306075662,0.20649970379542537,0.11963627519905344
2.9648852348327637,-0.01857598125934601,0.01227712631225586,-0.058045923709869385,0.1333732157945633,0.2484167516231537,0.14192359149456024,-0.6648802581064835,0.21011538006953578,0.12111096580321885
2.9749960899353027,-0.016000300645828247,0.014134347438812256,-0.06774747371673584,0.17280536890029907,0.21236608922481537,0.1334918737411499,-0.6630838982686977,0.21322589071234396,0.12241761708651594
2.9849472045898438,-0.016357704997062683,0.003550231456756592,-0.0745091438293457,0.19549044966697693,0.17722328007221222,0.12195932120084763,-0.6610068867792985,0.21585149411793073,0.12351113223551424
2.995181083679199,-0.0136345773935318,-0.0019106864929199219,-0.07171231508255005,0.2169245481491089,0.14352376759052277,0.11497491598129272,-0.6587257209594868,0.21802322442888608,0.12440916147139298
3.005094051361084,-0.010977670550346375,0.00512319803237915,-0.06404674053192139,0.21240995824337006,0.09961888939142227,0.10188521444797516,-0.6563935503150617,0.219693955386401,0.12516128262110365
3.014986038208008,-0.0076772719621658325,0.015769779682159424,-0.05283480882644653,0.21744492650032043,0.06910944730043411,0.09518762677907944,-0.6540700987351353,0.22090540651375618,0.12577228278352667
3.0252532958984375,-0.005186870694160461,0.013578951358795166,-0.036897122859954834,0.2103840857744217,0.03936140984296799,0.0803958997130394,-0.6517760283583112,0.22174691787485654,0.1262634860406529
3.0350341796875,-0.007342591881752014,0.009225547313690186,-0.02847665548324585,0.2160787731409073,0.025134271010756493,0.06629078835248947,-0.6495382350736598,0.22225256340826433,0.12657409184026844
3.045757293701172,-0.008930549025535583,0.011087298393249512,-0.015278339385986328,0.20260024070739746,0.018062511458992958,0.06574749946594238,-0.6473363563491936,0.22260277539512932,0.1267954943114917
3.057918071746826,-0.0064534395933151245,0.019664525985717773,-0.005523085594177246,0.20732541382312775,0.013236908242106438,0.06308604031801224,-0.6451934900257331,0.22287671454943397,0.12700333733932934
3.065791130065918,-0.0012215375900268555,0.03251117467880249,0.0026364922523498535,0.21704700589179993,0.01805909350514412,0.06524533033370972,-0.6429814493540239,0.22314808396630006,0.12719788555993586
3.0753002166748047,0.0005084127187728882,0.027299582958221436,0.005192875862121582,0.22835691273212433,0.03203394263982773,0.061481963843107224,-0.6406678910100898,0.22349042711549136,0.12736090760784463
3.085118293762207,0.001022234559059143,0.02213960886001587,0.0021653175354003906,0.23030288517475128,0.04405917972326279,0.05117153748869896,-0.6382939410911537,0.2239142054638249,0.12741826905083906
3.0950710773468018,0.0011181831359863281,0.018895387649536133,-0.0025274157524108887,0.23216761648654938,0.05796345695853233,0.03501792252063751,-0.6359326955740087,0.22436686178897414,0.12730562943351742
3.1053740978240967,0.004551678895950317,0.0083235502243042,0.0010912418365478516,0.20924630761146545,0.06532815843820572,0.011693425476551056,-0.6337124337711536,0.2247899733504815,0.12697040301627627
3.115044116973877,0.005226656794548035,-0.0004234910011291504,0.003072381019592285,0.1679675281047821,0.07394140213727951,-0.003309226594865322,-0.6318815329605332,0.22515752944407896,0.12646674651368026
3.125084161758423,0.003784194588661194,0.003093898296356201,0.00048488378524780273,0.11960745602846146,0.07782962173223495,-0.016940617933869362,-0.6305487704284507,0.22556502626037753,0.12592961253978827
3.1350769996643066,0.007062345743179321,-0.0005532503128051758,-0.0008087754249572754,0.11073656380176544,0.08358914405107498,-0.032214537262916565,-0.6295859877854453,0.225988215684014,0.12530613667567414
3.1450891494750977,0.00786253809928894,-0.010196924209594727,0.00926893949508667,0.135746568441391,0.07765509188175201,-0.04030841961503029,-0.6286424870957915,0.22632515737005707,0.12452034544274372
3.1553640365600586,0.006054088473320007,-0.008395552635192871,0.013670921325683594,0.17853115499019623,0.07023525983095169,-0.040838222950696945,-0.6273969385501045,0.2265138931486255,0.12358702240667621
3.165119171142578,0.007978573441505432,0.002673804759979248,0.010189414024353027,0.21545907855033875,0.06407323479652405,-0.03219360485672951,-0.6257498202630972,0.22658466078520315,0.12258209962803435
3.175119161605835,0.014935731887817383,0.006638765335083008,0.0063814520835876465,0.24689839780330658,0.062191180884838104,-0.022708384320139885,-0.6237398183563162,0.22663763017391586,0.12161526553148919
3.1851682662963867,0.01718832552433014,0.0011216998100280762,0.00672149658203125,0.2740892767906189,0.06517418473958969,-0.02231823094189167,-0.6213650392835058,0.22673357076974074,0.12063735517468799
3.1952309608459473,0.013601318001747131,-0.013087332248687744,0.010875225067138672,0.28673475980758667,0.06507964432239532,-0.019531764090061188,-0.6187627704928762,0.22684513047296836,0.1196359779925388
3.205395221710205,0.013184607028961182,-0.023267269134521484,0.017455458641052246,0.3053331971168518,0.06991381198167801,-0.015167111530900002,-0.6160146550496509,0.22695752626646315,0.11860871838422755
3.215163230895996,0.013560190796852112,-0.021068215370178223,0.023478984832763672,0.3246494233608246,0.06053309515118599,-0.005373549181967974,-0.6130431045768522,0.22709389971860672,0.11764713648002675
3.225214958190918,0.014844417572021484,-0.011204898357391357,0.02635669708251953,0.3307352662086487,0.04872437193989754,0.0033083558082580566,-0.6099048495467624,0.2272133826616768,0.11678199378559075
3.235180139541626,0.018964573740959167,-0.010590910911560059,0.026468396186828613,0.30310365557670593,0.037211570888757706,0.006829161196947098,-0.6069250864692887,0.22724843306587286,0.11601464631109447
3.2452640533447266,0.01555749773979187,-0.021718263626098633,0.029289603233337402,0.2472292184829712,0.03734872490167618,0.013928350061178207,-0.6043868131169328,0.22736167807462415,0.11543816127940429
3.2555222511291504,0.008203089237213135,-0.0357513427734375,0.03337585926055908,0.17193277180194855,0.03086255118250847,0.01834951713681221,-0.602435022262035,0.2276015050720042,0.11511731784407636
3.2651400566101074,-0.0007550567388534546,-0.04024595022201538,0.041265010833740234,0.11574221402406693,0.0258755162358284,0.0238883588463068,-0.6010940492122344,0.2278836510636323,0.11502214772008254
3.275269031524658,-0.003578364849090576,-0.0417325496673584,0.049671471118927,0.07691237330436707,0.013156925328075886,0.03046508878469467,-0.600140184111445,0.22816925288890885,0.11511923208894635
3.2853171825408936,-0.000566527247428894,-0.03349429368972778,0.04822063446044922,0.06246152147650719,-0.0036273812875151634,0.03923381492495537,-0.5994025808882848,0.22838638963657998,0.11537666376010608
3.2955470085144043,0.0013119280338287354,-0.017896175384521484,0.04129225015640259,0.05629762262105942,-0.009523486718535423,0.048255909234285355,-0.5987329872195553,0.22856259740398033,0.1157531265764592
3.3066141605377197,0.005980953574180603,-0.01711094379425049,0.03285306692123413,0.05156358703970909,-0.01356936153024435,0.05516361817717552,-0.5981150255770386,0.22874917230291913,0.1162425691510396
3.315464973449707,0.00870746374130249,-0.017892003059387207,0.030522704124450684,0.03831491246819496,-0.01977989822626114,0.058531504124403,-0.5975646964625883,0.22895218409601104,0.11682250784770046
3.32598614692688,0.00836828351020813,-0.01502847671508789,0.034427642822265625,0.024385247379541397,-0.022502712905406952,0.06586558371782303,-0.597109521960041,0.22914960073082538,0.11748893126492277
3.3353042602539062,0.011441975831985474,-0.01414257287979126,0.04174649715423584,-0.006734022870659828,-0.025127170607447624,0.0666864737868309,-0.5968501329566835,0.22936541580485564,0.1182669984282567
3.3453421592712402,0.013072311878204346,-0.010095000267028809,0.04377263784408569,-0.039686910808086395,-0.025079499930143356,0.0638536736369133,-0.596919068990567,0.22958764633012,0.11911239291480524
3.3554940223693848,0.013540297746658325,-0.006052494049072266,0.0470467209815979,-0.06446602940559387,-0.024582287296652794,0.05923495069146156,-0.5972894090396264,0.22984228199620288,0.11999266061469939
3.365349292755127,0.013365298509597778,-0.005475401878356934,0.04702413082122803,-0.07753629237413406,-0.01932494156062603,0.04452924430370331,-0.5978833897258351,0.23009750262258877,0.12081241414392242
3.375452995300293,0.011687368154525757,0.002437114715576172,0.045490562915802,-0.06687923520803452,-0.013919034041464329,0.03339696303009987,-0.5985194159730154,0.23031217750928126,0.1214832565439054
3.3853702545166016,0.012865111231803894,0.01223909854888916,0.04007786512374878,-0.04778836667537689,-0.005993466824293137,0.022969888523221016,-0.5990295941714989,0.23050420973857802,0.12199091354536251
3.3954200744628906,0.010865762829780579,0.01829659938812256,0.03427779674530029,-0.02118774689733982,0.0035662162117660046,0.015662813559174538,-0.5993254418843174,0.23070401371006566,0.12233581597011825
3.405506134033203,0.006851464509963989,0.017951488494873047,0.03055596351623535,0.003585509955883026,0.014157075434923172,0.007604619953781366,-0.5993923710812553,0.23090617802296767,0.1225195920526579
3.415511131286621,0.0030131787061691284,0.01313328742980957,0.03238177299499512,0.022062255069613457,0.026472685858607292,0.0017550403717905283,-0.5992587365906014,0.2311608007942811,0.12255948881829445
3.4256420135498047,-0.0019986629486083984,0.006479859352111816,0.03725254535675049,0.033914655447006226,0.04517713189125061,-0.008178816176950932,-0.5990007709214918,0.23148867209071117,0.12245937770279876
3.4355082511901855,-0.006233781576156616,-0.0006242990493774414,0.038874804973602295,0.034472569823265076,0.06679103523492813,-0.013184068724513054,-0.5987157972380872,0.23196572783048197,0.12224898857602087
3.4455080032348633,-0.010586708784103394,-0.006932258605957031,0.0328899621963501,0.026453791186213493,0.0874268040060997,-0.013510838150978088,-0.59848305973184,0.2326546315547955,0.12203682806905936
3.4556360244750977,-0.008582815527915955,-0.009136795997619629,0.02376455068588257,0.020951783284544945,0.1043110266327858,-0.016680851578712463,-0.5983440734472412,0.233536973691926,0.12181968919310733
3.4654781818389893,3.4302473068237305e-05,-0.0068555474281311035,0.01714456081390381,0.022629573941230774,0.11375192552804947,-0.018726425245404243,-0.5982425057761035,0.23453173624519225,0.12157496946595767
3.475533962249756,0.0038043856620788574,-0.0023571252822875977,0.013892054557800293,0.029827751219272614,0.12060792744159698,-0.018547674641013145,-0.5980982807196297,0.23558902407411184,0.12129979915342971
3.4854681491851807,0.0063512325286865234,0.0011661052703857422,0.012917637825012207,0.03601161018013954,0.11581716686487198,-0.022230559960007668,-0.597897063711795,0.23662116766929,0.12099046544847226
3.4959850311279297,0.00976264476776123,0.0010061860084533691,0.008717477321624756,0.04694851115345955,0.11284845322370529,-0.025817465037107468,-0.5976290610898795,0.23755379819551686,0.12060041562823369
3.5055460929870605,0.013209730386734009,-0.004139125347137451,0.00534135103225708,0.05437473580241203,0.10362032800912857,-0.02709018997848034,-0.5972820778624276,0.23839083239614886,0.1201549097741227
3.5156121253967285,0.014068633317947388,-0.006744682788848877,0.0005595684051513672,0.06180281192064285,0.0985596626996994,-0.020615670830011368,-0.5968533248317992,0.23914995081948565,0.11970700613951274
3.52573299407959,0.00981314480304718,-0.005868852138519287,-0.0026583075523376465,0.06987032294273376,0.09157951176166534,-0.015301867388188839,-0.5963294756455448,0.23982044307171937,0.11927341594573562
3.5355701446533203,0.008336782455444336,-0.0075457096099853516,-0.006369531154632568,0.07819108664989471,0.08914019167423248,-0.010589297860860825,-0.5956822120119971,0.24046755562342645,0.11887638798770775
3.545619010925293,0.005019053816795349,-0.011681199073791504,-0.0065479278564453125,0.07827231287956238,0.0848301351070404,-0.01062232069671154,-0.5949823621352205,0.24113739784878663,0.11851844297865163
3.5556161403656006,0.0018855631351470947,-0.013533353805541992,-0.007339537143707275,0.06985209882259369,0.07662609219551086,-0.010750791057944298,-0.5943261571313962,0.24177474595819784,0.11818426656479361
3.565653085708618,0.0014251768589019775,-0.0146750807762146,-0.006963133811950684,0.05626624822616577,0.06883741170167923,-0.008559009060263634,-0.5938074495501895,0.24237429763361415,0.11790824635664139
3.575639247894287,-0.0028749406337738037,-0.01887720823287964,-0.010047614574432373,0.044055502861738205,0.06408442556858063,-0.003563771490007639,-0.593391199171947,0.2429838691210383,0.11773492183467817
3.585606098175049,-0.007153943181037903,-0.021442830562591553,-0.010928869247436523,0.034975986927747726,0.05026501044631004,-0.0004465413512662053,-0.5930258008227764,0.243575533770466,0.11765382771821578
3.595691204071045,-0.008026495575904846,-0.01745086908340454,-0.009724736213684082,0.030352506786584854,0.034208547323942184,0.00536266528069973,-0.5926832721018189,0.2440524789965404,0.11763611682501891
3.6056511402130127,-0.005628257989883423,-0.016184508800506592,-0.008724629878997803,0.030001502484083176,0.022783320397138596,0.00794992595911026,-0.5923522966453455,0.24437285828083513,0.11764434803714835
3.615636110305786,-0.0007476359605789185,-0.015503644943237305,-0.008624255657196045,0.02966349944472313,0.013860087841749191,0.014330700039863586,-0.5919914402939772,0.24461828101578417,0.11771052957404904
3.626091957092285,-0.0002289414405822754,-0.01190406084060669,-0.009868144989013672,0.025174476206302643,0.004323574714362621,0.020176872611045837,-0.5916071885045411,0.24478130821279548,0.11783446885171367
3.635646104812622,0.0023331940174102783,-0.008498847484588623,-0.00853276252746582,0.031229769811034203,0.0029716657008975744,0.02682151086628437,-0.5911814129741086,0.24490099342553467,0.11802020823550033
3.6457440853118896,0.002002537250518799,-0.0055599212646484375,-0.008719086647033691,0.033647920936346054,0.003055022796615958,0.02939625456929207,-0.5907108842237463,0.24504312492004102,0.11824337585429431
3.655704975128174,0.0010405629873275757,-0.0035691261291503906,-0.008543968200683594,0.04408023878931999,-0.0014333357103168964,0.028227925300598145,-0.5901328627642812,0.24511747029934694,0.11843207796698714
3.665717124938965,0.002904161810874939,-0.0039002299308776855,-0.00648576021194458,0.04808856174349785,0.0013238349929451942,0.0263405442237854,-0.589484690233733,0.24511998426552112,0.11856473700000437
3.6758720874786377,0.0023861825466156006,-0.0007292032241821289,-0.004667997360229492,0.05621854588389397,-0.0015336927026510239,0.023800741881132126,-0.5888089978722715,0.245100605148042,0.11864860893300938
3.685871124267578,0.004572659730911255,0.0034821033477783203,-0.0027794837951660156,0.05324086546897888,-0.007705835159868002,0.017883462831377983,-0.588130440337416,0.24503855719276596,0.11870085757091144
3.6973719596862793,0.007124349474906921,0.005867302417755127,-2.0444393157958984e-05,0.0528559535741806,-0.0051247430965304375,0.010907099582254887,-0.5874828198736344,0.24496415498718138,0.11870290721255781
3.705998182296753,0.008604943752288818,0.004539668560028076,0.004045307636260986,0.050047118216753006,-0.006256320513784885,-0.001096832100301981,-0.586896467870155,0.24482823570091133,0.11859204949087084
3.715874195098877,0.008935004472732544,0.0031276345252990723,0.0034078359603881836,0.04797186329960823,-0.0068430593237280846,-0.013001428917050362,-0.5863933082193525,0.24463833795352152,0.11837362498142828
3.725947141647339,0.006793409585952759,0.0036066174507141113,0.0017565488815307617,0.050878170877695084,-0.0042747072875499725,-0.021986933425068855,-0.5859282925636538,0.2443792060385776,0.11802285601693767
3.7358012199401855,0.0061945319175720215,-0.0015265345573425293,0.001689612865447998,0.0567517913877964,-0.0003926614299416542,-0.025493837893009186,-0.5854412972992669,0.24411463505916176,0.11758795765575214
3.74652099609375,0.003973647952079773,0.0004496574401855469,0.00196152925491333,0.0596889927983284,-0.004254777450114489,-0.026442188769578934,-0.5849194196953693,0.24385024606116693,0.11712032738638849
3.7558679580688477,0.004138126969337463,0.0038254261016845703,0.0032745003700256348,0.06740570068359375,-0.0017603719606995583,-0.02216094546020031,-0.5843662517992495,0.24357485770526577,0.11665915276614805
3.765838146209717,0.004442915320396423,-0.004110157489776611,0.005192101001739502,0.07084117829799652,0.0015624540392309427,-0.019060758873820305,-0.5837637963953456,0.2433821778567024,0.11624299104160943
3.775876998901367,0.0011583566665649414,-0.009380936622619629,0.006350338459014893,0.0657111331820488,0.003281701821833849,-0.01663760282099247,-0.5831864989937386,0.2432547497545595,0.11588102918886097
3.7859272956848145,-0.0022663623094558716,-0.010227084159851074,0.008702397346496582,0.06569115817546844,0.005811172537505627,-0.008930680342018604,-0.5826281797266633,0.2432093693445762,0.11559104677481402
3.7960009574890137,0.0012184083461761475,-0.01391834020614624,0.010747373104095459,0.06184329092502594,0.005681387614458799,-0.0038326974026858807,-0.5820784865717302,0.24322540250624713,0.11538787977747189
3.806049108505249,0.0021205395460128784,-0.0122871994972229,0.012009739875793457,0.0642065778374672,0.0029202220030128956,-1.8784543499350548e-05,-0.5815141297656461,0.24322509022543404,0.11521611495312105
3.8160390853881836,0.002393767237663269,-0.00753331184387207,0.012547850608825684,0.06106245517730713,-0.0034074485301971436,0.005073179490864277,-0.5809199137093386,0.2431864227445439,0.11508681110383671
3.8260021209716797,0.006077080965042114,-0.005661964416503906,0.012196242809295654,0.049605533480644226,-0.005668206140398979,0.006997313350439072,-0.5803971917653805,0.24313161955232288,0.11501832752221589
3.8360342979431152,0.00908428430557251,-0.0076105594635009766,0.012130022048950195,0.03586222231388092,-0.0053153373301029205,0.013240722008049488,-0.5800086265203355,0.2431233490012861,0.11504592299205142
3.846050262451172,0.010793164372444153,-0.008238375186920166,0.010641634464263916,0.020070478320121765,-0.0058258650824427605,0.016915617510676384,-0.5797194699004633,0.2431704452378456,0.11517489552866746
3.8559679985046387,0.0093173086643219,-0.009000957012176514,0.012490510940551758,0.005004093050956726,-0.006731650326400995,0.016857881098985672,-0.5795548521332448,0.24321363364696733,0.11535650755964551
3.8659772872924805,0.008324742317199707,-0.011634886264801025,0.016567647457122803,0.000599757069721818,-0.005371573846787214,0.017544975504279137,-0.5794748934343332,0.24325792468128477,0.11554493512801359
3.87627911567688,0.007102057337760925,-0.00888139009475708,0.015485048294067383,-0.0008480206597596407,-0.005355905741453171,0.018047301098704338,-0.5794119651648237,0.24334410325306083,0.11576466374808975
3.886043071746826,0.010024920105934143,-0.0008408427238464355,0.010104537010192871,0.0007778392173349857,-0.00256864121183753,0.018891524523496628,-0.5793582808659534,0.24345650257984489,0.11600754096488745
3.896076202392578,0.011302411556243896,0.002336442470550537,0.006591856479644775,0.007516069337725639,-3.307126462459564e-06,0.019930901005864143,-0.579281227246012,0.24359951629718454,0.11624233980242547
3.9060661792755127,0.012025520205497742,0.0028148889541625977,0.005195677280426025,0.017193730920553207,0.006723837461322546,0.020383106544613838,-0.5791288223232888,0.2438116389535424,0.11647959358444562
3.9160821437835693,0.010562226176261902,0.0010901689529418945,0.0036766529083251953,0.024792712181806564,0.008075347170233727,0.0196318831294775,-0.5788742067252625,0.244068883225803,0.11670172209538661
3.9260730743408203,0.010968223214149475,0.0016818046569824219,0.0027161836624145508,0.033091653138399124,0.002257139654830098,0.017109869047999382,-0.5785320437740278,0.2442835322394199,0.11687980992450452
3.9359450340270996,0.012003466486930847,0.0016745328903198242,0.0044481754302978516,0.0239100381731987,-0.004561351612210274,0.01567746140062809,-0.5782127180431161,0.24440349484179863,0.11703624607105222
3.9464170932769775,0.012132197618484497,-0.0029401183128356934,0.007042050361633301,0.02162957563996315,-0.014062711969017982,0.007887182757258415,-0.5779654294173069,0.2444489325300974,0.11715642064852501
3.9561452865600586,0.009905979037284851,-0.010240733623504639,0.011229932308197021,0.022595137357711792,-0.026310767978429794,0.005054271314293146,-0.5777367653070681,0.24433471402598278,0.11720693884171599
3.9660751819610596,0.007490307092666626,-0.011049866676330566,0.011010289192199707,0.018503723666071892,-0.04017678275704384,0.0027652843855321407,-0.5775552153270085,0.24408589257811067,0.11723704321671304
3.976367950439453,0.009518459439277649,-0.006797730922698975,0.007789969444274902,0.02364545501768589,-0.04734041914343834,0.004677380435168743,-0.5773791220092273,0.2437210718150058,0.1172651687346633
3.9883971214294434,0.007115110754966736,-0.01224738359451294,0.004320740699768066,0.03345094993710518,-0.04663388058543205,0.010205304250121117,-0.5771268892755651,0.24335201865197115,0.11732700118458042
3.9965872764587402,0.0038451403379440308,-0.013633966445922852,6.204843521118164e-05,0.05163845792412758,-0.052802518010139465,0.011169581674039364,-0.5767057700797136,0.24295201973965014,0.11736931722127102
4.006195068359375,-0.000256463885307312,-0.008860945701599121,0.0007736682891845703,0.07222548872232437,-0.057370636612176895,0.013356835581362247,-0.5760906195049603,0.24247435685328264,0.11738190133026691
4.016165256500244,6.854534149169922e-06,-0.007884204387664795,-0.0008678436279296875,0.07720249146223068,-0.06035608798265457,0.01692456565797329,-0.5753445556906509,0.24197512958045522,0.11740288690314937
4.026266098022461,-0.000841289758682251,-0.00933164358139038,-0.004833996295928955,0.07791568338871002,-0.0644080862402916,0.01819702424108982,-0.5745601009873362,0.24144878510600767,0.11743944203319295
4.037609100341797,0.00044126808643341064,-0.008999943733215332,-0.003411531448364258,0.0770641341805458,-0.0673440471291542,0.022900592535734177,-0.5737471354339524,0.24090671596464977,0.11751375803828401
4.046529293060303,0.0016610771417617798,-0.008166372776031494,-0.004984915256500244,0.07281879335641861,-0.07350286841392517,0.02605164423584938,-0.5729546251629731,0.24033340601126116,0.11764017688803888
