timestamp,accel_x,accel_y,accel_z,rotation_x,rotation_y,rotation_z, pitch,roll,yaw
0.04765582084655762,0.0031248778104782104,-0.03241313248872757,0.009550034999847412,-0.006926002912223339,-0.0014468831941485405,-0.006163361947983503,-0.014240394700887987,0.23351202140025207,0.0016702758886390516
0.06223297119140625,0.007132530212402344,-0.030548200011253357,0.005374491214752197,0.002247787779197097,-0.0037297448143363,-0.007593213114887476,-0.0142828151871971,0.23348634393685025,0.0016074287428264119
0.0636298656463623,0.01146252453327179,-0.03168264403939247,0.007700860500335693,0.005993290804326534,-0.0022337581031024456,-0.00348731130361557,-0.014242323944084291,0.23345841436951925,0.00154289117978925
0.06454586982727051,0.009964406490325928,-0.032866641879081726,0.011259853839874268,0.0026041518431156874,-0.0007778080180287361,-0.0014175026444718242,-0.014190358709573242,0.23344541883229164,0.0015143904105786228
0.07310295104980469,0.010395705699920654,-0.03234384208917618,0.010348796844482422,-0.006046494469046593,-0.003152193035930395,0.002185540972277522,-0.014201618020655298,0.23342559141842373,0.0015310405525240359
0.08201813697814941,0.012558043003082275,-0.034505292773246765,0.010102570056915283,-0.008285148069262505,0.0018404347356408834,0.00025368412025272846,-0.014272619598852135,0.23343035661517286,0.0015570328547333705
0.09203696250915527,0.011396825313568115,-0.037252724170684814,0.007988274097442627,-0.00699462927877903,0.004286237061023712,0.002630661940202117,-0.014334517252485416,0.23346354802823308,0.0015962445673083534
0.10213112831115723,0.008640006184577942,-0.03508033603429794,0.007263779640197754,-0.011460218578577042,-0.0011996086686849594,0.0017576778773218393,-0.014420434622083604,0.23349004887583083,0.0016405682564610083
0.11205601692199707,0.010998979210853577,-0.03347229212522507,0.005238652229309082,-0.012042468413710594,-0.004598468542098999,-0.0001725811744108796,-0.014521387890660875,0.23346533201588998,0.0016803376252799256
0.12320113182067871,0.012268289923667908,-0.033603735268116,0.0022461414337158203,-0.013735972344875336,-0.008509586565196514,-0.0024908629711717367,-0.014637583807060461,0.23340008905783355,0.0016926375873310062
0.13219594955444336,0.011161759495735168,-0.03352782875299454,0.0010197162628173828,-0.01727784425020218,-0.01505013182759285,-0.0028100162744522095,-0.014790577624872174,0.233283260045029,0.001696021229169205
0.14245295524597168,0.012524515390396118,-0.03341223672032356,0.0030075907707214355,-0.017358005046844482,-0.01704377494752407,-0.002686445601284504,-0.014964918427943433,0.233122148041309,0.001705355487194085
0.15241789817810059,0.010165601968765259,-0.03335965424776077,0.007181525230407715,-0.01544024609029293,-0.018545841798186302,-0.0037365832831710577,-0.015125980544327544,0.23294384026139425,0.0017087806144573084
0.16242384910583496,0.0070196837186813354,-0.033620674163103104,0.007691085338592529,-0.018516728654503822,-0.016219304874539375,-0.003838316071778536,-0.015295462818822167,0.23277459888214067,0.00170919637231855
0.1731560230255127,0.005949556827545166,-0.034752607345581055,0.009407639503479004,-0.006847423501312733,-0.005470696836709976,-0.0007883574580773711,-0.015420332818803667,0.23266733865358283,0.0017153151086157653
0.18245697021484375,0.0049795955419540405,-0.036816079169511795,0.009782135486602783,-0.001820174278691411,-0.0027803718112409115,-0.0003350874176248908,-0.015454390225520441,0.23262931242298737,0.0017136736201844112
0.19226503372192383,0.0036755651235580444,-0.03351306542754173,0.011477291584014893,-0.005902034230530262,0.0003857710398733616,0.003869937499985099,-0.014653729184840918,0.23280621219986264,0.0017387223093202975
0.20229101181030273,0.003870531916618347,-0.03311051055788994,0.012752294540405273,-0.008918063715100288,0.0008997609838843346,0.0034848444629460573,-0.013930659200190307,0.23301115313012566,0.0018033326786146874
0.21217894554138184,0.0036998987197875977,-0.036519452929496765,0.014254570007324219,-0.01655021868646145,0.006498347036540508,0.0016988753341138363,-0.013295967310766767,0.2332158455868008,0.0018567664474460903
0.22298097610473633,0.004335671663284302,-0.03693724423646927,0.01422649621963501,-0.009509086608886719,0.012842530384659767,0.0056693824008107185,-0.012706626656954554,0.23350159527706088,0.001943186677876415
0.23235392570495605,0.0038108080625534058,-0.030342523008584976,0.013031303882598877,0.0075763738714158535,0.005950313061475754,0.007061576005071402,-0.012017008197160416,0.23375678644417155,0.002015213169410049
0.24252605438232422,0.005233496427536011,-0.02303544618189335,0.01134258508682251,0.022540941834449768,0.002574756508693099,0.008498618379235268,-0.011179601931919515,0.23390761732537796,0.002057655840561252
0.2525320053100586,0.008741945028305054,-0.018171846866607666,0.008198738098144531,0.020748335868120193,0.001119338907301426,0.006335810758173466,-0.01028323155421342,0.23401621618526897,0.002076869319132688
0.2623560428619385,0.008394032716751099,-0.018323106691241264,0.006396889686584473,0.00476164510473609,0.0029992645140737295,0.004882791079580784,-0.009473153996127423,0.23412100086661872,0.0020996552511810722
0.2738978862762451,0.0050492435693740845,-0.022990494966506958,0.00946277379989624,-0.009795576333999634,0.01358022540807724,0.006107578054070473,-0.008891492213773864,0.23427981158568628,0.0021548444953492125
0.2826089859008789,0.0027153044939041138,-0.02345222234725952,0.011083006858825684,-0.012040087953209877,0.010831576772034168,-0.0005117083201184869,-0.008422414615984128,0.23448210533537386,0.002203106713604941
0.2926480770111084,0.00377655029296875,-0.019830981269478798,0.011624813079833984,-0.01193021610379219,-0.001680353656411171,-0.002848419127985835,-0.007898691661117351,0.23459797537681792,0.002206240011666774
0.30266499519348145,0.007996872067451477,-0.01655825972557068,0.012867569923400879,-0.013201609253883362,-0.002726176753640175,-0.005149923264980316,-0.007387796244513783,0.23465066236786336,0.0022032092585848153
0.3125619888305664,0.007640644907951355,-0.014750942587852478,0.009909629821777344,-0.010620256885886192,0.0014329261612147093,-0.004425649531185627,-0.006999534535216619,0.23471818028959548,0.0021814965914444895
0.3236401081085205,0.004268020391464233,-0.016309231519699097,0.00786435604095459,-0.008467357605695724,0.008345160633325577,-0.003861592151224613,-0.006742023234930134,0.2348593867798951,0.0021566987254241655
0.33254098892211914,0.0002755969762802124,-0.016178105026483536,0.0064501166343688965,0.0024089922662824392,0.002536629093810916,-0.007351611275225878,-0.006504074437649884,0.2350417797033882,0.002121588893351733
0.34272313117980957,0.0009332597255706787,-0.01243526954203844,0.007720589637756348,0.012902912683784962,0.0003424505703151226,-0.008534321561455727,-0.006148687088491553,0.23516516190297268,0.0020325427844703954
0.352492094039917,0.0015429854393005371,-0.010442344471812248,0.007643938064575195,0.009260673075914383,0.0017492212355136871,-0.012474840506911278,-0.005681635320649173,0.23524363097542972,0.0019022318858568199
0.3625969886779785,0.0006182193756103516,-0.015152834355831146,0.009468257427215576,-0.0017011641757562757,0.007351180538535118,-0.013496695086359978,-0.005295679789097479,0.2353467619758958,0.001761165089112188
0.37404394149780273,-0.0026149749755859375,-0.01870763674378395,0.009460151195526123,-0.005400777794420719,0.013507830910384655,-0.013716300018131733,-0.005066300519606261,0.23551737049475396,0.0016373643414477933
0.3825418949127197,-0.0027612000703811646,-0.019915565848350525,0.009339213371276855,-0.005581339821219444,0.013076932169497013,-0.015856947749853134,-0.004900936895008617,0.2357774013779396,0.0015047068768201254
0.39258599281311035,9.390711784362793e-05,-0.019500205293297768,0.007247984409332275,-0.0029077595099806786,0.0053004128858447075,-0.017022347077727318,-0.004760231375590382,0.23597948846644165,0.0013507267074796224
0.4027068614959717,0.0042569637298583984,-0.014596449211239815,0.005234718322753906,-0.0009130518883466721,-0.004749291576445103,-0.018108118325471878,-0.004556184664145912,0.23604472126750112,0.0011793224205887138
0.4138779640197754,0.007665574550628662,-0.015255449339747429,0.006586968898773193,-0.01108572818338871,-0.003143849316984415,-0.01477554626762867,-0.004406465826219169,0.23600707757667355,0.0010271864440128207
0.4230191707611084,0.005122140049934387,-0.020523274317383766,0.006294548511505127,-0.017066122964024544,-0.0003850809298455715,-0.014641055837273598,-0.004394749504568752,0.23601785760420116,0.0009146532482678791
0.4331660270690918,0.003191232681274414,-0.025129612535238266,0.005117356777191162,-0.01932964287698269,-0.0031041689217090607,-0.012804700061678886,-0.004453964641489254,0.23602644568329254,0.0008304173570716074
0.4432251453399658,0.00347977876663208,-0.02363990619778633,0.007741987705230713,-0.005834073759615421,-0.002720407210290432,-0.00721578998491168,-0.004352812860008219,0.23602776033009074,0.0007575338896082007
0.45261096954345703,0.0029218345880508423,-0.021323636174201965,0.0074926018714904785,-0.0038521827664226294,-0.004689458757638931,-0.007024308666586876,-0.004111732895703485,0.2359892947697805,0.0006949885825862448
0.46272897720336914,0.0024582892656326294,-0.01723235659301281,0.0072133541107177734,-0.004342737141996622,-0.0037221992388367653,-0.00485170166939497,-0.0038504047501338916,0.23594791869709228,0.0006536673129855061
0.4736030101776123,0.004099071025848389,-0.018660161644220352,0.004442691802978516,-0.009629394859075546,-0.0041865212842822075,-0.00853048637509346,-0.0036302609469731277,0.23592370217793585,0.0006021091139286049
0.48273801803588867,0.004419252276420593,-0.020005110651254654,0.004832267761230469,-0.02030254527926445,-0.002348673529922962,-0.00431656651198864,-0.003571398110970172,0.23595531011507914,0.000568872720654914
0.492786169052124,0.002130165696144104,-0.01995643600821495,0.008231699466705322,-0.03134176507592201,-0.0021215504966676235,-0.005013569258153439,-0.0036142819862508006,0.2360340673958506,0.000591530586913042
0.5027649402618408,0.00438593327999115,-0.019264396280050278,0.008223652839660645,-0.0330112986266613,-0.0037471437826752663,-0.008516957052052021,-0.003639405050839089,0.2360680878943045,0.0005925998018654123
0.5129029750823975,0.006123706698417664,-0.022418169304728508,0.010085225105285645,-0.016612287610769272,-0.007389371749013662,-0.0070913140662014484,-0.00352779254307246,0.23606975919922515,0.0005743189127006748
0.523108959197998,0.006131485104560852,-0.017003152519464493,0.009668231010437012,0.006274120882153511,-0.013057379052042961,-0.006686247419565916,-0.0032244704821146487,0.23603013562836467,0.0005216078616406906
0.5328948497772217,0.009688034653663635,-0.009026759304106236,0.008139073848724365,0.014747334644198418,-0.019505690783262253,-0.004370735026896,-0.0028164390094759144,0.2359187068953491,0.0004393615179008072
0.5431258678436279,0.00992421805858612,-0.010675407946109772,0.009925901889801025,0.010156577453017235,-0.013661381788551807,-0.003137425286695361,-0.0024509194087206383,0.23578541825217822,0.0003721253821615663
0.5528140068054199,0.008722573518753052,-0.017131522297859192,0.012578248977661133,-0.005057113245129585,-0.006200314033776522,4.052487201988697e-05,-0.0021626546348301693,0.23573427702560945,0.0003471665539564408
0.5631129741668701,0.007589489221572876,-0.020693212747573853,0.012456178665161133,-0.01801445707678795,0.008420439437031746,0.0030035576783120632,-0.0020011964568523097,0.23580100654172437,0.0003923343458897102
0.573065996170044,0.006239593029022217,-0.0205411147326231,0.009110510349273682,-0.023002125322818756,0.012308655306696892,0.0113912895321846,-0.0019101343895423747,0.23594953799085192,0.0005165975695213223
0.5829031467437744,0.00861300528049469,-0.016346950083971024,0.0034459829330444336,-0.024124914780259132,0.015615235082805157,0.014500530436635017,-0.0018511001768396242,0.23616068631742382,0.0006999702411337402
0.5928909778594971,0.011717528104782104,-0.010982169769704342,0.0033507347106933594,-0.018428346142172813,0.00923572201281786,0.014348624274134636,-0.001720087276473739,0.23637316192540997,0.000887789622724807
0.6027729511260986,0.015207573771476746,-0.013273047283291817,0.00697094202041626,-0.021944517269730568,-0.0019399672746658325,0.009230028837919235,-0.001661109338688551,0.23648733041075995,0.0010507074089816904
0.612921953201294,0.015238702297210693,-0.01283419318497181,0.01326221227645874,-0.03767447918653488,0.0012773091439157724,0.013180241920053959,-0.0018020931270846562,0.23659664815271134,0.0012319816908265419
0.6241910457611084,0.011587664484977722,-0.015175366774201393,0.01229625940322876,-0.04921022802591324,-0.0052367825992405415,0.01092747412621975,-0.0020528114985510462,0.2366795522218182,0.001459935422378547
0.6331131458282471,0.010332167148590088,-0.0172754917293787,0.010513544082641602,-0.05772305279970169,-0.0019871052354574203,0.00419207289814949,-0.0023218786979868704,0.2367311895376967,0.0016547066332702467
0.6430139541625977,0.008525744080543518,-0.01960570737719536,0.015803277492523193,-0.040956590324640274,-0.001566858496516943,0.011404979042708874,-0.002515865137939348,0.23681584267924732,0.001847561200652023
0.6529099941253662,0.005557343363761902,-0.012835160829126835,0.015630066394805908,-0.0053197843953967094,-0.012974908575415611,0.01531913224607706,-0.0023981529445388245,0.23683988454891886,0.0020363709071510626
0.6630361080169678,0.00273190438747406,-0.004603659734129906,0.011562883853912354,0.0056196823716163635,-0.017914539203047752,0.016225140541791916,-0.002116476676452808,0.23674818887779006,0.0021910014950644683
0.6731829643249512,0.006199702620506287,-0.004643610678613186,0.008126914501190186,0.0013063433580100536,-0.014573914930224419,0.0169847272336483,-0.001881769010498704,0.23669681878459753,0.002336263833794668
0.6829221248626709,0.0018307268619537354,-0.01508527621626854,0.008939027786254883,-0.003397864056751132,-0.004675211384892464,0.02071821317076683,-0.0016575444256654163,0.23674892033383882,0.002517923588713849
0.6930410861968994,-0.0030258744955062866,-0.01670749858021736,0.010888755321502686,-0.012272798456251621,-0.0011986768804490566,0.019991328939795494,-0.0015097485429634888,0.23689455210242327,0.0027301997641048406
0.7030379772186279,-0.0030340999364852905,-0.012706511653959751,0.010792136192321777,-0.025022948160767555,-0.005793960765004158,0.019048836082220078,-0.0014455254379694001,0.2369814883056431,0.0029578782736030666
0.7129819393157959,0.0004370659589767456,-0.011569211259484291,0.010317742824554443,-0.024672692641615868,-0.003594588954001665,0.02044667676091194,-0.0014221148553131121,0.2370523454280397,0.0032104324696401497
0.7240049839019775,0.0008659213781356812,-0.010438194498419762,0.009075462818145752,-0.01872638612985611,-0.001000670250505209,0.022029392421245575,-0.001328697077414807,0.23714483467559017,0.0034753946187333694
0.7332718372344971,-0.00339314341545105,-0.007618774194270372,0.010845541954040527,-0.02188790962100029,-0.0028719408437609673,0.019200850278139114,-0.0013168918152478854,0.2372095568745105,0.0037281748307900243
0.7435429096221924,-0.0009235143661499023,-0.006255016662180424,0.008792757987976074,-0.01881994679570198,0.0008176025003194809,0.017802156507968903,-0.001417981066224356,0.23724334400783212,0.003955594280913701
0.7530369758605957,0.0017487406730651855,-0.006796330213546753,0.006772100925445557,-0.012114840559661388,0.0027015230152755976,0.016819825395941734,-0.001471011692548725,0.2373355353380275,0.004168236007403931
0.763106107711792,0.0009526461362838745,-0.0020228929352015257,0.0039414167404174805,-0.008736619725823402,-0.002658887766301632,0.01047191396355629,-0.0013362464207307375,0.23736961144617152,0.004323130186967937
0.7732629776000977,0.0017245858907699585,-0.0008388598216697574,0.005934774875640869,-0.013077040202915668,-0.005315657239407301,0.006070241332054138,-0.001205073861872636,0.2373289055552998,0.004434663421158887
0.7830541133880615,0.003132849931716919,-0.0031282990239560604,0.005290865898132324,-0.02268918603658676,-0.001544887199997902,0.00015669199638068676,-0.0012056877532970016,0.23727721176763658,0.0045020840172109175
0.7932720184326172,0.001138433814048767,-0.005922665819525719,0.006745576858520508,-0.028328729793429375,0.005508849862962961,-0.0012808825122192502,-0.0012992505267055625,0.237319715762989,0.004555052466686771
0.8032858371734619,-2.206861972808838e-05,-0.007784925866872072,0.003102421760559082,-0.03119535557925701,-0.0014412016607820988,-0.006114519666880369,-0.0014677907716090113,0.23736774328514146,0.0045918837871790135
0.8131558895111084,0.0029451996088027954,-0.00782712735235691,0.004617571830749512,-0.03647833690047264,-0.014538805931806564,-0.010349265299737453,-0.0017236131103074328,0.23728208051244387,0.004578774998553672
0.8235938549041748,0.005785733461380005,-0.0073912241496145725,0.006756424903869629,-0.03967812657356262,-0.015865325927734375,-0.00958121009171009,-0.002035392627514869,0.23713846502217845,0.004577358900431077
0.8332269191741943,0.005768299102783203,-0.010824881494045258,0.007871806621551514,-0.03796995431184769,-0.018767859786748886,-0.007278534583747387,-0.0023409938419910814,0.23699958830832377,0.004593511868597184
0.8436369895935059,0.0032014697790145874,-0.013526029884815216,0.007636010646820068,-0.03443088382482529,-0.0183689184486866,-0.005900614894926548,-0.0026770293350205114,0.2368305504402791,0.004619503299923454
0.8532559871673584,0.0022855550050735474,-0.014812485314905643,0.00985032320022583,-0.02131311595439911,-0.01669432409107685,-0.002435149624943733,-0.0029258942361308996,0.23668985110665666,0.004642758029050472
0.8633699417114258,-0.0012942999601364136,-0.012790395878255367,0.00975501537322998,-0.022670263424515724,-0.014427706599235535,0.001614719396457076,-0.003070554608033243,0.23657394903650894,0.0046919108340378705
0.8744950294494629,-0.00328788161277771,-0.013127178885042667,0.009251594543457031,-0.03640201687812805,-0.003643591422587633,0.0015886204782873392,-0.0032547503782623523,0.23650584346575448,0.0047736141178094564
0.8834960460662842,-0.003101333975791931,-0.01697937585413456,0.008752048015594482,-0.049784667789936066,0.009044507518410683,0.0023742527700960636,-0.0035516490207447714,0.23654963741265359,0.00490479550268951
0.8941669464111328,-0.005659937858581543,-0.021182481199502945,0.0072539448738098145,-0.052220333367586136,0.010432546958327293,0.0031088590621948242,-0.003909539655855744,0.23668621068237636,0.005051546075789726
0.9032340049743652,-0.003947407007217407,-0.01705426163971424,0.01013857126235962,-0.033437322825193405,0.0001679244451224804,0.004547498654574156,-0.004191116499641011,0.23680842413452674,0.005180453615077254
0.9132511615753174,0.0004080832004547119,-0.012870223261415958,0.011909782886505127,-0.04282886162400246,-0.0006999103352427483,0.010688535869121552,-0.004401612751716916,0.23686450179898433,0.005351533067485033
0.923443078994751,0.0037520378828048706,-0.006768784020096064,0.008579075336456299,-0.05211077630519867,-0.004542851820588112,0.00220849784091115,-0.004647825860514264,0.23687811554814706,0.005523839825200621
0.9332380294799805,0.005599960684776306,-0.014017097651958466,0.006426095962524414,-0.06542602926492691,-0.005036824382841587,0.00013080588541924953,-0.0050296948869725236,0.23687690409415546,0.005664005112705931
0.943342924118042,0.003280147910118103,-0.01668674312531948,0.009741365909576416,-0.0739113911986351,-0.01584659516811371,0.004216094966977835,-0.005517336699119295,0.23678382212276317,0.005850155588593284
0.9533100128173828,0.005349695682525635,-0.006219198927283287,0.012370526790618896,-0.0831247866153717,-0.028104547411203384,-0.0022080354392528534,-0.006081906094125894,0.23655497853834512,0.006038422801341624
0.963979959487915,0.009767815470695496,-0.0074446541257202625,0.013647079467773438,-0.10363032668828964,-0.031843625009059906,-0.006597191095352173,-0.0067580624806119855,0.23623354250142217,0.006213593095050019
0.9736368656158447,0.00880017876625061,-0.013221487402915955,0.010232746601104736,-0.13830983638763428,-0.03861413896083832,-0.009792079217731953,-0.007652104800530692,0.23586494614042736,0.006400195879098155
0.9833028316497803,0.008280321955680847,-0.01681690104305744,0.013978064060211182,-0.17485666275024414,-0.0537819042801857,-0.008670622482895851,-0.008958744959878251,0.23539784904741454,0.006670419559204937
0.9933850765228271,0.010151371359825134,-0.01820923388004303,0.021423697471618652,-0.20239679515361786,-0.05939149484038353,-0.012681236490607262,-0.01062581603888314,0.23487418193263765,0.007008535113731913
1.0033881664276123,0.010926783084869385,-0.0188426710665226,0.025174856185913086,-0.20973435044288635,-0.056593846529722214,-0.01242716982960701,-0.012525863011069895,0.23433319163710598,0.00737078916663075
1.0133788585662842,0.00819253921508789,-0.017568089067935944,0.020317018032073975,-0.2787812054157257,-0.05271477624773979,-0.017301928251981735,-0.014654182987477293,0.2338410720404241,0.007792368294238681
1.0238769054412842,0.004476949572563171,-0.023979227989912033,0.02387446165084839,-0.37448960542678833,-0.04507976025342941,-0.011208880692720413,-0.017571443442282442,0.23343663459599095,0.008366175391356246
1.0335209369659424,2.995133399963379e-06,-0.03891602158546448,0.027438580989837646,-0.541507363319397,-0.05965510383248329,-0.027008509263396263,-0.021888964310309806,0.2329737874948094,0.00927570315256438
1.0435240268707275,0.005967274308204651,-0.050234466791152954,0.032078444957733154,-0.7860910296440125,-0.058488111943006516,-0.06189485639333725,-0.028235047150545416,0.23249581577010398,0.010352565423948756
1.0535070896148682,0.005927756428718567,-0.07775083929300308,0.054566264152526855,-1.0450993776321411,-0.0680188536643982,-0.07204677164554596,-0.03712521002876562,0.23194626406668292,0.011809303332754368
1.0659310817718506,0.0023115724325180054,-0.09137048572301865,0.06146126985549927,-1.2625811100006104,-0.07341841608285904,-0.09797743707895279,-0.048344272149171245,0.23138453277631096,0.013651609482325744
1.0747311115264893,0.0026341676712036133,-0.08524057269096375,0.06512618064880371,-1.4364670515060425,-0.08460337668657303,-0.11938318610191345,-0.06178133770186847,0.23069306077765594,0.01567325013203156
1.0835011005401611,0.008491307497024536,-0.07099698483943939,0.049706220626831055,-1.5397260189056396,-0.11419030278921127,-0.12118268013000488,-0.07659554732835615,0.2298362864021349,0.017917603186116123
1.0935330390930176,0.02122737467288971,-0.06811777502298355,0.041166603565216064,-1.7595717906951904,-0.10246968269348145,-0.11959122866392136,-0.09297089221764121,0.2289712567171772,0.020491698927722117
1.1035001277923584,0.018589109182357788,-0.037012435495853424,0.05113130807876587,-1.8961690664291382,-0.15145958960056305,-0.09589069336652756,-0.11097052186405414,0.22809098745799083,0.023613195446946064
1.1134560108184814,0.013955101370811462,-0.03388078510761261,0.06166672706604004,-2.1079330444335938,-0.20960253477096558,-0.15662983059883118,-0.13076497779085755,0.22667026550929623,0.026957666762456606
1.1241538524627686,0.02398240566253662,-0.09021344780921936,0.05370473861694336,-2.319995164871216,-0.2642551362514496,-0.22210843861103058,-0.15280384938622985,0.22473325345284997,0.030066420106467893
1.1336390972137451,0.03413388133049011,-0.0889156311750412,0.03588569164276123,-2.6032521724700928,-0.34077465534210205,-0.2761091887950897,-0.17741507567158565,0.2221703925728388,0.033154272813124275
1.143596887588501,0.03558945655822754,-0.08609287440776825,0.04950302839279175,-2.9036660194396973,-0.32947567105293274,-0.27547454833984375,-0.20489411729981108,0.2194550079184587,0.03650574831075696
1.1535499095916748,0.019250482320785522,-0.1316303312778473,0.06590503454208374,-3.154592990875244,-0.2863582968711853,-0.2726854383945465,-0.23517146771852226,0.21723816005778818,0.040531861724881615
1.163635015487671,0.0017093569040298462,-0.10507073998451233,0.03955966234207153,-3.270334482192993,-0.2894185185432434,-0.2813289761543274,-0.26723681034997526,0.2155074751238689,0.04485801103451058
1.174177885055542,0.006210267543792725,-0.0652313232421875,0.018526732921600342,-3.3161354064941406,-0.3703062832355499,-0.2999630272388458,-0.30009242550171117,0.21346228046193982,0.0492236063246018
1.1838140487670898,0.03201664984226227,-0.04690521955490112,0.010233104228973389,-3.339026927947998,-0.4490666091442108,-0.3007467985153198,-0.33333251028828986,0.2106621336936353,0.053477119078651714
1.1941869258880615,0.05140647292137146,-0.0374065637588501,-0.008764445781707764,-3.4424922466278076,-0.5219218134880066,-0.27860695123672485,-0.36706632677324535,0.20730089881709327,0.0579225263204435
1.2040388584136963,0.04768162965774536,-0.04308116436004639,-0.025919973850250244,-3.512054681777954,-0.4774017632007599,-0.26622751355171204,-0.4017641407788671,0.2039581320393967,0.06272267151237058
1.2136170864105225,0.02863462269306183,-0.0909084677696228,-0.0076448917388916016,-3.474097967147827,-0.40289610624313354,-0.23991279304027557,-0.43660285290990963,0.20164565090179348,0.06774192220166649
1.2241129875183105,-0.012370049953460693,-0.0941518247127533,-0.01522916555404663,-3.3636715412139893,-0.42226049304008484,-0.19344675540924072,-0.4705645051208192,0.1998916847196417,0.07295873821987026
1.2337090969085693,-0.014896988868713379,-0.01340535283088684,-0.03622639179229736,-3.3392443656921387,-0.49123579263687134,-0.20395958423614502,-0.5038100875397189,0.1978143945205595,0.07830324181509869
1.2438039779663086,0.019554495811462402,-0.014638304710388184,-0.03944367170333862,-3.5134618282318115,-0.5272411704063416,-0.23136083781719208,-0.5377762987534598,0.1951668412145827,0.08351347727033114
1.2536981105804443,0.028388991951942444,-0.10905039310455322,-0.02863311767578125,-3.763380765914917,-0.3593093156814575,-0.21696315705776215,-0.5739997199817249,0.19362879112691114,0.08920455065923114
1.2636830806732178,-0.0017390549182891846,-0.15443027019500732,-0.033273518085479736,-3.898738145828247,-0.23342037200927734,-0.31820881366729736,-0.612241292599662,0.1939709068902471,0.09503929447659006
1.273820161819458,-0.06599448621273041,-0.16320347785949707,-0.00913238525390625,-3.8359341621398926,-0.1922648549079895,-0.3584544062614441,-0.6510202772094411,0.1949148087186131,0.10011331675753127
1.2840299606323242,-0.06966221332550049,-0.13964658975601196,0.026372432708740234,-3.713144063949585,-0.2917237877845764,-0.35825785994529724,-0.6887498684406568,0.19563415243144003,0.10502423180915778
1.2938590049743652,-0.011395871639251709,0.010332882404327393,-0.0018895268440246582,-3.5999557971954346,-0.33119702339172363,-0.35452061891555786,-0.7253176904738453,0.19544808010510628,0.10969790796210238
1.3038098812103271,0.032141491770744324,0.022512078285217285,-0.014165401458740234,-3.5748958587646484,-0.3599218726158142,-0.36193564534187317,-0.7611267601208606,0.19521422620362025,0.11444506109586167
1.3138978481292725,0.038821399211883545,-0.023161351680755615,-0.04034590721130371,-3.786078929901123,-0.44520971179008484,-0.3843895494937897,-0.7979490065192936,0.19450713686650262,0.11927733920829489
1.3238651752471924,0.009964331984519958,0.008676409721374512,-0.0056015849113464355,-3.811260461807251,-0.2603764832019806,-0.33410853147506714,-0.8357226557378552,0.1952715366390029,0.12490346014255228
1.3339321613311768,0.0041167885065078735,-0.04431557655334473,-0.02092111110687256,-3.8779754638671875,-0.2645610570907593,-0.3370625972747803,-0.8741800185767894,0.19741000809714532,0.1311989098021521
1.3439970016479492,-0.016245976090431213,-0.017478227615356445,-0.02637171745300293,-4.164292335510254,-0.29918932914733887,-0.3006798326969147,-0.9142264617608061,0.2004143900353479,0.1388347894360849
1.3537540435791016,0.01431892067193985,-0.0268746018409729,-0.0538097620010376,-4.454104423522949,-0.2226046621799469,-0.28679442405700684,-0.9570189927514896,0.2058045765396114,0.14879345433667474
1.3638060092926025,0.03967725485563278,-0.061454176902770996,-0.1236199140548706,-4.596781253814697,-0.17953123152256012,-0.342970073223114,-1.0021447962641337,0.21339026428332902,0.1601983290178384
1.3741991519927979,0.0019721612334251404,-0.07619541883468628,-0.14829307794570923,-4.643251895904541,-0.24746716022491455,-0.3842475414276123,-1.0481352502747,0.22192420717770697,0.1726171232364864
1.3838410377502441,-0.010310575366020203,-0.08889955282211304,-0.1335746943950653,-4.476404666900635,-0.29811596870422363,-0.43345531821250916,-1.0936465672319309,0.23068910741501097,0.18574784897379087
1.393867015838623,-0.0013369619846343994,-0.10913872718811035,-0.07741889357566833,-4.174862384796143,-0.34299272298812866,-0.47793149948120117,-1.136952017877428,0.23892331534327882,0.1985096177707893
1.4038569927215576,-0.009217225015163422,-0.03454864025115967,-0.05869799852371216,-3.7698135375976562,-0.37296608090400696,-0.4416171610355377,-1.1765773570538898,0.24690639776110884,0.21108628183418573
1.4139001369476318,-0.0017376914620399475,0.09098464250564575,-0.09813708066940308,-3.5024383068084717,-0.41843098402023315,-0.4197704493999481,-1.212981421383276,0.25532415211257975,0.22446611944825728
1.4242520332336426,0.029280997812747955,0.07663506269454956,-0.08249938488006592,-3.359884738922119,-0.3942532241344452,-0.4541827440261841,-1.2471087396695617,0.26403665660410897,0.2380593503025917
1.4340741634368896,0.03427012264728546,-0.004573822021484375,-0.05809539556503296,-3.3307254314422607,-0.3785359263420105,-0.45187699794769287,-1.280651412299731,0.2744328003299103,0.253010221924606
1.444187879562378,0.002767421305179596,0.002370178699493408,-0.03162306547164917,-3.2055437564849854,-0.3139422833919525,-0.4181097149848938,-1.3133810106920623,0.2885443305433254,0.2712668053868786
1.4538769721984863,-0.009476475417613983,0.0056479573249816895,-0.050769492983818054,-3.022564649581909,-0.27900341153144836,-0.4469849765300751,-1.3444153363685638,0.30591410777206635,0.29218612963082824
1.4640519618988037,-0.02254009246826172,0.006753981113433838,-0.05604057013988495,-2.816391944885254,-0.278510183095932,-0.43050745129585266,-1.3735591514682337,0.32569618269704875,0.31526189540519167
1.4742469787597656,-0.013683710247278214,0.02307981252670288,-0.04121159017086029,-2.6941401958465576,-0.27310988306999207,-0.4114246666431427,-1.400990462334962,0.35088394432419706,0.3436976681884392
1.4839770793914795,0.008461859077215195,0.005612552165985107,-0.01743011176586151,-2.4921016693115234,-0.2564462125301361,-0.37426531314849854,-1.4267404481914387,0.38409486300271156,0.38001051653363593
1.4941530227661133,0.0006103552877902985,0.009766876697540283,0.008933193981647491,-2.1496775150299072,-0.25673553347587585,-0.33738037943840027,-1.4495551927914432,0.4258107328066969,0.4246921809704459
1.5041630268096924,-0.006377033889293671,0.038879990577697754,0.0023471787571907043,-1.7262934446334839,-0.23241876065731049,-0.29524731636047363,-1.4684339715050672,0.4728652772188855,0.4745058051950906
1.5141031742095947,-0.011575482785701752,0.06886667013168335,-0.003423333168029785,-1.3648850917816162,-0.21449115872383118,-0.2141401618719101,-1.4832047018881138,0.5244183547380984,0.5285160350299822
1.5242810249328613,-0.004300028085708618,0.08759695291519165,-0.011727571487426758,-1.1232666969299316,-0.23170369863510132,-0.17723168432712555,-1.4946816466899426,0.5811337871491971,0.5876530324283353
1.5340888500213623,0.007300365716218948,0.06911003589630127,0.0038864612579345703,-1.0962855815887451,-0.21914725005626678,-0.18022187054157257,-1.5046790972793085,0.6474336308129715,0.6564303447683482
1.544100046157837,0.004604995250701904,-0.009553492069244385,0.008067190647125244,-1.1151561737060547,-0.15877819061279297,-0.2000163346529007,-1.5144797210622185,0.7373659127793601,0.7484218917634182
1.5540320873260498,-0.012079879641532898,-0.05654633045196533,0.002710580825805664,-1.069604516029358,-0.1397119015455246,-0.18433980643749237,-1.5235356857962847,0.8610673462750084,0.8737400515672017
1.564089059829712,-0.017640065401792526,-0.024505972862243652,0.009075343608856201,-0.9906085729598999,-0.16414640843868256,-0.16782741248607635,-1.5309671627778703,1.0276408122292484,1.0419839619524691
1.5742690563201904,0.003163374960422516,-0.0013710260391235352,0.001114250160753727,-0.963452935218811,-0.1467505544424057,-0.16933530569076538,-1.5366742549275143,1.2471536842152562,1.2632106345658811
1.5841538906097412,0.0062005650252103806,-0.026381194591522217,-0.009044289588928223,-0.9060943126678467,-0.15152613818645477,-0.15073125064373016,-1.539996220956152,1.520101338871513,1.5377693035579894
1.594127893447876,-0.004203146323561668,-0.025852084159851074,-0.010199070908129215,-0.8928963541984558,-0.15627624094486237,-0.16350844502449036,-1.5406576264748384,1.8186225060889412,1.8379732356126903
1.6041200160980225,-0.0097866952419281,-0.03114914894104004,-0.009079575538635254,-0.8518671989440918,-0.14559775590896606,-0.14226362109184265,-1.5387695670989852,2.099206726345524,2.1202044675797924
1.6141068935394287,-0.010275207459926605,-0.03772163391113281,-0.004876736551523209,-0.7265785932540894,-0.16735875606536865,-0.10966870933771133,-1.5350444862580932,2.309147650002742,2.331827220047912
1.6244890689849854,0.0011690743267536163,-0.004496872425079346,-0.011502981185913086,-0.510218620300293,-0.1902632713317871,-0.0863649845123291,-1.5312307749914913,2.440978319554237,2.4655459253541925
1.6343259811401367,0.01261964812874794,0.02429831027984619,-0.03170812502503395,-0.27369698882102966,-0.19205455482006073,-0.04953134059906006,-1.5285705687600375,2.5119910090637667,2.538534724650143
1.6443431377410889,0.008138647302985191,0.044418513774871826,-0.0352327823638916,-0.08218163996934891,-0.19794760644435883,0.004991821013391018,-1.5272921651363218,2.5363823313159424,2.5648841772978503
1.654127836227417,0.009557411074638367,0.05394923686981201,-0.036674026399850845,0.02037389576435089,-0.20902538299560547,-0.0062399012967944145,-1.52707769515456,2.537612115321428,2.568175792333382
1.6641550064086914,0.01149362325668335,0.01390761137008667,-0.014597538858652115,0.059693869203329086,-0.21499325335025787,0.010888485237956047,-1.5274880295806568,2.5297452576344996,2.56241005840823
1.674250841140747,0.0014361608773469925,-0.009887337684631348,0.0384974479675293,-0.016120150685310364,-0.24205270409584045,0.003439038060605526,-1.5276386989339623,2.5202756273531426,2.555209484974257
1.6845159530639648,0.013313397765159607,-0.01352691650390625,0.038418885320425034,-0.2539859712123871,-0.21790795028209686,-0.059715427458286285,-1.526770872394169,2.5420396041144055,2.5793442574490344
1.694227933883667,0.00299912691116333,-0.0735047459602356,0.03556191548705101,-0.46344634890556335,-0.20940932631492615,-0.03853365778923035,-1.5239839587149764,2.5921700584243426,2.631621911970079
1.7042009830474854,0.00014467723667621613,-0.05433768033981323,0.021134495735168457,-0.6189211010932922,-0.22730229794979095,-0.07345302402973175,-1.519582905614315,2.65340024421951,2.695152297836634
1.7152268886566162,0.01692143827676773,-0.02859419584274292,-0.007905367761850357,-0.8426027297973633,-0.18742358684539795,-0.09257782250642776,-1.5133639454025545,2.725042363902985,2.768939672053384
1.7252981662750244,0.004754949361085892,-0.044492125511169434,-0.023205161094665527,-0.912777841091156,-0.18092334270477295,-0.06783919036388397,-1.5053822177646843,2.789250386641923,2.835072810538059
1.734395980834961,0.004141293466091156,-0.007451176643371582,-0.025848515331745148,-0.7456109523773193,-0.181625097990036,-0.05318908765912056,-1.497558243156907,2.8351565314128466,2.8829089286673057
1.7443201541900635,0.01984371617436409,0.0427512526512146,-0.03503667563199997,-0.4005694091320038,-0.14951589703559875,-0.03689080849289894,-1.4921183891441698,2.8613909892479863,2.9109365362541135
1.7542459964752197,0.010084189474582672,0.07875931262969971,-0.03244864195585251,-0.014290092512965202,-0.12196988612413406,-0.01702900603413582,-1.4902338730772693,2.8697587689345663,2.920651237380962
1.764272928237915,-0.01340295560657978,0.11630117893218994,-0.0039376020431518555,0.20421694219112396,-0.1302480399608612,0.007840124890208244,-1.491311876724258,2.86652659431069,2.9187100828411694
1.7747509479522705,-0.012016691267490387,0.10686194896697998,0.03455066680908203,0.2566356360912323,-0.12735474109649658,0.03328529745340347,-1.4935744602712384,2.8522545865737845,2.9056714262972245
1.7843430042266846,0.0026836730539798737,0.0715792179107666,0.03993535786867142,0.11198736727237701,-0.13163816928863525,-0.011572987772524357,-1.4954359919690692,2.84287951944783,2.8975689128205597
1.7944259643554688,-0.009110348299145699,-0.03718674182891846,0.05056094378232956,-0.2189864218235016,-0.12373235821723938,-0.021804586052894592,-1.4950468546248783,2.8453033857759173,2.9012738417450596
1.8044679164886475,-0.02046850323677063,-0.09138739109039307,0.05914342403411865,-0.6655095219612122,-0.11185066401958466,-0.051244232803583145,-1.4909439709864654,2.864239200118849,2.9214836045459847
1.8145301342010498,-0.005957745015621185,-0.11371076107025146,0.008815892040729523,-0.9550753235816956,-0.09419107437133789,-0.13429751992225647,-1.483100688037061,2.899253254790334,2.9576034693919713
1.8246819972991943,-0.0089569091796875,-0.1503550410270691,0.011089801788330078,-0.8868014216423035,-0.12145863473415375,-0.1512482762336731,-1.4742290275542886,2.9371277236805873,2.9967598516053138
1.834535837173462,-0.019047200679779053,-0.08090615272521973,0.027543440461158752,-0.5399425029754639,-0.15009605884552002,-0.10073865950107574,-1.4672934946577125,2.961736473945806,3.022833724460767
1.8448750972747803,0.008273523300886154,0.06845402717590332,-0.04694485664367676,-0.21132811903953552,-0.17094381153583527,-0.07238344848155975,-1.4638822718938602,2.9741137718594053,3.0369445956853274
1.854518175125122,0.009844845160841942,0.10317093133926392,-0.06903216987848282,-0.0190118458122015,-0.1603807508945465,-0.056669093668460846,-1.462858767775489,2.9798728584136986,3.044407255149028
1.8645918369293213,0.0014057382941246033,0.06169408559799194,-0.05980134755373001,0.1447555124759674,-0.15356065332889557,-0.033804524689912796,-1.463599053068537,2.9814828663639594,3.04763248215765
1.8746860027313232,-0.005056615918874741,0.040666937828063965,-0.029924392700195312,0.2322605699300766,-0.128440260887146,-0.04019440710544586,-1.4656202350351817,2.980525042540513,3.0480870968779006
1.8844449520111084,-0.017716344445943832,0.026840269565582275,-0.007031455636024475,0.15784573554992676,-0.10692297667264938,-0.025767263025045395,-1.467695751243808,2.9789659100228474,3.0477006230407984
1.8944790363311768,-0.017874956130981445,0.008820712566375732,0.006749868392944336,-0.09332019835710526,-0.0626419335603714,-0.05175188556313515,-1.468131695929181,2.9815334812144845,3.0511545046443787
1.9046299457550049,-0.016041060909628868,-0.0412411093711853,0.02372264862060547,-0.20001335442066193,-0.03512721508741379,-0.07438076287508011,-1.4666313783297766,2.989224387611778,3.059345439244363
1.914505958557129,-0.016701672226190567,-0.05476248264312744,0.030030742287635803,-0.12587545812129974,-0.016364846378564835,-0.052795153111219406,-1.46505012815376,2.9977530795555754,3.06815951691017
1.9245719909667969,-0.014276142232120037,0.021099567413330078,0.02048802375793457,-0.029914576560258865,-0.02825719118118286,-0.036067306995391846,-1.464372963399632,3.002582399250525,3.0732303011245996
1.9349620342254639,-0.0016410229727625847,0.06933790445327759,0.01114441454410553,0.03559743985533714,-0.01430271565914154,-0.009111587889492512,-1.4644677181116947,3.0040636057687875,3.0749600049102517
1.944883108139038,0.0049489326775074005,0.04926818609237671,-0.005360253155231476,0.05832512304186821,6.530433893203735e-05,-0.004471828695386648,-1.4649401844593226,3.004303953270106,3.07527561934918
1.957151174545288,-0.011990012601017952,0.015045166015625,0.0038602352142333984,0.12029122561216354,0.00865426566451788,0.011177332140505314,-1.465787493511004,3.002589921379543,3.0734872742153816
1.964616060256958,-0.01910628005862236,0.002760171890258789,0.01090860366821289,0.2585178017616272,-0.00727410102263093,0.0209221038967371,-1.4675648573443636,2.999236227371136,3.0700972520735017
1.9754998683929443,-0.011799613945186138,0.0026687979698181152,0.007708922028541565,0.46847957372665405,-0.018114542588591576,0.052028838545084,-1.47118123428029,2.989838037834721,3.060813223065676
1.9846560955047607,-0.007826428860425949,0.027342140674591064,0.005234487354755402,0.49591463804244995,-0.01014050655066967,0.051693812012672424,-1.4760583078767744,2.9761652042316418,3.0472151893607564
1.9945790767669678,-0.013799142092466354,0.014555037021636963,-0.004214286804199219,0.20970280468463898,0.008616936393082142,0.045601457357406616,-1.4793418760614758,2.9650216033075063,3.0360474754735
2.0047171115875244,-0.015942925587296486,-0.07134640216827393,0.016783587634563446,-0.21498990058898926,0.0428934171795845,-0.023195981979370117,-1.47911326281371,2.964362235351716,3.0351517697204975
2.0146548748016357,-0.005679592490196228,-0.15723580121994019,0.0029867887496948242,-0.3264922797679901,0.06586438417434692,-0.023700544610619545,-1.4761373315258883,2.9736826658023503,3.0439298083508524
2.0246520042419434,-0.008431583642959595,-0.11723196506500244,-0.0005087852478027344,-0.11003216356039047,0.04582968354225159,-0.012952558696269989,-1.4739522327064452,2.9799960959384997,3.049704293467713
2.034701108932495,0.0012083174660801888,0.024447977542877197,-0.020899653434753418,0.02734791301190853,0.04562777280807495,0.02481820248067379,-1.4736158445606895,2.980679254231554,3.0499334795820277
2.0446808338165283,0.013433979824185371,0.06128084659576416,-0.02606046199798584,0.07350395619869232,0.021763186901807785,0.022862112149596214,-1.4741077851010593,2.9776487964853846,3.046557105455257
2.054732084274292,0.015823213383555412,0.020897209644317627,0.008092403411865234,0.05757218226790428,0.03729904815554619,0.03549923747777939,-1.4746757889226174,2.974029174531578,3.0426147386946973
2.064768075942993,0.010365106165409088,-0.010916531085968018,0.009397618472576141,0.08480992913246155,0.040116939693689346,0.028365693986415863,-1.4753045844457515,2.9702047585376197,3.0383900812815234
2.0747289657592773,0.005649242550134659,-0.007775723934173584,0.002384655177593231,0.12403561174869537,0.04269101470708847,0.04594612494111061,-1.4762962513374778,2.9649353629087187,3.032680654574473
2.084808111190796,0.01029936969280243,0.007459700107574463,0.001316666603088379,0.14960967004299164,0.03973730280995369,0.05606720224022865,-1.4775222026699373,2.957390124092598,3.024696513924575
2.094897985458374,0.01580665074288845,0.013716042041778564,-0.004286661744117737,0.06543967127799988,0.05907336249947548,0.04123440757393837,-1.4785061945256728,2.950673964189128,3.0174593138357833
2.1063859462738037,0.007581325247883797,-0.01570451259613037,-0.002705097198486328,-0.028040211647748947,0.06747990101575851,0.03878136724233627,-1.4785257161460927,2.9467480128907075,3.012863008125257
2.1147568225860596,-0.0004841294139623642,-0.03404265642166138,0.012644529342651367,-0.037236373871564865,0.05778101831674576,0.02451247163116932,-1.4781633138085033,2.9448989921983295,3.0103825797562282
2.1248481273651123,0.005828941240906715,-0.023167014122009277,0.01404416561126709,0.016986919566988945,0.056747447699308395,0.039413657039403915,-1.478040132413065,2.9419237395585376,3.006809462443372
2.134835958480835,0.00907367467880249,0.006569981575012207,-0.006203889846801758,0.03505731746554375,0.0603608712553978,0.041108388453722,-1.4782311373025585,2.937911526608239,3.002195455085759
2.1448681354522705,0.009490467607975006,0.009674012660980225,-0.009982585906982422,0.008908003568649292,0.04370812326669693,0.049805205315351486,-1.478325336002096,2.9328563322911876,2.996576854440084
2.1564581394195557,0.014401622116565704,-8.952617645263672e-05,0.005729325115680695,-0.019275730475783348,0.04480587691068649,0.044793348759412766,-1.4781388774853952,2.9283700583278125,2.9916469949147144
2.1648199558258057,0.011630073189735413,-0.016144990921020508,0.016952045261859894,0.023829927667975426,0.04922246187925339,0.040236946195364,-1.478009338533774,2.9246881445750983,2.987455148055981
2.1749088764190674,-0.00042210519313812256,-0.008966267108917236,0.009278535842895508,0.10899364203214645,0.03610404208302498,0.06351079046726227,-1.4785922683626442,2.9172057153862583,2.9795135646917985
2.184911012649536,0.007627410814166069,0.025806903839111328,-0.0008617565035820007,0.11423660814762115,0.03538152948021889,0.04347663000226021,-1.4796108119741844,2.908561045532246,2.9704848932671104
2.1950249671936035,0.007364656776189804,0.007465064525604248,0.0015486478805541992,0.07704080641269684,0.03488387167453766,0.03838503733277321,-1.48012215799331,2.903198890482923,2.964749202723227
2.206881046295166,-0.003989696502685547,-0.017600536346435547,0.01806391030550003,0.04801047965884209,0.020403198897838593,0.02466682717204094,-1.4802414748773094,2.899040592203691,2.960283209574977
2.2151570320129395,-0.0006983727216720581,-0.010422885417938232,0.013791322708129883,0.04395020753145218,0.018474049866199493,0.025010962039232254,-1.4806809955153892,2.8948086988903565,2.955852468079545
2.2252559661865234,0.0029453393071889877,-0.004491746425628662,0.007193796336650848,0.06393057852983475,0.020274613052606583,0.030305059626698494,-1.4812406607782223,2.8898550171620463,2.9506701333888894
2.2351059913635254,-0.0019589345902204514,0.0095672607421875,-0.004863373935222626,0.12723812460899353,0.001044503878802061,0.0317009799182415,-1.4818640229229694,2.8833721654368767,2.944059522865391
2.244997024536133,0.002307390794157982,0.019031405448913574,-0.0031555816531181335,0.19705449044704437,0.0002492843195796013,0.05064777284860611,-1.4828585708357969,2.874560833645742,2.935219672475651
2.256791830062866,0.0029064808040857315,0.021718502044677734,-0.0071027278900146484,0.24707694351673126,0.016529498621821404,0.043970271944999695,-1.484594797138663,2.863398542943698,2.923913472286112
2.265043020248413,-0.002410341054201126,0.016054630279541016,-0.020491965115070343,0.2865910232067108,0.018985198810696602,0.05057304725050926,-1.486963209923557,2.849355108993634,2.909641841477091
2.275273084640503,-0.005753872916102409,0.005198419094085693,-0.007762685418128967,0.2966408133506775,0.011968124657869339,0.04750801622867584,-1.4894540365805362,2.833233345178987,2.893300521651728
2.2849409580230713,-0.0020125210285186768,0.006493806838989258,0.00957787036895752,0.1946827620267868,0.0323900431394577,0.030326364561915398,-1.4911844309973492,2.8221253710444163,2.881940717475005
2.2952799797058105,-0.0023289285600185394,-0.016237914562225342,0.01543831080198288,0.1260526329278946,0.04273882135748863,0.013109135441482067,-1.4920996724736593,2.8158741766207496,2.875262079200724
2.307628870010376,-0.008593466132879257,-0.031201541423797607,0.02347397804260254,0.1578129529953003,0.036012209951877594,0.012359456159174442,-1.49300952002822,2.8107805046524232,2.8697467599044146
2.315192937850952,-0.003565307706594467,-0.0024686455726623535,0.022500045597553253,0.2657161056995392,0.04149530455470085,0.026274314150214195,-1.494790618252602,2.8009347867327126,2.8594860967529163
2.3252041339874268,-0.0007393881678581238,0.033619046211242676,0.015607133507728577,0.4633687436580658,0.04033283144235611,0.0698217898607254,-1.497859311867637,2.7800251051797034,2.83807705691575
2.335468053817749,0.0001703202724456787,0.07054775953292847,0.022417671978473663,0.688948392868042,0.043830983340740204,0.13267283141613007,-1.502807634937648,2.7369563826817274,2.7945068287976302
2.345201015472412,0.007425442337989807,0.12351357936859131,0.02176094800233841,0.8834031224250793,0.050869185477495193,0.25259336829185486,-1.509128184393804,2.6590272290673256,2.7159051730845234
2.3580269813537598,0.003799472004175186,0.15988242626190186,0.03479814901947975,1.119824767112732,-0.004287188872694969,0.3259565234184265,-1.5160893685159589,2.5268049879991255,2.5832193409069273
2.365128993988037,0.008599024266004562,0.15903615951538086,0.03757954016327858,1.5329049825668335,-0.021278688684105873,0.3467710018157959,-1.5237280471066648,2.305897829805277,2.362159288051542
2.3750710487365723,0.01668238639831543,0.11344772577285767,-0.008983848616480827,2.124878168106079,-0.003369729034602642,0.34153565764427185,-1.5302369468704222,1.9026138237859875,1.9586566906493568
2.38516902923584,0.01082153245806694,0.09271317720413208,-0.044351160526275635,2.587423801422119,0.046760812401771545,0.4499287009239197,-1.5272775547323054,1.328386390939785,1.383690316990556
2.3951828479766846,-0.016447316855192184,0.1029617190361023,0.009458180516958237,2.8707387447357178,0.07826095074415207,0.5006683468818665,-1.5103502877146704,0.8945686611439606,0.9487214163800345
2.406393051147461,-0.03160608559846878,0.012316226959228516,0.0649951696395874,2.990267038345337,0.1855653077363968,0.4790506362915039,-1.4856985932156845,0.6591125500358063,0.711357786291613
2.4151418209075928,-0.0522606261074543,-0.07910865545272827,0.06854426860809326,2.9760138988494873,0.20508746802806854,0.5165178179740906,-1.4581263967257003,0.533306862219017,0.5829827729056932
2.425523042678833,-0.05195603892207146,-0.08105182647705078,0.06675207614898682,2.751643657684326,0.28556767106056213,0.4279724955558777,-1.430470652251193,0.46093094589569866,0.5075748147176397
2.4351718425750732,-0.04887840151786804,-0.17804348468780518,0.07848139107227325,2.5344491004943848,0.42136150598526,0.3572657108306885,-1.404901527770767,0.41437990040341605,0.45695591343957853
2.44508695602417,-0.06828010082244873,-0.18555879592895508,0.10309790074825287,2.370238780975342,0.454428106546402,0.3771667182445526,-1.3808901616608256,0.3845408418528371,0.42212952920382224
2.4565131664276123,-0.04661594331264496,-0.10682016611099243,0.11325320601463318,2.207465410232544,0.45195508003234863,0.3763805329799652,-1.3582020718298562,0.3651670043230556,0.39773918392858953
2.4650919437408447,-0.02177663892507553,-0.09303587675094604,0.1345931887626648,2.145185708999634,0.47307130694389343,0.38113802671432495,-1.3365513197157273,0.35183135966057133,0.3793276987231906
2.4750800132751465,-0.017083697021007538,-0.0958513617515564,0.12059813737869263,2.2227821350097656,0.48385921120643616,0.41352710127830505,-1.3147060624960463,0.3418923673843113,0.36412783310680596
2.485153913497925,-0.019943222403526306,-0.05266350507736206,0.08295074105262756,2.4135825634002686,0.4916897118091583,0.44107910990715027,-1.29143889240348,0.3336458439732987,0.350521231424457
2.49518084526062,-0.0117654949426651,-0.013414919376373291,0.0386846661567688,2.706120252609253,0.5327801704406738,0.46653521060943604,-1.26578867682328,0.3254775154966478,0.33663288140235487
2.5075340270996094,-0.004456132650375366,0.017351269721984863,-0.00013870000839233398,3.1201224327087402,0.5525437593460083,0.5220341682434082,-1.236632510783564,0.3172368420152068,0.3222419701616219
2.5153870582580566,0.001222461462020874,0.05391579866409302,-0.020496249198913574,3.5361692905426025,0.5827237963676453,0.5354202389717102,-1.2031907479854744,0.30875190802827923,0.30715256599071755
2.5252301692962646,-0.0005852058529853821,0.06379508972167969,-0.013677656650543213,3.9181082248687744,0.664244532585144,0.5386480093002319,-1.1660222469854005,0.29993209155115635,0.2909319961244847
2.5353729724884033,-0.021356143057346344,0.0896918773651123,0.01898634433746338,4.3599371910095215,0.7418056726455688,0.62064528465271,-1.1247150841682227,0.2925275570526035,0.27505250386049024
2.5453920364379883,-0.0181807279586792,0.1477373242378235,0.04347023367881775,4.7930378913879395,0.7873190641403198,0.6837345361709595,-1.0788971016956428,0.2867479291864927,0.2599945154712454
2.557284116744995,-0.011032715439796448,0.17908060550689697,0.07308438420295715,5.0619964599609375,0.8011916875839233,0.6789135336875916,-1.029402290018429,0.2819030395902239,0.24526966151670726
2.5653419494628906,-0.012226611375808716,0.16018539667129517,0.09680765867233276,4.9783935546875,0.8281266689300537,0.5811238288879395,-0.9791956008034646,0.27771786258936454,0.23066982318406345
2.575333833694458,-0.024250388145446777,0.09719318151473999,0.14165407419204712,4.714001178741455,0.8741966485977173,0.5254613757133484,-0.9308781344833188,0.274965229278628,0.21685219289263896
2.585416078567505,-0.03401905298233032,0.01527494192123413,0.17851310968399048,4.392670154571533,0.9608745574951172,0.5084704160690308,-0.8856664672398185,0.27466350457906324,0.2048434519219464
2.5959229469299316,-0.0343865305185318,0.013481318950653076,0.18365633487701416,4.225280284881592,1.0250376462936401,0.534530758857727,-0.8428520747876905,0.2767676840714875,0.19454060491228964
2.606616973876953,-0.028491899371147156,0.06308203935623169,0.15916752815246582,4.206538677215576,1.0612590312957764,0.5531467795372009,-0.8008371461387311,0.2804082688425079,0.18521278963730844
2.615445852279663,-0.01375502347946167,0.10061079263687134,0.13529515266418457,4.232786178588867,1.0673391819000244,0.5628572106361389,-0.7587001843992923,0.28471909479682284,0.17615693472419613
2.6253600120544434,-0.004121556878089905,0.14280736446380615,0.12268513441085815,4.3955912590026855,1.0636757612228394,0.6141148209571838,-0.7157365007799691,0.28942165700624156,0.16732942745901716
2.635529041290283,-0.009012088179588318,0.1464788317680359,0.10825151205062866,4.506335735321045,1.0781338214874268,0.5883543491363525,-0.6712548196057013,0.29427899579392863,0.15817416564888132
2.6455729007720947,-0.026009559631347656,0.12515008449554443,0.08226925134658813,4.6088948249816895,1.1109410524368286,0.5703316926956177,-0.6258889446122843,0.299321054968513,0.14835853684813488
2.656636953353882,-0.055003970861434937,0.13048863410949707,0.08963197469711304,4.666529655456543,1.1067819595336914,0.5551871657371521,-0.5798905135643566,0.3046359496933206,0.13812860323823645
2.6654200553894043,-0.056472599506378174,0.12375348806381226,0.10947000980377197,4.705532550811768,1.0650273561477661,0.5463342666625977,-0.5334708884218936,0.3099749617944117,0.12757617050394168
2.6756670475006104,-0.033321380615234375,0.12617269158363342,0.13345736265182495,4.672117233276367,0.9772942066192627,0.5265287756919861,-0.4870659840093025,0.31499615561012834,0.11691039076561877
2.6854629516601562,-0.01938578486442566,0.12129732966423035,0.14908123016357422,4.436112880706787,0.9273942708969116,0.4433513879776001,-0.44208033247946843,0.3196429756078098,0.1061304493550327
2.695497989654541,-0.01179814338684082,0.053255289793014526,0.16109395027160645,4.006455421447754,0.9203723073005676,0.3654656410217285,-0.40059551235215435,0.3246805819916711,0.09569261459247354
2.706429958343506,-0.01195979118347168,-0.02697986364364624,0.16936707496643066,3.5037169456481934,0.9292443990707397,0.2748321294784546,-0.36395679019282146,0.3302484623080135,0.08585629397404243
2.715471029281616,-0.02823004126548767,-0.06896021962165833,0.1688685417175293,2.9876387119293213,0.9443213939666748,0.23973087966442108,-0.33240250754140716,0.33666328655196914,0.07713955667362594
2.725728988647461,-0.028729796409606934,-0.08425500988960266,0.14169925451278687,2.5004148483276367,0.9283357858657837,0.17786246538162231,-0.30587553623677555,0.34368342611939723,0.0696196334409228
2.7358009815216064,-0.004848599433898926,-0.1052236557006836,0.12051522731781006,2.1299242973327637,0.9024050831794739,0.12908320128917694,-0.28363290777361655,0.35092189635761306,0.06286705227229003
2.7488901615142822,0.012745827436447144,-0.11283931136131287,0.08510655164718628,1.8669488430023193,0.8269824981689453,0.12690819799900055,-0.26450281915807944,0.35798965836391133,0.05692819045349017
2.75919508934021,0.026476144790649414,-0.07206018269062042,0.04903745651245117,1.731362223625183,0.7539345026016235,0.12133217602968216,-0.24730275858345183,0.3645373021169146,0.05158577833133347
2.766266107559204,0.03694769740104675,-0.04483513534069061,0.026535749435424805,1.7461222410202026,0.6919459700584412,0.16561894118785858,-0.23057332111686335,0.37060433664041426,0.04649223281673527
2.7759029865264893,0.030917048454284668,-0.030456706881523132,0.00820702314376831,1.7649059295654297,0.5972135066986084,0.21789152920246124,-0.21356449203794653,0.37604247547817427,0.041795176227416686
2.7856009006500244,0.02434229850769043,0.00690951943397522,0.012999355792999268,1.821562647819519,0.5073373913764954,0.2796725928783417,-0.1959254301456989,0.38065560589315794,0.03734946895024545
2.7955758571624756,0.027056902647018433,0.02114015817642212,0.019791603088378906,1.8274173736572266,0.43797391653060913,0.3335725665092468,-0.17777758503410232,0.38459974103807754,0.033310456922753105
2.8083040714263916,0.019053876399993896,0.004890739917755127,0.029650390148162842,1.7527543306350708,0.4420520067214966,0.3505382537841797,-0.1598980357043627,0.3883478264153721,0.029693532050235647
2.8172829151153564,-0.009803950786590576,-0.04410184919834137,0.06188613176345825,1.7680583000183105,0.47874391078948975,0.42283934354782104,-0.14209849673901828,0.39251134840234725,0.026480269729495274
2.8267109394073486,-0.03535684943199158,-0.07358650118112564,0.06643873453140259,1.8331526517868042,0.4982033669948578,0.4626125693321228,-0.1238294806830422,0.3970409469309493,0.023720177354331934
2.835927963256836,-0.03977683186531067,-0.0288906991481781,0.06055724620819092,2.055424928665161,0.5014306306838989,0.4975937306880951,-0.10399872479159329,0.401762610753305,0.02050982700031256
2.8457601070404053,-0.024708092212677002,0.01316477358341217,0.0067054033279418945,2.1954638957977295,0.4101550579071045,0.47473636269569397,-0.08246393343611125,0.4059764872751816,0.016657457209415465
2.8567490577697754,0.014332592487335205,0.05282009020447731,-0.025245606899261475,2.2144157886505127,0.314759761095047,0.4004838168621063,-0.060360482797796655,0.409250268801636,0.011865424859273964
2.8658359050750732,0.04638335108757019,0.02262694016098976,-0.02495718002319336,2.040680170059204,0.2954670190811157,0.33295804262161255,-0.03930334776888357,0.41193449284284966,0.006699109097832357
2.875993013381958,0.04340320825576782,-0.02173868753015995,-0.029774367809295654,1.7491097450256348,0.3728186786174774,0.2826736569404602,-0.020549953926286318,0.41517763956198117,0.0018364727427527964
2.8858089447021484,0.011890947818756104,-0.05903952196240425,-0.035740673542022705,1.3508217334747314,0.44051146507263184,0.21829946339130402,-0.00535912129546343,0.4191998180913189,-0.002162937195302503
2.895843982696533,-0.0061408281326293945,-0.08054224401712418,-0.016390860080718994,1.0350115299224854,0.4882560670375824,0.16880269348621368,0.0062192677752719696,0.42384649117349116,-0.00525381002405387
2.906748056411743,0.004945665597915649,-0.0865793228149414,0.0011941790580749512,0.8805364966392517,0.4846919775009155,0.15791116654872894,0.015594171762519237,0.42884450011754593,-0.007719454287289804
2.9158098697662354,0.009681731462478638,-0.04223810136318207,-0.0032114386558532715,0.7675372362136841,0.4018181264400482,0.12648794054985046,0.023651556114011037,0.43331203139730984,-0.00984036880044001
2.925792932510376,0.017384856939315796,0.0054102446883916855,0.007077991962432861,0.6717899441719055,0.34902042150497437,0.09734044969081879,0.030668347662184486,0.43709009482982364,-0.011871155779165091
2.9372589588165283,0.030411869287490845,6.2175095081329346e-06,-0.0028620362281799316,0.6024249792098999,0.34056827425956726,0.08594760298728943,0.036818734523688355,0.44061569556003477,-0.013759132385631437
2.9459168910980225,0.0262300968170166,-0.0018909387290477753,-0.03403282165527344,0.4937956631183624,0.3117944300174713,0.08197576552629471,0.04217368539437149,0.44394408178304434,-0.015353911804293179
2.95729398727417,0.02077317237854004,0.0010336153209209442,-0.05357766151428223,0.41449448466300964,0.315278023481369,0.07521506398916245,0.046567419901188595,0.44711149929035093,-0.016584969755362583
2.965894937515259,0.02589362859725952,-0.012682724744081497,-0.05530095100402832,0.35264843702316284,0.28548842668533325,0.08423838764429092,0.050403187350553866,0.45020931934444,-0.01755168832784979
2.9757840633392334,0.0234563946723938,-0.002665530890226364,-0.06021463871002197,0.2847146689891815,0.23218460381031036,0.09487707912921906,0.053680438548536054,0.45283464849294247,-0.018136739015063085
2.9858410358428955,0.02420961856842041,0.020360711961984634,-0.041177451610565186,0.17915362119674683,0.1959695965051651,0.08752382546663284,0.05618739452119262,0.4549701521262894,-0.01834236470512327
2.9967429637908936,0.024775296449661255,0.003437768667936325,-0.0331035852432251,0.043761156499385834,0.16285891830921173,0.0885082334280014,0.057607809404162214,0.45674482665015176,-0.018054020765996718
3.0070149898529053,0.013906627893447876,-0.02070559561252594,-0.02522486448287964,-0.11578375846147537,0.14338082075119019,0.07327308505773544,0.05764970307917555,0.4582160008692208,-0.01716099188712837
3.0159051418304443,0.00817406177520752,-0.04547533020377159,-0.020014464855194092,-0.26504355669021606,0.11043056100606918,0.06386829167604446,0.056238875708196134,0.4594324607965251,-0.01570189168885662
3.025869131088257,0.007719755172729492,-0.05425862967967987,-0.016238510608673096,-0.4088720977306366,0.05232624337077141,0.047077860683202744,0.05346338090244674,0.46013758098452373,-0.01369004516146547
3.0360209941864014,0.014319181442260742,-0.04374346509575844,-0.009532272815704346,-0.5160313844680786,0.027247125282883644,0.03170503303408623,0.04943156533781305,0.4603671655489374,-0.011260343196964551
3.0461020469665527,0.017096877098083496,-0.040832191705703735,-0.010710358619689941,-0.525646984577179,0.02980802021920681,0.04002714157104492,0.04487622495108095,0.4605327124368271,-0.008607375438300216
3.0568130016326904,0.004004418849945068,-0.02800028771162033,-0.02899414300918579,-0.4957188665866852,0.008062954992055893,0.053547535091638565,0.04047695022426539,0.460610481667101,-0.00589563803866755
3.0659611225128174,-0.0063669681549072266,0.0005540251731872559,-0.03614330291748047,-0.41972848773002625,-0.0192168690264225,0.06690914183855057,0.03663400288235972,0.46048066416490124,-0.00331776498627425
3.075908899307251,-0.0005112290382385254,0.011722482740879059,-0.03590887784957886,-0.35400107502937317,-0.04508228600025177,0.07591526210308075,0.03348777675020469,0.4600721270225776,-0.0009628016793232103
3.086005926132202,-0.003896951675415039,0.016777046024799347,-0.03003370761871338,-0.3097124397754669,-0.057865992188453674,0.07600793987512589,0.030881082128163876,0.45948349636257263,0.0011776200231398957
3.096134901046753,-0.01094016432762146,0.009425586089491844,-0.014610648155212402,-0.30837392807006836,-0.0563075989484787,0.07648251950740814,0.028457131422053063,0.4588448248653389,0.003231382520673412
3.1068949699401855,-0.019954770803451538,-0.000349927693605423,-0.002932310104370117,-0.3207959830760956,-0.046169478446245193,0.07376635819673538,0.025974412745852857,0.458280004797814,0.005298449159617106
3.11604905128479,-0.02853870391845703,-0.0034254509955644608,0.006494283676147461,-0.3319651782512665,-0.03840117156505585,0.058088596910238266,0.02334058666636303,0.45779798969816177,0.0073407964529557095
3.1260199546813965,-0.028272151947021484,-0.0061710551381111145,0.01483088731765747,-0.3058145344257355,-0.03035442903637886,0.052981186658144,0.020685891459699332,0.45742094231484565,0.009253353207562964
3.1362409591674805,-0.02764996886253357,-0.002964843064546585,0.01665419340133667,-0.25758102536201477,-0.045576613396406174,0.04462818056344986,0.018383233812743698,0.45701144666893895,0.010951032212004223
3.146207094192505,-0.02546641230583191,0.008362004533410072,0.016840577125549316,-0.2058669626712799,-0.06265200674533844,0.03301946073770523,0.016465163796382652,0.45644916995783863,0.012325199610470598
3.156816005706787,-0.019733399152755737,0.018094630911946297,0.017423510551452637,-0.16460686922073364,-0.07900949567556381,0.028530916199088097,0.014951872879956259,0.4557283440028287,0.01341853096416092
3.1661109924316406,-0.010712862014770508,0.018286405131220818,0.009717345237731934,-0.16106939315795898,-0.08784560114145279,0.014900856651365757,0.013602379060922829,0.45486648442059463,0.014316827228848658
3.176072835922241,-0.011309921741485596,0.010604632087051868,0.008408963680267334,-0.17657911777496338,-0.07500330358743668,0.0034228989388793707,0.012130814781670132,0.4540272268699354,0.015142137068749185
3.1860909461975098,-0.015069544315338135,-0.0006246762350201607,0.009601950645446777,-0.1947629153728485,-0.06361589580774307,-0.00602040346711874,0.010453395952257659,0.45332850316989726,0.015935892391066325
3.1961679458618164,-0.017954915761947632,-0.007490695454180241,0.010429561138153076,-0.2092256247997284,-0.06786900013685226,-0.022990651428699493,0.0085769104474027,0.4526595970442855,0.016692579016167206
3.2072219848632812,-0.014366507530212402,-0.011322044767439365,0.013689756393432617,-0.20894412696361542,-0.06245586648583412,-0.02927997335791588,0.006561309682068846,0.4520046085755872,0.01737419750742829
3.216125965118408,-0.009158164262771606,-0.007372891530394554,0.007996797561645508,-0.19293689727783203,-0.06577695906162262,-0.033117108047008514,0.004605278759734239,0.4513661227830514,0.0179744685377956
3.2261619567871094,-0.005152016878128052,-0.0010030753910541534,-0.0006763935089111328,-0.15540282428264618,-0.07428628951311111,-0.03406785801053047,0.002872654409577909,0.4506585941673736,0.018431135393451422
3.236211061477661,-0.002556443214416504,0.000879187835380435,-0.0013025403022766113,-0.11737150698900223,-0.08325133472681046,-0.029970742762088776,0.0013827329297194319,0.4498248643052392,0.01873050986812178
3.2466909885406494,-0.00012737512588500977,0.004194432869553566,-0.0033051371574401855,-0.09044215828180313,-0.08955397456884384,-0.023999670520424843,0.00022714837655827576,0.4489571900983997,0.01891998385884305
3.2570199966430664,0.0019442439079284668,0.005795596167445183,-0.006533563137054443,-0.06920041143894196,-0.07967257499694824,-0.017707526683807373,-0.0005673144753067713,0.4480976015183763,0.019074289444619457
3.266218900680542,0.002941995859146118,0.0004471451393328607,-0.00994032621383667,-0.05762764438986778,-0.07519660145044327,-0.010038155131042004,-0.0009566667225886042,0.44729558912483075,0.019224035173391225
3.27643084526062,0.0006300508975982666,-0.005897133611142635,-0.008844971656799316,-0.06031707301735878,-0.06972700357437134,-0.004768398590385914,-0.0011211364084132058,0.44652607035335506,0.0194086538991697
3.2862160205841064,0.0003064572811126709,-0.010253923013806343,-0.004412293434143066,-0.0661587193608284,-0.06667821109294891,-0.005779334343969822,-0.0012664962411498934,0.4458361432436686,0.019633400466749166
3.296257972717285,0.0027278661727905273,-0.015605714172124863,0.00043082237243652344,-0.06479118764400482,-0.07298839837312698,-0.00499801617115736,-0.0015676277610749169,0.44514833124443615,0.019855209641725106
3.309282064437866,0.004030197858810425,-0.020791346207261086,0.009297192096710205,-0.07580175995826721,-0.07578019052743912,-0.006938395090401173,-0.002114593585202279,0.4443991541183094,0.0201035426587114
3.316946029663086,0.003878384828567505,-0.020873166620731354,0.018077373504638672,-0.06997436285018921,-0.0666947290301323,-0.004798172507435083,-0.002745724638583446,0.4437062177857084,0.020361468080258835
3.326611042022705,0.005380123853683472,-0.01806299202144146,0.010191023349761963,-0.05922078341245651,-0.0638296976685524,-0.0037174616008996964,-0.003368777982647208,0.4430919228076176,0.02059497110361289
3.3365328311920166,0.003299504518508911,-0.014323748648166656,0.005480289459228516,-0.04378305375576019,-0.06058921292424202,-0.011272263713181019,-0.00393252536570227,0.4425078295530292,0.020745577507111864
3.346450090408325,0.004043519496917725,-0.013971678912639618,0.008820116519927979,-0.030382558703422546,-0.055734001100063324,-0.01744254305958748,-0.004282362264155963,0.4419385787586059,0.020771199211010095
3.3569529056549072,0.0026286840438842773,-0.012553103268146515,0.013043761253356934,-0.01978614181280136,-0.04195764660835266,-0.021081753075122833,-0.004420183063302174,0.44144466912846814,0.02070618955846582
3.3663599491119385,-0.0030635595321655273,-0.007521159015595913,0.014981389045715332,-0.0006257630884647369,-0.027547813951969147,-0.018493957817554474,-0.004316830955545409,0.441124630532569,0.020575737795959823
3.3763539791107178,-0.008280187845230103,-0.005727161653339863,0.014605283737182617,0.010921253822743893,-0.01849142462015152,-0.022495409473776817,-0.0039876742098956496,0.4409362739355449,0.020377611350986223
3.3863790035247803,-0.008040577173233032,-0.006381012499332428,0.015671491622924805,0.0207496490329504,-0.008072605356574059,-0.025246189907193184,-0.0035123696344353406,0.44087297847296164,0.020102124231753903
3.39640212059021,-0.0034347176551818848,-0.006868260912597179,0.012516617774963379,0.03959735855460167,0.005205782130360603,-0.023008495569229126,-0.0029009756840386127,0.4409757839924644,0.019753832643151063
3.407665967941284,-0.0028243660926818848,-0.004532276652753353,0.007555544376373291,0.04346639662981033,0.0076202042400836945,-0.022101422771811485,-0.002273975545335714,0.4411268896079718,0.019370938226431156
3.4164249897003174,-0.002420395612716675,-0.011561433784663677,0.007806658744812012,0.03161301463842392,0.0031697514932602644,-0.03176960349082947,-0.0018110736010315464,0.4412197099153216,0.018964194836459964
3.426584005355835,0.0039328932762146,-0.01775483414530754,0.00903230905532837,0.01988099329173565,-0.0036735073663294315,-0.02924359403550625,-0.0015042171191215522,0.4412806977739658,0.018581500236391768
3.4365499019622803,0.009668409824371338,-0.0103535121306777,0.006138980388641357,0.01084601879119873,-0.02046917751431465,-0.025326190516352654,-0.0012897964743078742,0.44123192764998187,0.018279007863966888
3.446638822555542,0.012672662734985352,-0.006539336405694485,0.005635857582092285,-0.005122294183820486,-0.03368138521909714,-0.033097829669713974,-0.0013055641774755984,0.44098073564054835,0.018009688760874012
3.456958055496216,0.014008432626724243,-0.01186939887702465,0.012755870819091797,-0.00844352226704359,-0.042004916816949844,-0.02791030891239643,-0.0014476423884499556,0.44060054450619385,0.017764995842487592
3.4664838314056396,0.012040138244628906,-0.008717457763850689,0.011889874935150146,-0.0013307518092915416,-0.04462467133998871,-0.02315923012793064,-0.0015305734058487354,0.4401619422076287,0.017563136105383556
3.476483106613159,0.01149129867553711,-0.0032710698433220387,0.0008931756019592285,0.007744235452264547,-0.04102798178792,-0.01753351464867592,-0.001485792070068136,0.4397565997810308,0.017361413280502606
3.4864509105682373,0.00969114899635315,-0.0005246491637080908,-0.009417057037353516,0.01878889836370945,-0.04471619054675102,-0.01425995770841837,-0.0013638784628080115,0.4393514281581973,0.017156332137478435
3.496782064437866,0.011145293712615967,0.00018672540318220854,-0.012432515621185303,0.019897188991308212,-0.048158641904592514,-0.007924297824501991,-0.0010492292247195594,0.43890787727972524,0.016973008379071584
3.5078790187835693,0.008691161870956421,0.0020446565467864275,-0.0013104677200317383,0.00677925581112504,-0.044004641473293304,-0.0041042594239115715,-0.0006561553783650182,0.43851726675061997,0.016860053217664667
3.5165441036224365,0.0027056336402893066,0.0027672003488987684,0.006935060024261475,-0.006770724430680275,-0.02854743041098118,-0.003663452807813883,-0.0005134365220932988,0.43825211422509414,0.016833363697210734
3.526481866836548,0.0007634162902832031,-0.0024007996544241905,0.01279670000076294,-0.015370870009064674,-0.018644200637936592,-0.003979037515819073,-0.0005392333745948043,0.4381389430606751,0.016851388504993833
3.536620855331421,-0.0013682544231414795,-0.0019283711444586515,0.013468325138092041,-0.014069981873035431,-0.02533317543566227,-0.005366331432014704,-0.0005092983090575818,0.4380664960874563,0.01686848971713121
3.5466058254241943,0.0003215670585632324,0.001177540747448802,0.017825603485107422,-0.019803235307335854,-0.030616087839007378,-0.011850063689053059,-0.0005772217559063377,0.4379023689523091,0.016858687657340006
3.558655023574829,0.001974433660507202,-0.007585889659821987,0.023269295692443848,-0.025189612060785294,-0.024808265268802643,-0.015445809811353683,-0.0008109930508194069,0.43769484010446563,0.016819372939606118
3.566425085067749,0.0010883212089538574,-0.009950023144483566,0.02460634708404541,-0.02361408621072769,-0.016444874927401543,-0.008610274642705917,-0.001084666128092195,0.4375277088591784,0.0167977264916511
3.576625108718872,-0.0006852149963378906,-0.00040060689207166433,0.019008636474609375,-0.015198679640889168,-0.014624382369220257,-0.0021770894527435303,-0.0012856110305132225,0.43741381386423944,0.016829157042739046
3.5864861011505127,0.0011699199676513672,0.004094415809959173,0.016881585121154785,-0.004632322583347559,-0.017589546740055084,0.003251231973990798,-0.0013987411722530124,0.4373198661266043,0.016872756792642586
3.596681833267212,0.004004418849945068,0.001962842885404825,0.016585886478424072,-0.003850584849715233,-0.01588769629597664,0.008291317149996758,-0.00143986851052025,0.43718919010517293,0.016931161389446617
3.606804132461548,0.003732830286026001,-0.0014858990907669067,0.01826488971710205,-0.006324129179120064,0.0021096800919622183,0.01714526116847992,-0.001394350416936265,0.43715207596903033,0.017071788317894517
3.616637945175171,0.0027824044227600098,-0.0019454783760011196,0.013949692249298096,-0.0009255518671125174,0.021204765886068344,0.030923552811145782,-0.0012893564994865755,0.4373253005418778,0.017303061373472886
3.626595973968506,0.0003199577331542969,-0.0015479952562600374,0.008843421936035156,0.0025376228149980307,0.018159708008170128,0.03940252587199211,-0.0011360056498470707,0.4376010746106748,0.01762256618182233
3.6366770267486572,0.004320085048675537,-0.0020981025882065296,0.010329842567443848,0.006316398270428181,0.0006258552893996239,0.041252780705690384,-0.0008163710093277075,0.43776684626842377,0.017971765404206873
3.646653890609741,0.013211637735366821,-0.004995918367058039,0.020139455795288086,0.013370047323405743,-0.01188008300960064,0.0460619181394577,-0.0004030245679245991,0.4377715350995594,0.018322967119089924
3.6575169563293457,0.014737337827682495,-3.1763556762598455e-05,0.023325622081756592,0.005990910343825817,-0.012967495247721672,0.0528019517660141,-0.0001080642702406178,0.43767058098430595,0.018728937454619347
3.666779041290283,0.009867042303085327,-0.00044820542098023,0.016998112201690674,-0.015672307461500168,-0.005882688798010349,0.05654902011156082,2.4811177774768874e-05,0.4376230645596617,0.019241926326878527
3.6778340339660645,0.010591596364974976,-0.010221246629953384,0.006090521812438965,-0.017929619178175926,-0.014811868779361248,0.05814222991466522,6.318424840721413e-05,0.43758121721877513,0.019843204069892817
3.686795949935913,0.015113204717636108,-0.008970648981630802,-0.001419365406036377,-0.0170502420514822,-0.03226063400506973,0.059118542820215225,0.00015410920082064203,0.43740726592963647,0.020443422469565636
3.6967010498046875,0.01773732900619507,-0.0018776430515572429,0.00430065393447876,-0.0146397165954113,-0.04078381136059761,0.06650657951831818,0.00028911275291113606,0.43708767283155386,0.02107009888501969
3.7069060802459717,0.015053719282150269,-3.428835771046579e-05,0.007823348045349121,-0.02035432681441307,-0.03646070510149002,0.07226859033107758,0.00042346964411385486,0.4367318942882397,0.021781374151968562
3.716779947280884,0.009631812572479248,-0.00529139069840312,0.005278825759887695,-0.028431078419089317,-0.03442014381289482,0.07225202769041061,0.0005222065617117693,0.43643439505301257,0.022540737675261234
3.7267239093780518,0.004987150430679321,-0.009535572491586208,0.005163013935089111,-0.046898238360881805,-0.03248722106218338,0.07703639566898346,0.0005504867959987164,0.4362389677301228,0.023379219320234616
3.7368738651275635,0.008187979459762573,-0.012959066778421402,0.003522515296936035,-0.05502498894929886,-0.036876510828733444,0.07926195114850998,0.00040762898245402953,0.43604082622152657,0.02430760178493403
3.747097969055176,0.010437995195388794,-0.007580747827887535,0.003494083881378174,-0.04923740774393082,-0.04413735494017601,0.08574967831373215,0.00027753233953173003,0.43574691548600175,0.025276504724025744
3.756863832473755,0.008659660816192627,-0.005340897012501955,0.009062230587005615,-0.04110865667462349,-0.049024567008018494,0.0888441652059555,0.00036588652953925815,0.43535219133900127,0.026265503100383954
3.7669589519500732,0.0046066343784332275,-0.0054725888185203075,0.012043774127960205,-0.032838743180036545,-0.04515073075890541,0.08750832080841064,0.0005241201161099724,0.43497559958136767,0.02722898927216031
3.777622938156128,0.0009414255619049072,-0.003167364513501525,0.009476065635681152,-0.015520057640969753,-0.04069202393293381,0.09085969626903534,0.000693111866097983,0.434659412197323,0.028151099705717813
3.7873408794403076,-0.002511322498321533,-0.002897360362112522,0.010204613208770752,-0.005881012417376041,-0.03697105497121811,0.0931396335363388,0.0009783697303775765,0.4343782054761194,0.029035374004493193
3.801360845565796,-0.0065337419509887695,-0.0024554908741265535,0.010587573051452637,-0.0015582358464598656,-0.029129907488822937,0.08860123157501221,0.0013897304785400028,0.4341196824671177,0.02987532947150327
3.8144240379333496,-0.010102123022079468,-0.0028611670713871717,0.009138524532318115,-0.0003038868308067322,-0.025044886395335197,0.08519398421049118,0.0018690528947035406,0.43389900249068697,0.030665829601433266
3.8216540813446045,-0.009964197874069214,-0.002789556747302413,0.008338689804077148,-0.00423040147870779,-0.02147585153579712,0.0779714360833168,0.002337398617900882,0.43373060854715356,0.03141113968921819
3.828234910964966,-0.009881258010864258,-0.002162642078474164,0.007946550846099854,-0.0011874736519530416,-0.02473156712949276,0.07235483080148697,0.0027049150456291316,0.433572391731127,0.03211007388292001
3.8419430255889893,-0.009754657745361328,-0.0013771955855190754,0.005774199962615967,-0.00787134189158678,-0.03240271285176277,0.0636887401342392,0.0029868160703694605,0.4333660220368156,0.03274900163702506
3.8484160900115967,-0.006491541862487793,0.0015759477391839027,0.004154086112976074,-0.016236597672104836,-0.02901330590248108,0.05948840454220772,0.0031781301283427183,0.43311662095218295,0.033363240690696475
3.8570590019226074,-0.006889671087265015,-0.00010019517503678799,0.001413881778717041,-0.023065008223056793,-0.024097999557852745,0.05398881807923317,0.0032414835283355544,0.43288289567905225,0.03395870429689022
3.867176055908203,-0.006821721792221069,-0.0025705716107040644,-0.003785073757171631,-0.016697656363248825,-0.020234819501638412,0.05079728737473488,0.003288804391764216,0.43269043453162914,0.03450952137342704
3.876927137374878,-0.007380843162536621,-0.0029385786037892103,-0.004880368709564209,-0.011559437960386276,-0.01862959749996662,0.05271385610103607,0.003378559757054104,0.4324997232712078,0.035028200131438564
3.8869240283966064,-0.008092284202575684,0.0006655636243522167,-0.002054274082183838,-0.002675931202247739,-0.01423245295882225,0.05364809185266495,0.00354947628038295,0.4323088087065443,0.03553597904032451
3.8971989154815674,-0.0063118040561676025,-0.0014380956999957561,-0.001819312572479248,0.006115812808275223,-0.013350991532206535,0.053803835064172745,0.0038109412914262234,0.4321464733595372,0.03601843093732538
3.907212972640991,-0.00512281060218811,-0.0017033321782946587,-0.0013623237609863281,0.005791706033051014,-0.018878115341067314,0.05472608655691147,0.004110280911377343,0.43196354383067254,0.03649328333465392
