timestamp,accel_x,accel_y,accel_z,rotation_x,rotation_y,rotation_z, pitch,roll,yaw
0.0449681282043457,-0.09306076169013977,-0.013638213276863098,-0.012704193592071533,-0.01084292121231556,0.00425668153911829,0.011005350388586521,-0.1408274994000671,0.4804739044463315,0.034551896495379195
0.057581186294555664,-0.0964098870754242,-0.02125057578086853,-0.008054554462432861,-0.030187059193849564,0.014727964997291565,0.009095065295696259,-0.14096440820704084,0.48057941720851244,0.03473056613834087
0.06957530975341797,-0.09811463952064514,-0.026209741830825806,-0.006762385368347168,-0.03926778584718704,0.024088755249977112,0.010828517377376556,-0.14122646880161605,0.480785212343324,0.03498244170779132
0.077423095703125,-0.09806960821151733,-0.02206595242023468,-0.00871509313583374,-0.040850237011909485,0.0276922769844532,0.014705014415085316,-0.14152597898158692,0.48106907329203247,0.03527610821486972
0.07931113243103027,-0.09431737661361694,-0.017018377780914307,-0.012909650802612305,-0.03280637785792351,0.0330088809132576,0.019599052146077156,-0.14176028804448584,0.48140112725616374,0.0355926861352242
0.08557820320129395,-0.09483841061592102,-0.012729838490486145,-0.017947137355804443,-0.03480720892548561,0.037554893642663956,0.02203238196671009,-0.14195984693286284,0.4817838201355296,0.035931423806955534
0.0923311710357666,-0.09473204612731934,-0.009185299277305603,-0.025186240673065186,-0.0381709486246109,0.040151920169591904,0.019930988550186157,-0.14218650526186336,0.4822013752674559,0.03628656206819613
0.10077619552612305,-0.09032955765724182,-0.007827728986740112,-0.02840179204940796,-0.043669573962688446,0.041367918252944946,0.016064077615737915,-0.1424644395059442,0.48264817069367916,0.03664057132735068
0.11067914962768555,-0.08983144164085388,-0.007101878523826599,-0.03189116716384888,-0.049783844500780106,0.037892453372478485,0.004965514410287142,-0.1428410272598009,0.4830655991656724,0.03695983962184278
0.12078118324279785,-0.08799183368682861,-0.00495089590549469,-0.03098505735397339,-0.05479751154780388,0.03604767844080925,-0.002816774882376194,-0.14330404583750236,0.48345652011344636,0.03721580603876727
0.13065099716186523,-0.08466553688049316,-0.0016871392726898193,-0.03571319580078125,-0.05451862886548042,0.03406872600317001,-0.007824422791600227,-0.14381446708272247,0.4838088398698264,0.03742639836136504
0.1406559944152832,-0.08233484625816345,0.00647890567779541,-0.04437530040740967,-0.034605640918016434,0.03646024689078331,-0.009004736319184303,-0.14424355239862838,0.4841769956595972,0.03756839145881658
0.15083718299865723,-0.08109626173973083,0.009728550910949707,-0.0500035285949707,-0.01107401680201292,0.031877923756837845,-0.008129354566335678,-0.1444753273385606,0.48450531891329646,0.037597678448728696
0.16109228134155273,-0.07964295148849487,0.014695629477500916,-0.05489403009414673,0.003792813280597329,0.0273904949426651,-0.01244633924216032,-0.14454437234527728,0.4847677720934522,0.03751953173627359
0.1712801456451416,-0.07517170906066895,0.01615642011165619,-0.055019259452819824,0.004210347309708595,0.025905119255185127,-0.019706595689058304,-0.14457929912596498,0.48499654824796706,0.03734775981672664
0.1825113296508789,-0.07936602830886841,0.006031855940818787,-0.05357176065444946,-0.006286502815783024,0.02548966556787491,-0.030967239290475845,-0.14471071088287235,0.48519623097169995,0.037122263533973354
0.19194722175598145,-0.07872998714447021,-0.0022938549518585205,-0.0513690710067749,-0.011444246396422386,0.020459752529859543,-0.033308692276477814,-0.14478218675370247,0.48334292177116805,0.03658195940241788
0.2011432647705078,-0.07472896575927734,-0.003762170672416687,-0.05007892847061157,0.00012425892055034637,0.009873688220977783,-0.03766109421849251,-0.14487821662567024,0.4815362814839198,0.03601960149959361
0.2110590934753418,-0.07356569170951843,-0.004533067345619202,-0.04868656396865845,0.010109048336744308,0.003269314533099532,-0.03462152183055878,-0.1449325231225837,0.4797450304242682,0.035404182845606515
0.22077226638793945,-0.07399702072143555,-0.00760360062122345,-0.045324862003326416,0.01613871194422245,0.002218697452917695,-0.030155668035149574,-0.1450285895305901,0.4779673537519147,0.03479088829939178
0.2310352325439453,-0.07348600029945374,-0.011302664875984192,-0.044182658195495605,0.01394315343350172,0.003200383158400655,-0.02158108912408352,-0.14512762190808232,0.47626512018904965,0.03424756297044408
0.24100518226623535,-0.07377052307128906,-0.01579427719116211,-0.042663633823394775,0.014343160204589367,0.0033425958827137947,-0.019016465172171593,-0.1452720043574337,0.47462210910014296,0.03375565125963669
0.2511630058288574,-0.07394260168075562,-0.0199764221906662,-0.03497809171676636,0.010540414601564407,-0.0020186579786241055,-0.015941685065627098,-0.14544288658849372,0.47309725720525003,0.0333258642287949
0.26135921478271484,-0.07404622435569763,-0.022158071398735046,-0.029193639755249023,0.0067496709525585175,-0.004922835156321526,-0.009743976406753063,-0.1454425269628692,0.4715350184059649,0.03295516362274248
0.2717132568359375,-0.07106974720954895,-0.02156834304332733,-0.027719855308532715,0.00239079212769866,-0.007473566569387913,-0.006859933026134968,-0.1453245573345083,0.46998503406440245,0.03264150230856307
0.284257173538208,-0.06817379593849182,-0.022215187549591064,-0.028464138507843018,0.005239309277385473,-0.009240573272109032,0.0022344961762428284,-0.14516096981251328,0.46852419099653947,0.032401803438784495
0.2911341190338135,-0.06565746665000916,-0.021785438060760498,-0.027639806270599365,0.01091512106359005,-0.013589827343821526,0.011545599438250065,-0.1449117270849989,0.46709066742026173,0.032231703593117424
0.3011951446533203,-0.0638558566570282,-0.01664024591445923,-0.02746272087097168,0.013224348425865173,-0.019914034754037857,0.01775396056473255,-0.14455404570578448,0.46563031965611024,0.03212390574947711
0.31113433837890625,-0.061832696199417114,-0.014587268233299255,-0.028784096240997314,0.00921560823917389,-0.023226343095302582,0.020421169698238373,-0.14412935120104486,0.46415745581608425,0.032059465449700966
0.32114410400390625,-0.0615500807762146,-0.016169875860214233,-0.0255621075630188,-0.0028466470539569855,-0.025386430323123932,0.022166339680552483,-0.14370870023270413,0.46268739776783885,0.03206236646267274
0.33341217041015625,-0.0627700686454773,-0.014712810516357422,-0.023756861686706543,-0.008683896623551846,-0.026856228709220886,0.023204758763313293,-0.14333112576786144,0.4612643751217813,0.03212906678270208
0.3412790298461914,-0.061103105545043945,-0.012962475419044495,-0.02237910032272339,-0.00892704352736473,-0.03168933466076851,0.02505325898528099,-0.1429501895681973,0.45987334564170534,0.03222745793936277
0.3518199920654297,-0.05985644459724426,-0.008897572755813599,-0.021613478660583496,-0.010678937658667564,-0.03395151346921921,0.02540000155568123,-0.14258949509253227,0.45851145959309875,0.032349021357600566
0.3611750602722168,-0.05847319960594177,-0.005136236548423767,-0.0191306471824646,-0.01575731858611107,-0.03438800573348999,0.020734677091240883,-0.14225803422476413,0.4571879643413844,0.032474179908419915
0.37124109268188477,-0.05922466516494751,-0.005641132593154907,-0.015675127506256104,-0.027834538370370865,-0.029062170535326004,0.017088541761040688,-0.14204360747990183,0.4559406744631348,0.03260648670274082
0.38321733474731445,-0.061575084924697876,-0.005427688360214233,-0.014239192008972168,-0.032058313488960266,-0.02284129336476326,0.014080769382417202,-0.1420129579921373,0.4547892730487041,0.032740583926533215
0.39117908477783203,-0.061328500509262085,-0.0019748955965042114,-0.013467729091644287,-0.023984987288713455,-0.017586566507816315,0.010282195173203945,-0.1419932068471293,0.4537216249012122,0.03284060626082415
0.4013361930847168,-0.05822756886482239,0.001221776008605957,-0.01663076877593994,-0.011720865964889526,-0.015726082026958466,0.010214018635451794,-0.14186222644295782,0.4527143000387203,0.03289171233852037
0.4112410545349121,-0.054274559020996094,0.007702648639678955,-0.020678699016571045,-0.0019313517259433866,-0.017788255587220192,0.006356110796332359,-0.14166599918334588,0.4516885611842787,0.03287436447193198
0.42130231857299805,-0.05209755897521973,0.006538987159729004,-0.018298983573913574,-0.0014503848506137729,-0.015568776056170464,-0.0003065857454203069,-0.14146967707522554,0.4506872883765162,0.032783113299120065
0.43375205993652344,-0.055367499589920044,0.0001580268144607544,-0.01386106014251709,-0.007738624233752489,-0.014893799088895321,-0.001439068466424942,-0.14138001434771524,0.449727577644166,0.03268468964263959
0.44124317169189453,-0.056497037410736084,-0.002766638994216919,-0.01476740837097168,-0.010515768080949783,-0.017603032290935516,-0.007809349335730076,-0.14142117079290537,0.44880684994496717,0.032569179256594895
0.4510951042175293,-0.05338481068611145,-0.004164651036262512,-0.01621115207672119,-0.011025314219295979,-0.01529757771641016,-0.00846177153289318,-0.14147697655906472,0.4478877844865237,0.03243917167953904
0.4613380432128906,-0.053649723529815674,-0.004821658134460449,-0.016191959381103516,-0.008542449213564396,-0.01548346783965826,-0.0055216411128640175,-0.14152410364144455,0.4469740249128374,0.032316270047945635
0.47124433517456055,-0.055993735790252686,-0.0063594430685043335,-0.015271484851837158,-0.007288583088666201,-0.012737260200083256,-0.003570236498489976,-0.14159777816135738,0.44608388926561054,0.03221393573980935
0.4824342727661133,-0.05559781193733215,-0.006227120757102966,-0.014644920825958252,-0.004634477198123932,-0.006052992306649685,0.0007723139133304358,-0.14167989471381504,0.4452704605387103,0.03213295948969726
0.4912543296813965,-0.05685284733772278,-0.006341561675071716,-0.016743481159210205,0.002521919785067439,-0.010004634037613869,0.005489411298185587,-0.14176466677748822,0.44451209026181604,0.03207866905310955
0.5014841556549072,-0.05650925636291504,-0.00801055133342743,-0.017056405544281006,0.004622621461749077,-0.012147413566708565,0.005230552051216364,-0.14178591608733218,0.4437706851965659,0.032019987079220734
0.5120501518249512,-0.053218454122543335,-0.006385624408721924,-0.01564657688140869,0.00277753290720284,-0.014827040955424309,0.008098137564957142,-0.14171669614901883,0.44298683586326926,0.03197162820174075
0.5220742225646973,-0.052397698163986206,-0.0058088600635528564,-0.015421926975250244,-0.006844201125204563,-0.019312603399157524,0.00604057963937521,-0.14165815398973058,0.44215067828726784,0.03195364583250779
0.5328772068023682,-0.050698548555374146,-0.01068851351737976,-0.015476465225219727,-0.021123787388205528,-0.020113816484808922,0.0044084875844419,-0.1417012003396407,0.4413291295535546,0.03195986094792627
0.541450023651123,-0.04996299743652344,-0.0122222900390625,-0.0155409574508667,-0.030665894970297813,-0.018047470599412918,0.006125960499048233,-0.14184789080830537,0.44053446829259874,0.032025116647280014
0.5513730049133301,-0.04876524209976196,-0.00967775285243988,-0.018374204635620117,-0.027265803888440132,-0.02778487652540207,0.007747026160359383,-0.1419903320965237,0.43968375068283344,0.03211962719109299
0.5615301132202148,-0.04563188552856445,-0.006026998162269592,-0.01727890968322754,-0.027407484129071236,-0.03483692556619644,0.010063444264233112,-0.14210970079398633,0.43874915940011133,0.03222357020835346
0.5714020729064941,-0.04476127028465271,-0.004902675747871399,-0.013343751430511475,-0.03433379903435707,-0.034615349024534225,0.010090128518640995,-0.1422378899167419,0.4377694450627841,0.032349285991705085
0.5832781791687012,-0.04507419466972351,-0.005744442343711853,-0.01151585578918457,-0.04389241710305214,-0.035583674907684326,0.00523358816280961,-0.1424408458234495,0.43680478427566893,0.03249910013811706
0.5921850204467773,-0.045643359422683716,-0.007671147584915161,-0.012042045593261719,-0.05593816190958023,-0.030875470489263535,-0.0003228310961276293,-0.14278410591719187,0.4359143662739499,0.032653520086969895
0.6015663146972656,-0.04674643278121948,-0.008676126599311829,-0.007629692554473877,-0.05575893074274063,-0.027217354625463486,-0.006488848011940718,-0.14321365840597688,0.4350809524745112,0.03278266037557492
0.611457109451294,-0.047894060611724854,-0.0030338168144226074,-0.0037287473678588867,-0.04544209688901901,-0.02317401021718979,-0.012446179054677486,-0.14355629020769733,0.43429158673003526,0.032824477456570085
0.6217460632324219,-0.0487743616104126,0.002280101180076599,-0.005080521106719971,-0.025907807052135468,-0.010450491681694984,-0.014278434216976166,-0.14376826145595142,0.4335868818410197,0.032765556226759876
0.633033275604248,-0.04619607329368591,0.006621420383453369,-0.010191798210144043,0.0014043741393834352,-0.006801340263336897,-0.011147515848279,-0.14377576229644515,0.43295934328729613,0.03262409528258733
0.6416292190551758,-0.04525727033615112,0.011313244700431824,-0.013612031936645508,0.02152056060731411,-0.0018707634881138802,-0.009818864986300468,-0.14359872613703162,0.43239513715377237,0.03241079109418583
0.6516392230987549,-0.04432007670402527,0.009417891502380371,-0.014218509197235107,0.03140175715088844,0.0005512922070920467,-0.005006212741136551,-0.14329366922765077,0.4318923151289102,0.03216407497162494
0.6615521907806396,-0.04379004240036011,0.001781165599822998,-0.016362488269805908,0.025433076545596123,-0.002149419393390417,-0.007609453052282333,-0.1429773271068001,0.4313835871600525,0.03192115747411481
0.6716642379760742,-0.04454341530799866,-0.00625281035900116,-0.011883437633514404,0.015146369114518166,-0.0050970506854355335,-0.011708110570907593,-0.1427386077093192,0.43084809678718666,0.03168269541567458
0.68255615234375,-0.04272344708442688,-0.014453500509262085,-0.010606110095977783,0.008866102434694767,-0.016898317262530327,-0.015374484471976757,-0.1425912524405174,0.4302400246071647,0.031445798899155525
0.6917200088500977,-0.041139423847198486,-0.013820439577102661,-0.011143386363983154,0.004506956785917282,-0.023403486236929893,-0.016241077333688736,-0.14258372730672272,0.429547413951189,0.03120314839146849
0.7016773223876953,-0.038074761629104614,-0.011105135083198547,-0.01754099130630493,0.0034795089159160852,-0.030878713354468346,-0.013391495682299137,-0.14266157112151306,0.4287922663824176,0.03099202156093283
0.7114973068237305,-0.0380341112613678,-0.009990274906158447,-0.023065149784088135,-0.0008643396431580186,-0.038334500044584274,-0.007141535170376301,-0.1427839190768347,0.4279756082387239,0.03083139538341586
0.7218003273010254,-0.038142651319503784,-0.012229695916175842,-0.019935905933380127,-0.007324103266000748,-0.049349598586559296,-0.0018333228072151542,-0.1429806653565587,0.4270925616754444,0.0307429595487446
0.7337679862976074,-0.036976367235183716,-0.011869609355926514,-0.016645073890686035,-0.022127533331513405,-0.056009501218795776,0.0030590640380978584,-0.14321809248709302,0.4261355478015987,0.030746406620330735
0.741765022277832,-0.03761652112007141,-0.014338910579681396,-0.012993156909942627,-0.04116833955049515,-0.0561346672475338,0.006609590258449316,-0.14350836792162236,0.4251719486396534,0.03086078725592892
0.7520222663879395,-0.03987106680870056,-0.017346516251564026,-0.010538697242736816,-0.04697670787572861,-0.056798726320266724,0.007122354581952095,-0.14380294252903827,0.42422258284033965,0.031049446857238313
0.7620482444763184,-0.040934085845947266,-0.013712435960769653,-0.006089210510253906,-0.049739472568035126,-0.055426131933927536,0.007596397772431374,-0.14403170948731087,0.4233015886158325,0.03126476717325405
0.7720451354980469,-0.0393008291721344,-0.006161481142044067,-0.0054939985275268555,-0.04630925506353378,-0.049253545701503754,0.00754318805411458,-0.1442651473117797,0.42243701038243253,0.03147240807259103
0.7836902141571045,-0.03858232498168945,5.526840686798096e-05,-0.0057561397552490234,-0.04236298054456711,-0.04224544018507004,0.004808654077351093,-0.1444899541607412,0.4216557725465042,0.03165774285513649
0.7919702529907227,-0.041342347860336304,0.003869354724884033,-0.005097448825836182,-0.026818374171853065,-0.03397437185049057,0.0006395288510248065,-0.14464476588376732,0.42092037706133173,0.03177404800459447
0.8021130561828613,-0.0427306592464447,0.0066785067319869995,-0.0019736289978027344,-0.021572213619947433,-0.029601462185382843,-0.007955823093652725,-0.14470489678450185,0.42023148698447577,0.031781269688423305
0.8123071193695068,-0.043993473052978516,0.005982890725135803,0.0014334917068481445,-0.021116813644766808,-0.019224010407924652,-0.01787002570927143,-0.1447910511628184,0.4196250730417097,0.031706283315968954
0.8243911266326904,-0.045269280672073364,0.006367817521095276,0.004834592342376709,-0.013554501347243786,-0.006488507613539696,-0.02358010970056057,-0.14486466996061612,0.41915056846136745,0.03154080003089338
0.8333292007446289,-0.0463126003742218,0.0038608014583587646,0.006713390350341797,-0.0017398870550096035,-0.0047430722042918205,-0.032680075615644455,-0.1448384469875718,0.41869942800334864,0.03126513343805658
0.841921329498291,-0.04316830635070801,0.00661642849445343,0.006956875324249268,0.005836539436131716,0.005895191337913275,-0.03772144019603729,-0.14481388997959935,0.4182917206123096,0.030872673290346445
0.8518462181091309,-0.0409885048866272,0.006106436252593994,0.004881322383880615,0.01262485422194004,0.01457216963171959,-0.035938989371061325,-0.14482040109337208,0.4180245846765371,0.030451333532925846
0.8617820739746094,-0.04211568832397461,0.003976345062255859,0.0016727447509765625,0.02663281373679638,0.019767995923757553,-0.03896114602684975,-0.14479879047114202,0.41785230899464715,0.029985016760094293
0.8718521595001221,-0.04122987389564514,0.003455430269241333,-0.0020750761032104492,0.04133083298802376,0.02475370094180107,-0.03566436469554901,-0.14467756228894682,0.4177254696226967,0.02946020993432295
0.8832392692565918,-0.0385090708732605,0.0021859556436538696,-0.0033528804779052734,0.05975111946463585,0.03197992220520973,-0.028587279841303825,-0.14441845674399684,0.41768661110450606,0.028909430575058192
0.8919920921325684,-0.039437949657440186,-0.0006208717823028564,-0.003948628902435303,0.07066217064857483,0.025780126452445984,-0.024275941774249077,-0.14398592684413544,0.4176397514188827,0.02836412587937481
0.9019951820373535,-0.03928402066230774,-0.002344846725463867,-0.006061136722564697,0.07069040089845657,0.02961374819278717,-0.018018046393990517,-0.14349226671136692,0.4175896783671874,0.02781949173282709
0.9117879867553711,-0.0368272066116333,-0.007180333137512207,-0.007926523685455322,0.052976854145526886,0.027228176593780518,-0.014185277745127678,-0.14302821730500845,0.4175598553352523,0.02738044671647649
0.9220211505889893,-0.036965012550354004,-0.013674795627593994,-0.009245336055755615,0.033831387758255005,0.026205789297819138,-0.014249192550778389,-0.14277571124239138,0.4175442245634217,0.027040352712891458
0.9327950477600098,-0.03453505039215088,-0.020518586039543152,-0.008231937885284424,0.010768480598926544,0.02021891437470913,-0.006498008966445923,-0.14269116335490786,0.4175177743977276,0.026819784569581222
0.9418861865997314,-0.03175857663154602,-0.02041710913181305,-0.007864654064178467,-0.0073378183878958225,0.018746454268693924,-0.0024425475858151913,-0.1427582221591315,0.4174553058410351,0.026735610849577568
0.9543232917785645,-0.028813570737838745,-0.02123911678791046,-0.011920511722564697,-0.024506667628884315,0.017986785620450974,0.005034436471760273,-0.14295663212083265,0.41738357820937644,0.026776294970068424
0.9618511199951172,-0.028212308883666992,-0.021053805947303772,-0.014252305030822754,-0.029806891456246376,0.009973067790269852,0.0101021658629179,-0.14321648060824682,0.4172921845033332,0.026915375511605277
0.9718821048736572,-0.024891018867492676,-0.017037376761436462,-0.015150070190429688,-0.030260877683758736,-0.0013184240087866783,0.013415884226560593,-0.14344432830465004,0.4170594566929312,0.027098069167766595
0.9825022220611572,-0.023813903331756592,-0.012918159365653992,-0.012622833251953125,-0.036521971225738525,-0.007298019248992205,0.01463880855590105,-0.14367626648004114,0.41669340649539227,0.027309686629117695
0.9918723106384277,-0.025515764951705933,-0.009874790906906128,-0.013857543468475342,-0.042475197464227676,-0.011350463144481182,0.013000750914216042,-0.14390057114565474,0.41631211971366017,0.02755459906858418
1.0019822120666504,-0.027109473943710327,-0.009596481919288635,-0.01318448781967163,-0.04736902192234993,-0.012572321109473705,0.01061562355607748,-0.14411275026410708,0.4158949595288829,0.02779613264273572
1.0124311447143555,-0.028956085443496704,-0.009706541895866394,-0.012196362018585205,-0.029914915561676025,-0.014980219304561615,0.015396157279610634,-0.14419313251420035,0.4154959424518268,0.028033005894278557
1.0221691131591797,-0.029548168182373047,-0.002302601933479309,-0.012305378913879395,-0.005986413918435574,-0.02709733322262764,0.018345609307289124,-0.1440663161029531,0.4150463836601014,0.02822516820416978
1.033236026763916,-0.028272360563278198,0.007260799407958984,-0.013782382011413574,0.004619225859642029,-0.03552224487066269,0.02141255885362625,-0.14374643330533987,0.4144934324488669,0.028370710696382223
1.0420851707458496,-0.028006374835968018,0.006040319800376892,-0.012980103492736816,-0.0024392164777964354,-0.031454797834157944,0.020887117832899094,-0.1434224373672411,0.41392665525484984,0.02851653791481744
1.052079200744629,-0.031634628772735596,-0.0022008568048477173,-0.010164141654968262,-0.015824047848582268,-0.03138267248868942,0.016931630671024323,-0.14325430948346576,0.4134240175865576,0.028696185630580868
1.0622520446777344,-0.03598940372467041,-0.008834630250930786,-0.003171563148498535,-0.03081418201327324,-0.029345618560910225,0.011788265779614449,-0.14328129786524313,0.41294420104922785,0.028903091866211938
1.0729131698608398,-0.03578624129295349,-0.00959324836730957,-0.0002091526985168457,-0.03769446164369583,-0.03064843825995922,0.013554207980632782,-0.1434465231693723,0.41246129614073695,0.029133935169231538
1.0831780433654785,-0.03400397300720215,-0.007117435336112976,-0.002846240997314453,-0.04200052469968796,-0.03807705640792847,0.012834623456001282,-0.1436584335916185,0.41192272645679945,0.02938493966239194
1.0920851230621338,-0.031236112117767334,-0.00238664448261261,-0.0034825801849365234,-0.052307456731796265,-0.032882653176784515,0.009508335031569004,-0.14396622279826213,0.4113467266179349,0.02964988889438139
1.1021761894226074,-0.031385600566864014,-0.004956990480422974,-0.0038009285926818848,-0.04789832606911659,-0.030773162841796875,0.014884458854794502,-0.14435863068014987,0.41086353259545133,0.029933481605270887
1.1121230125427246,-0.03327542543411255,-0.004623383283615112,-0.008763909339904785,-0.0379885733127594,-0.045556727796792984,0.011057655327022076,-0.14474622084798075,0.4102801948317466,0.030195601143346868
1.1222491264343262,-0.027018636465072632,0.006604313850402832,-0.006350398063659668,-0.04100886359810829,-0.055433060973882675,0.011316514573991299,-0.14508827552429224,0.40957815903527406,0.030418002047217202
1.1328811645507812,-0.023886114358901978,0.0068496763706207275,-0.006253063678741455,-0.062290798872709274,-0.055530570447444916,0.0011219868902117014,-0.1454880024930947,0.4088085596894356,0.030637060111870434
1.142268180847168,-0.03171724081039429,-0.0033802390098571777,-0.0024524927139282227,-0.09138956665992737,-0.06236104667186737,-0.010407903231680393,-0.1461114941788822,0.4080116572018066,0.030868393599099302
1.1522150039672852,-0.03412681818008423,-0.01216299831867218,0.00379180908203125,-0.11484069377183914,-0.07677017152309418,-0.025529703125357628,-0.14701513022437585,0.4071101757661606,0.031086386230264957
1.1621780395507812,-0.029818356037139893,-0.009715467691421509,0.007032454013824463,-0.15032252669334412,-0.09855669736862183,-0.04390444979071617,-0.14825849932285282,0.40604167802362745,0.031266433440158184
1.1721162796020508,-0.029530614614486694,-0.012252762913703918,0.00909191370010376,-0.23078221082687378,-0.11700814217329025,-0.08255571126937866,-0.15016080401875373,0.4047898736034824,0.03140673684916588
1.182997226715088,-0.030046582221984863,-0.023452341556549072,0.011518359184265137,-0.3506692051887512,-0.1462041139602661,-0.14572109282016754,-0.15315501076580357,0.4032868907711928,0.03148614562609508
1.1920390129089355,-0.02981734275817871,-0.04215057194232941,0.020082950592041016,-0.5022469758987427,-0.1959650069475174,-0.2216629981994629,-0.15765577898325792,0.40142124574862126,0.03143965370747302
1.2021303176879883,-0.023972421884536743,-0.0493607372045517,0.024363696575164795,-0.7308306097984314,-0.275476336479187,-0.3475911021232605,-0.16432658670328437,0.398958006377693,0.031205625910011515
1.212212085723877,-0.01671043038368225,-0.0545552521944046,0.03314477205276489,-1.088761806488037,-0.4234905242919922,-0.5416972041130066,-0.17424051468293963,0.3953390997927875,0.03060630317882914
1.2223281860351562,-0.014029979705810547,-0.09765923023223877,0.06413578987121582,-1.6398420333862305,-0.6127544641494751,-0.8260687589645386,-0.18934959363507808,0.3899289670473333,0.02948210222408125
1.2334790229797363,-0.012506276369094849,-0.16093815863132477,0.11161535978317261,-2.396071434020996,-0.8345053791999817,-1.1791987419128418,-0.2116636543908578,0.38234505230142496,0.027749688355100083
1.242356300354004,-0.013200223445892334,-0.21513479948043823,0.15455174446105957,-3.521172523498535,-1.0884084701538086,-1.670005440711975,-0.24419641627657235,0.37214909061911094,0.02528833810961468
1.2523691654205322,-0.018267035484313965,-0.2738872766494751,0.19864660501480103,-4.961211681365967,-1.2693743705749512,-2.187608480453491,-0.2906260711587373,0.3593815233286677,0.02223432395869063
1.262878179550171,-0.03621798753738403,-0.3732680082321167,0.23446041345596313,-6.721173286437988,-1.3546756505966187,-2.6305184364318848,-0.35372791078171545,0.345496978705644,0.019572142267871743
1.2727181911468506,-0.041913002729415894,-0.3720099925994873,0.24943339824676514,-8.533614158630371,-1.6137841939926147,-3.123061418533325,-0.43532807786895505,0.33001813913330114,0.01760222314157966
1.2827773094177246,-0.04136583209037781,-0.3026421070098877,0.29667794704437256,-10.559861183166504,-1.978333592414856,-3.5841569900512695,-0.5364731006779477,0.3108244250146846,0.015524657540072817
1.2924323081970215,-0.03125055134296417,-0.29103052616119385,0.3914899230003357,-12.742792129516602,-2.178309679031372,-4.0429863929748535,-0.6590105276264341,0.28861238162000213,0.01291931317999298
1.3024861812591553,-0.0715775191783905,-0.20886558294296265,0.4774274230003357,-15.349729537963867,-2.4200022220611572,-4.338661193847656,-0.8054813465568412,0.263607254184285,0.009874229957901846
1.312326192855835,-0.13598763942718506,-0.09681493043899536,0.5934366583824158,-18.60892105102539,-2.639479160308838,-4.46624231338501,-0.9807781158760498,0.23722873069839484,0.008581180724943951
1.3224902153015137,-0.18518222868442535,0.0291634202003479,0.7724159955978394,-22.224313735961914,-2.363205671310425,-4.20817232131958,-1.1900069545468273,0.21822292891309752,0.015915484044222175
1.3333320617675781,-0.2345893681049347,0.2125934362411499,0.8820067644119263,-24.750972747802734,-1.580265998840332,-3.8243093490600586,-1.4288084923513396,0.26344307219585555,0.08287634450322051
1.3425393104553223,-0.2534303665161133,0.5927525162696838,0.8011808395385742,-24.9962158203125,-0.6038787364959717,-3.9824185371398926,-1.4573026406970515,-3.123512393884637,2.991823756373091
1.3527531623840332,-0.38870707154273987,1.0395176410675049,0.579708456993103,-23.593698501586914,-0.41141411662101746,-4.391831874847412,-1.210720042501098,-3.0226667026333587,3.0996269874547266
1.362443208694458,-0.446767121553421,1.1616644859313965,0.1949886679649353,-21.31494903564453,-0.6343441009521484,-4.375728607177734,-0.981252826213732,-3.0000082248108715,3.1306234639430897
1.372624158859253,-0.20429599285125732,1.1300549507141113,-0.03338807821273804,-17.76531410217285,-1.3062840700149536,-4.222120761871338,-0.7808933382051338,-2.992395975385982,-3.130292835246657
1.3826942443847656,-0.09097690135240555,1.4060485363006592,-0.2360495924949646,-13.177428245544434,-1.3612091541290283,-3.722466230392456,-0.6210783504053344,-2.992217054068889,-3.1089324042963042
1.3925211429595947,-0.16027654707431793,1.7162184715270996,-0.5381549596786499,-7.874115467071533,-1.8613054752349854,-3.126002311706543,-0.5115695162356665,-2.9967524623861412,-3.0872758644496003
1.4025511741638184,-0.0916828066110611,1.7611180543899536,-0.8770031929016113,-3.0921268463134766,-2.038057327270508,-2.6011123657226562,-0.45426571857736303,-3.00577846757546,-3.0638032251597993
1.4125323295593262,0.11535107344388962,1.4236273765563965,-1.0533665418624878,-0.9514815211296082,-1.514725685119629,-2.1638708114624023,-0.43307616150644046,-3.013910356440699,-3.040283559207326
1.4225971698760986,0.029401995241642,0.6645312309265137,-0.8778377771377563,-1.4512343406677246,-0.6195627450942993,-1.7367777824401855,-0.41978772257152736,-3.016464337362998,-3.020521189472241
1.433091163635254,-0.09150929749011993,-0.07987287640571594,-0.20083820819854736,-2.5473785400390625,0.01648356392979622,-1.324751377105713,-0.39764265569109236,-3.0136953255335306,-3.0068065090071703
1.4427461624145508,-0.04106103628873825,-0.3360808491706848,0.32824409008026123,-2.3944101333618164,0.14030484855175018,-1.0930614471435547,-0.37069679349450724,-3.0091093391975585,-2.9976030102655193
1.454153060913086,0.022356033325195312,-0.2819874584674835,0.34765076637268066,-1.3653517961502075,0.020428460091352463,-0.8780603408813477,-0.3505227512566813,-3.0055603381204317,-2.9898097292694157
1.4625883102416992,0.08307026326656342,-0.05772516131401062,0.12687575817108154,-0.5781319737434387,0.11441594362258911,-0.5980833172798157,-0.3402697843911365,-3.002878551353196,-2.9833539281622787
1.472750186920166,0.0838770717382431,0.028604596853256226,-0.019875824451446533,-0.3989291191101074,0.3358791470527649,-0.36069434881210327,-0.3351155731068109,-2.9991513765489417,-2.979034920911035
1.4829261302947998,0.036448732018470764,-0.10323810577392578,-0.06314492225646973,-0.517623245716095,0.3992202877998352,-0.20149774849414825,-0.3302311692199587,-2.9945888236121,-2.976824938949542
1.4926280975341797,0.02408604323863983,-0.2092343270778656,-0.0035896897315979004,-0.6096360087394714,0.27430108189582825,-0.0983869731426239,-0.32440687361338977,-2.990961601363604,-2.9761901218315643
1.502662181854248,0.04823283851146698,-0.2070883810520172,0.07578146457672119,-0.5731126070022583,0.13284994661808014,-0.032801304012537,-0.3183817799724868,-2.9890475898702547,-2.976499610957135
1.5127010345458984,0.04642148315906525,-0.16954773664474487,0.04800713062286377,-0.44646865129470825,0.05005089193582535,0.022868242114782333,-0.3132889544779963,-2.9883897176662746,-2.9772589995853536
1.522705078125,0.03237825632095337,-0.11810976266860962,-0.03243422508239746,-0.3676963448524475,0.01407877542078495,0.06930205225944519,-0.30939313511123717,-2.988442771768446,-2.9783902842177374
1.5330910682678223,0.03557834029197693,-0.06839063763618469,-0.07308995723724365,-0.37673839926719666,-0.012685637921094894,0.09487894177436829,-0.3058965413433021,-2.988845354415634,-2.979836216418437
1.5428001880645752,0.0322687029838562,-0.06115695834159851,-0.06069272756576538,-0.3878459334373474,-0.04426193982362747,0.10628126561641693,-0.3022332088328511,-2.98963507929756,-2.981505568439453
1.5535130500793457,0.025147289037704468,-0.04707750678062439,-0.021716833114624023,-0.33273425698280334,-0.05401301756501198,0.09349357336759567,-0.2987713543928213,-2.9906182626809015,-2.983118483056399
1.5628962516784668,0.013097494840621948,-0.016136467456817627,-0.038167595863342285,-0.29478099942207336,-0.023843929171562195,0.07225512713193893,-0.2958389248870802,-2.9914114509175103,-2.984471784557124
1.5739171504974365,-0.020413905382156372,0.017353683710098267,-0.0810319185256958,-0.24916277825832367,-0.013341931626200676,0.03986107558012009,-0.29324279654318647,-2.991872384965879,-2.985501239882399
1.5842370986938477,-0.03239917755126953,0.0350554883480072,-0.07328462600708008,-0.24775663018226624,-0.03815886378288269,-0.012790951877832413,-0.29083514160955265,-2.992230649167709,-2.9860086600063367
1.5927062034606934,-0.033726468682289124,0.03324258327484131,-0.04623401165008545,-0.27250540256500244,-0.05086373910307884,-0.0524776428937912,-0.28818918071376837,-2.992686951498811,-2.986054210508484
1.6027703285217285,-0.03293819725513458,0.042423367500305176,-0.006112337112426758,-0.2607443332672119,-0.05957413837313652,-0.09148336946964264,-0.285394494191435,-2.9931536770350697,-2.9857231416291463
1.6127052307128906,-0.04209578037261963,0.0457535982131958,0.0019428730010986328,-0.17734874784946442,-0.07025963068008423,-0.1018286794424057,-0.2830377554039649,-2.9936124961263433,-2.985047951646519
1.6227471828460693,-0.04320867359638214,0.07041507959365845,-0.0007153153419494629,-0.12154114246368408,-0.06082857400178909,-0.11310077458620071,-0.2814773830966642,-2.994048232712367,-2.984149985763414
1.6331541538238525,-0.045436471700668335,0.08894473314285278,0.0088731050491333,-0.11228815466165543,-0.01217369083315134,-0.09922581166028976,-0.2801695267914638,-2.9941685387221084,-2.9832351472134486
1.6427693367004395,-0.05504657328128815,0.0696122944355011,0.015946269035339355,-0.03209131583571434,-0.008860452100634575,-0.08674038201570511,-0.2792640982718939,-2.993979390538426,-2.9824031488010982
1.6527962684631348,-0.05303873121738434,0.07869726419448853,0.022755742073059082,0.026223186403512955,-0.018192877992987633,-0.0798443928360939,-0.27917854797542796,-2.9938933912061723,-2.981527991380239
1.662764072418213,-0.04435144364833832,0.08677378296852112,0.04903721809387207,0.0629337951540947,-0.010105123743414879,-0.07650425285100937,-0.27953885113613575,-2.9937924624935564,-2.980652476436707
1.6728572845458984,-0.04745420813560486,0.062077224254608154,0.0684935450553894,0.0216636061668396,0.04597274586558342,-0.1023004949092865,-0.27992789886262404,-2.9933479074676006,-2.979643519296424
1.6832821369171143,-0.05339302122592926,0.048873454332351685,0.06406652927398682,0.007790135219693184,0.1076294556260109,-0.10373034328222275,-0.27991730812379656,-2.9921636754160144,-2.9785445885997848
1.6928791999816895,-0.06070631742477417,0.032956093549728394,0.056764841079711914,0.08313801884651184,0.11667825281620026,-0.10531555861234665,-0.2802690282898682,-2.9906594845675354,-2.9773905514508656
1.7032721042633057,-0.03690968453884125,0.06093379855155945,0.06274527311325073,0.16454818844795227,0.118536077439785,-0.11177531629800797,-0.2814673024983941,-2.9890396556401675,-2.9760446523659816
1.7128620147705078,-0.03226470947265625,0.05678749084472656,0.06491327285766602,0.13385486602783203,0.1457047164440155,-0.11159162223339081,-0.2829882770127951,-2.9873089343184107,-2.974628358082593
1.7229161262512207,-0.02852405607700348,0.05160161852836609,0.07132476568222046,0.052115269005298615,0.21268880367279053,-0.11028480529785156,-0.28378068835892734,-2.9850665714101026,-2.9733120621321176
1.732870101928711,-0.03575572371482849,0.01579749584197998,0.06648916006088257,0.09729260206222534,0.2183326631784439,-0.10099564492702484,-0.2843602247544232,-2.982479345085645,-2.9720931927963785
1.7428669929504395,-0.03231348097324371,0.027157843112945557,0.048641741275787354,0.16410678625106812,0.20378035306930542,-0.10776966065168381,-0.28559226593086906,-2.979995443267844,-2.9707810862797093
1.7528290748596191,-0.020153239369392395,0.04764285683631897,0.04007983207702637,0.19160419702529907,0.2307800054550171,-0.10044144093990326,-0.28722267106810667,-2.9774351211887713,-2.969393805444858
1.7629871368408203,-0.0221385657787323,0.01818898320198059,0.03617984056472778,0.2400878369808197,0.2454787939786911,-0.08128000050783157,-0.2892007612906312,-2.974628069042269,-2.9680971173560207
1.7731101512908936,-0.02104055881500244,0.021657109260559082,0.011704444885253906,0.2637995779514313,0.2379496842622757,-0.07877236604690552,-0.2916487096479484,-2.971806624914786,-2.966835078112272
1.7839171886444092,-0.01467546820640564,0.020125776529312134,0.0007529854774475098,0.18628641963005066,0.25636065006256104,-0.09787122905254364,-0.29372618566523706,-2.9689466680824514,-2.965511432919081
1.7930240631103516,-0.021519243717193604,-0.015060573816299438,0.002287149429321289,0.15565435588359833,0.24980930984020233,-0.09460560232400894,-0.29519268744168736,-2.9659949405377457,-2.9642087695544284
1.803213119506836,-0.02160896360874176,-0.025318950414657593,-0.01931285858154297,0.20465172827243805,0.193963885307312,-0.1008312776684761,-0.29682457016139463,-2.9633921583349707,-2.9628741149560396
1.8131260871887207,-0.003031432628631592,0.00400930643081665,-0.0443759560585022,0.2238929271697998,0.151124507188797,-0.11693200469017029,-0.2987549452568743,-2.9612490825401445,-2.961357945901114
1.8230321407318115,-0.001490756869316101,-0.009033113718032837,-0.0478857159614563,0.23108318448066711,0.12499330937862396,-0.1189189925789833,-0.3007472700214317,-2.959383116834801,-2.959712968368048
1.8338611125946045,-0.001096770167350769,-0.023661643266677856,-0.04661405086517334,0.25462865829467773,0.10314633697271347,-0.12282248586416245,-0.3029477995306639,-2.9576989120208896,-2.9579933141064867
1.8431541919708252,0.0023159533739089966,-0.017407536506652832,-0.04917919635772705,0.24694012105464935,0.07736960053443909,-0.1276571899652481,-0.30525290835740926,-2.9562678945879135,-2.9562011445940537
1.853121280670166,0.0003039836883544922,-0.019918620586395264,-0.048532843589782715,0.18966400623321533,0.07414424419403076,-0.12040199339389801,-0.30718236277449007,-2.954978343415502,-2.9544992420933247
1.8630881309509277,-0.00497668981552124,-0.038103699684143066,-0.0328669548034668,0.15047027170658112,0.05521529167890549,-0.11543333530426025,-0.30863585743993704,-2.953832728891299,-2.952948439403829
1.873042106628418,-0.0035720765590667725,-0.041897356510162354,-0.029618799686431885,0.1045389324426651,0.03232133761048317,-0.11130756139755249,-0.3096869183628342,-2.952952622554851,-2.951527964200344
1.8838210105895996,-0.0010253340005874634,-0.04386290907859802,-0.01695859432220459,0.08061761409044266,0.015916798263788223,-0.10984762012958527,-0.3103570067339616,-2.9523095649888007,-2.9502064275904907
1.893202304840088,-0.0032257139682769775,-0.05195373296737671,0.009227097034454346,0.12130390852689743,0.004255394451320171,-0.09927727282047272,-0.31113005690421547,-2.951808353944923,-2.948924601755325
1.9033012390136719,-0.0016537308692932129,-0.048533886671066284,0.013448238372802734,0.15931573510169983,-0.012744362466037273,-0.08964461833238602,-0.3123785675176584,-2.951469438021488,-2.947669560729262
1.9131622314453125,-0.0015956759452819824,-0.03060513734817505,0.018185138702392578,0.12959806621074677,0.006848691962659359,-0.09166520833969116,-0.31356572315008224,-2.951137320398725,-2.946441817933705
1.9230990409851074,-0.009146913886070251,-0.04601389169692993,0.03344297409057617,0.06939783692359924,0.04455718770623207,-0.07864288240671158,-0.3143008810991082,-2.950517345509497,-2.9453504096886074
1.933906078338623,-0.014586642384529114,-0.05618056654930115,0.03851044178009033,0.08328157663345337,0.05413209646940231,-0.07503876835107803,-0.3148189616752344,-2.9496919263184846,-2.944419984380749
1.9431390762329102,-0.014919787645339966,-0.03268289566040039,0.04299217462539673,0.11813143640756607,0.06206352263689041,-0.07735013216733932,-0.3154939003477222,-2.9487470142812096,-2.9433980512469216
1.9532191753387451,-0.014345094561576843,-0.03046393394470215,0.04737734794616699,0.1090608760714531,0.0841638520359993,-0.07652386277914047,-0.3163379879759833,-2.9477006878962317,-2.942368853600864
1.963346004486084,-0.018733784556388855,-0.019581526517868042,0.042922914028167725,0.0718567818403244,0.1133294627070427,-0.08226750046014786,-0.3168968650731042,-2.9463817907302032,-2.941382709763203
1.9757990837097168,-0.029061466455459595,-0.03340306878089905,0.039344191551208496,0.09926196187734604,0.11670426279306412,-0.08079226315021515,-0.31732750462724924,-2.9449102490158814,-2.9403784962718826
1.9858760833740234,-0.027643948793411255,-0.032990723848342896,0.03806614875793457,0.1749173104763031,0.11011027544736862,-0.06424365192651749,-0.3183069764932945,-2.9434714050409068,-2.9393424683361764
1.9932551383972168,-0.02017788589000702,-0.009662449359893799,0.01869356632232666,0.2632177472114563,0.11612982302904129,-0.04356255382299423,-0.3201576652511412,-2.942081021092513,-2.9383548329710765
2.003437042236328,-0.020122617483139038,-0.000818789005279541,-0.0021432042121887207,0.4502025544643402,0.12605728209018707,-0.011889578774571419,-0.32318813493976684,-2.9405528434655737,-2.9373513447506476
2.0134263038635254,-0.022432178258895874,0.0016992688179016113,-0.011934638023376465,0.7660201191902161,0.11370204389095306,0.03229722008109093,-0.3286156379181457,-2.9389668335870596,-2.9361612808612705
2.0233240127563477,-0.010900631546974182,0.02588161826133728,-0.029938220977783203,1.1422803401947021,0.13847662508487701,0.10776454210281372,-0.3377092869769921,-2.9373493647507876,-2.9348262355596964
2.0334582328796387,-0.001464754343032837,0.04769998788833618,-0.06410789489746094,1.6234246492385864,0.20383751392364502,0.24508830904960632,-0.3515075507666185,-2.935235189657475,-2.9336390347631958
2.04331111907959,-0.0008084326982498169,0.061910420656204224,-0.09382164478302002,2.310288667678833,0.23559677600860596,0.4272482693195343,-0.371372067047394,-2.932685907283482,-2.9328169547016034
2.0533289909362793,0.0059188008308410645,0.116244375705719,-0.10811746120452881,3.1340839862823486,0.2332199513912201,0.6277996301651001,-0.3990707089798994,-2.9301572699470224,-2.932270685462323
2.0633373260498047,0.019688978791236877,0.16956350207328796,-0.09863150119781494,3.9958572387695312,0.2334551066160202,0.8179147243499756,-0.4355374295714361,-2.927631264418868,-2.9317724071307123
2.073289155960083,0.020474374294281006,0.16245567798614502,-0.10136765241622925,4.831264972686768,0.2795368432998657,0.9760046601295471,-0.48063911326527403,-2.9247775739710886,-2.9310404856100436
2.084487199783325,0.01156538724899292,0.1185871958732605,-0.11907809972763062,5.728470325469971,0.35494932532310486,1.0948411226272583,-0.5344562327841134,-2.920820198369095,-2.929535763550913
2.093532085418701,-0.00729641318321228,0.07099485397338867,-0.1233939528465271,6.695072174072266,0.36700838804244995,1.2029743194580078,-0.5976332565170237,-2.915576288011086,-2.9264925015313277
2.1033120155334473,-0.011528059840202332,0.060235023498535156,-0.07967287302017212,7.798705101013184,0.4089116156101227,1.3418893814086914,-0.6710613132364126,-2.9086805668488225,-2.9214212209141386
2.113288164138794,0.0006548315286636353,0.08553004264831543,-0.01592874526977539,9.202438354492188,0.5045731067657471,1.4997988939285278,-0.7568376058566241,-2.8987940119327953,-2.913217700992925
2.12345027923584,0.002487286925315857,0.13403284549713135,0.05062854290008545,11.15691089630127,0.5291247963905334,1.772707223892212,-0.8593232261726683,-2.8836456153814862,-2.899642507718344
2.133615016937256,0.01728026568889618,0.26085060834884644,0.11576777696609497,13.731616020202637,0.5574173331260681,2.0824551582336426,-0.9841610901167673,-2.859074048410669,-2.875571553724905
2.143918991088867,0.04405759274959564,0.49021291732788086,0.2054438292980194,16.507802963256836,0.512820839881897,2.359813690185547,-1.1354260777452034,-2.8096818855336907,-2.825242527367833
2.1538031101226807,0.03283804655075073,0.7478412985801697,0.3308620750904083,18.434236526489258,0.373291939496994,2.488372802734375,-1.307384573351042,-2.680054399481343,-2.6927187590592685
2.1634111404418945,-0.008689872920513153,0.9245187640190125,0.6295121908187866,19.185224533081055,0.4341699182987213,1.9182137250900269,-1.4653137632108955,-2.0325708334973913,-2.0404366630519486
2.1734561920166016,-0.14155691862106323,0.6509904861450195,0.995132565498352,18.28132438659668,1.1987721920013428,1.3208389282226562,-1.4085859953154711,-0.505568858490838,-0.5128399323850881
2.18426513671875,-0.3570869565010071,0.10630995035171509,1.0990976095199585,16.676761627197266,1.8203026056289673,1.4569240808486938,-1.2472156200931883,-0.19417947574003253,-0.20905052205855612
2.1933281421661377,-0.33430588245391846,0.15390843152999878,1.1031949520111084,15.208588600158691,2.1051642894744873,1.6031426191329956,-1.0911388936245443,-0.08580798367831355,-0.11297990335981652
2.2034473419189453,-0.26764559745788574,0.26722079515457153,1.0851815938949585,13.634871482849121,2.4358432292938232,1.6590242385864258,-0.9477324399146344,-0.023446966717790386,-0.06665663715095119
2.2134761810302734,-0.26111048460006714,0.17147600650787354,0.993789792060852,11.957226753234863,2.7024405002593994,1.685612678527832,-0.819570153983363,0.022808215950785336,-0.040138874582817535
2.22349214553833,-0.29482847452163696,0.10223901271820068,0.9040166735649109,10.244064331054688,2.92486310005188,1.6863902807235718,-0.7078107150088223,0.06267745594969741,-0.023292424165508505
2.2337770462036133,-0.3115488290786743,0.0018845796585083008,0.819179892539978,8.585721015930176,3.176863670349121,1.6486624479293823,-0.6125350150190497,0.10027155136856558,-0.011861678728623258
2.243453025817871,-0.2788203954696655,-0.11424142122268677,0.7216694951057434,7.153771877288818,3.317868709564209,1.5898230075836182,-0.5325537850465599,0.13723085534898818,-0.003813362385758746
2.2536141872406006,-0.24940378963947296,-0.1895679235458374,0.6215299367904663,5.845635890960693,3.18330979347229,1.5193760395050049,-0.4658996694784575,0.1728448668727271,0.002341921626039355
2.2635560035705566,-0.18444223701953888,-0.23008480668067932,0.5509700179100037,4.608057022094727,3.032963275909424,1.335495948791504,-0.41179056435177097,0.205950119989526,0.007047210714975991
2.273637294769287,-0.1068650335073471,-0.29317376017570496,0.492567241191864,3.3930106163024902,2.9282851219177246,1.0916861295700073,-0.37009180263286723,0.23707182481261363,0.010395314176415808
2.2840123176574707,-0.07473699748516083,-0.35532262921333313,0.4221641421318054,2.369220733642578,2.742377758026123,0.8288288712501526,-0.3399193150543332,0.2663184673556486,0.01271122360284014
2.2937521934509277,-0.06152340769767761,-0.3926847577095032,0.3639647364616394,1.6531480550765991,2.5351169109344482,0.6083289384841919,-0.3187714377663613,0.29323694016480784,0.014168070529702873
2.303853988647461,-0.011251837015151978,-0.38125237822532654,0.2807956337928772,1.2270481586456299,2.286465883255005,0.42802634835243225,-0.3036364501357714,0.3175586006768017,0.014835948253076837
2.313854217529297,0.05936112999916077,-0.25318509340286255,0.18296343088150024,1.0421195030212402,2.020843505859375,0.3303302824497223,-0.2917930715060193,0.3391405512753078,0.014763781979316652
2.323904037475586,0.11604085564613342,-0.09020498394966125,0.08170056343078613,1.007240653038025,1.7490378618240356,0.3020520508289337,-0.2811025552170945,0.35783978163085844,0.014206594404685333
2.3339762687683105,0.15815496444702148,0.016310155391693115,-0.008768022060394287,1.0150647163391113,1.4683120250701904,0.29900822043418884,-0.2705951207468619,0.37371684531324517,0.013370518590275429
2.343806266784668,0.17364248633384705,0.06311434507369995,-0.05830538272857666,0.9994564056396484,1.232999324798584,0.2908453643321991,-0.26010592022508605,0.3869161845418961,0.012312256072083068
2.353888988494873,0.1512594223022461,0.06650866568088531,-0.06864547729492188,0.9087866544723511,1.076365351676941,0.30297866463661194,-0.2501011605609181,0.39819109413754283,0.011345250071842563
2.363755226135254,0.1044996976852417,0.05198366940021515,-0.06507599353790283,0.7420802116394043,0.941321849822998,0.29755327105522156,-0.24129023462885604,0.4081849881927339,0.010871847059703996
2.373882293701172,0.06011667847633362,0.017610564827919006,-0.04466623067855835,0.5389625430107117,0.7809115052223206,0.22341933846473694,-0.23434542897680666,0.4167489865471407,0.010717452306943239
2.384399175643921,0.028047144412994385,-0.047381192445755005,-0.011352241039276123,0.34394168853759766,0.6463009715080261,0.13776063919067383,-0.22958378496074366,0.4238663340354905,0.010545352822505858
2.3937761783599854,0.009433984756469727,-0.09633080661296844,-0.0012748241424560547,0.16600096225738525,0.5203456878662109,0.0813029482960701,-0.22685747441729126,0.4296328166638654,0.010496282908032816
2.403806209564209,-0.0015700757503509521,-0.08140270411968231,-0.009769797325134277,0.01963682286441326,0.42545247077941895,0.043011218309402466,-0.22575628136490924,0.4343982913377924,0.010657012316248732
2.413931131362915,-0.012103140354156494,-0.05513228476047516,-0.030880391597747803,-0.0666632428765297,0.3462948203086853,0.04590969905257225,-0.22582425252712332,0.43838393171900897,0.011166985561204847
2.423990249633789,-0.01833927631378174,-0.03707963228225708,-0.05463874340057373,-0.09393560886383057,0.24753865599632263,0.046660445630550385,-0.22640202904830248,0.44152150234262316,0.011977831110757727
2.434030055999756,-0.023153215646743774,-0.009336113929748535,-0.06194525957107544,-0.07331187278032303,0.1673380434513092,0.05050189420580864,-0.22694700425198536,0.44377305582872134,0.012781683061131097
2.4440441131591797,-0.03516927361488342,0.004423990845680237,-0.05432051420211792,-0.06714905053377151,0.1264691799879074,0.06073908507823944,-0.22732627085035748,0.4453844715134636,0.013593252474971843
2.4542391300201416,-0.05523216724395752,0.003117173910140991,-0.0440521240234375,-0.07093533873558044,0.15979793667793274,0.0777321308851242,-0.2276652609486747,0.4469644689471461,0.014544443483658366
2.4640331268310547,-0.08177316188812256,-0.005478009581565857,-0.035748183727264404,-0.07698550820350647,0.2137562334537506,0.0989237055182457,-0.2279361401123465,0.44910427048286444,0.015685079971703632
2.4739022254943848,-0.104331374168396,-0.0021800845861434937,-0.03916090726852417,-0.030699800699949265,0.26626524329185486,0.12125718593597412,-0.22799671704174007,0.45179715316228797,0.016976802853943075
2.488502025604248,-0.10428449511528015,0.02214553952217102,-0.036834895610809326,0.056184764951467514,0.279437780380249,0.13967826962471008,-0.22732000907163682,0.45478586771345253,0.018135863977292443
2.4951441287994385,-0.10082009434700012,0.03966809809207916,-0.026722252368927002,0.14759677648544312,0.2919355630874634,0.15524685382843018,-0.22573285821929823,0.45785006084514196,0.01902248009850402
2.503899097442627,-0.10434865951538086,0.04656180739402771,-0.011890113353729248,0.19853878021240234,0.2815905213356018,0.16766223311424255,-0.2234510267876703,0.46087941119083004,0.01973012778072033
2.5138182640075684,-0.10322993993759155,0.038328081369400024,-0.0016026496887207031,0.21162886917591095,0.25566574931144714,0.14180585741996765,-0.22089499503947757,0.4636797278741541,0.020212064447532097
2.523916244506836,-0.100026935338974,0.020388633012771606,0.01367563009262085,0.18026988208293915,0.21684297919273376,0.10944207012653351,-0.21854479664149018,0.4660766457646195,0.020449744068433234
2.534027099609375,-0.09663951396942139,-0.01181630790233612,0.022434353828430176,0.11244698613882065,0.21142922341823578,0.08671369403600693,-0.21680361733677012,0.4682278467020603,0.02065797296728918
2.544037342071533,-0.09254190325737,-0.02907736599445343,0.021987318992614746,0.07574489712715149,0.2250928282737732,0.08632540702819824,-0.215604139490815,0.4704845532995797,0.021015906165002995
2.5539371967315674,-0.09388551115989685,-0.017595529556274414,0.013695001602172852,0.09254796802997589,0.22299200296401978,0.10844327509403229,-0.2144565911327132,0.4728473248431929,0.021509302791852175
2.563997268676758,-0.09860178828239441,0.0021196305751800537,-0.001007080078125,0.15179398655891418,0.20164570212364197,0.14930389821529388,-0.2127694888635343,0.4751178552379946,0.022117643605091695
2.5743632316589355,-0.09167805314064026,0.01582157611846924,-0.021123409271240234,0.23090483248233795,0.18774741888046265,0.19930431246757507,-0.2102884751770555,0.47721798654970227,0.022799727647939524
2.584141254425049,-0.08558696508407593,0.03367529809474945,-0.04467588663101196,0.29977309703826904,0.15599587559700012,0.25592392683029175,-0.20687181115629102,0.47910610028862866,0.023613653835284305
2.593949317932129,-0.07547658681869507,0.04793013632297516,-0.06590718030929565,0.3183174133300781,0.12484505772590637,0.2969381809234619,-0.2028010133876796,0.48071107058008783,0.024654560606224136
2.604055166244507,-0.0641329288482666,0.04193449020385742,-0.06966692209243774,0.27936816215515137,0.11748781055212021,0.32413652539253235,-0.1986734959992977,0.48219750003530504,0.026032833503474066
2.6141371726989746,-0.06479549407958984,0.021300464868545532,-0.05906611680984497,0.1789378970861435,0.10200241208076477,0.3316996097564697,-0.19508352119228423,0.4836390524864001,0.027907754565816824
2.6241869926452637,-0.06625095009803772,9.131431579589844e-05,-0.0405198335647583,0.052818577736616135,0.12323074042797089,0.3230624198913574,-0.19253276416819107,0.4852097873341619,0.030313231682340083
2.6342782974243164,-0.06245499849319458,-0.014869153499603271,-0.028741538524627686,-0.052134670317173004,0.1230047196149826,0.32617753744125366,-0.19103199025581752,0.4870288126035608,0.03325751691196003
2.644069194793701,-0.0518401563167572,-0.01536870002746582,-0.035941243171691895,-0.09466055780649185,0.12157700210809708,0.31636911630630493,-0.19023537569558333,0.4888710166384507,0.03652612033697094
2.654109001159668,-0.03864374756813049,2.5719404220581055e-05,-0.043133556842803955,-0.07651505619287491,0.07892119884490967,0.32374832034111023,-0.1894912802979628,0.49050553734061464,0.03984114299671603
2.6640772819519043,-0.03402480483055115,0.026392266154289246,-0.0504191517829895,-0.04746769741177559,0.0318029522895813,0.32307881116867065,-0.18851319946218117,0.4916614702403591,0.043036968238399066
2.6740291118621826,-0.02832639217376709,0.04173305630683899,-0.05510205030441284,-0.044068753719329834,-0.030046610161662102,0.3169371485710144,-0.18737353478966284,0.4922598880971559,0.046125725400668414
2.6843202114105225,-0.008242964744567871,0.0377490371465683,-0.061835646629333496,-0.08520260453224182,-0.08575621247291565,0.28557097911834717,-0.1864898643167932,0.4922197938678744,0.049145451250140734
2.6942930221557617,0.008343756198883057,0.0277264267206192,-0.05536949634552002,-0.1771719753742218,-0.12253356724977493,0.24697163701057434,-0.18636317778271524,0.4917132251700954,0.05215176607984598
2.7042970657348633,0.00774836540222168,0.004773810505867004,-0.04637002944946289,-0.30120551586151123,-0.14563703536987305,0.20180310308933258,-0.18740709974180828,0.49095616907309075,0.05531622020669934
2.7140493392944336,-0.0023818910121917725,-0.022158101201057434,-0.041665494441986084,-0.4098275601863861,-0.13471390306949615,0.18863777816295624,-0.1896752216553448,0.49023450144572767,0.05880260449334354
2.724119186401367,-0.003576815128326416,-0.028231844305992126,-0.04313379526138306,-0.44060197472572327,-0.15277546644210815,0.16024474799633026,-0.19266001979980799,0.4894559479794307,0.06240407584671424
2.734286308288574,-0.004471957683563232,-0.010696396231651306,-0.04452717304229736,-0.40445995330810547,-0.17489513754844666,0.17940539121627808,-0.1956115490330825,0.48850812941991206,0.0659601329577459
2.744145154953003,0.001957118511199951,0.009514033794403076,-0.0567895770072937,-0.3484012186527252,-0.2010497748851776,0.20431260764598846,-0.19804639251430328,0.4873154982703657,0.06948995696949978
2.7540221214294434,0.012604743242263794,0.02410915493965149,-0.05878490209579468,-0.30271536111831665,-0.2153390645980835,0.2361103743314743,-0.1998752894128779,0.48591156990543233,0.0730237911510926
2.764125108718872,0.009382426738739014,0.02222810685634613,-0.05217278003692627,-0.3052501678466797,-0.2284841537475586,0.25993794202804565,-0.20137442532595254,0.48442075721041516,0.07670305350161526
2.7740321159362793,0.0007950365543365479,0.0018266737461090088,-0.039141058921813965,-0.3565594553947449,-0.23279497027397156,0.26262086629867554,-0.20305708951057275,0.48289152829419774,0.08063281043650122
2.7842772006988525,0.001066058874130249,-0.03297477960586548,-0.022239863872528076,-0.4405800402164459,-0.22798582911491394,0.2548108696937561,-0.2053905598924713,0.4814426218193038,0.08487193724198892
2.7943172454833984,0.0009744763374328613,-0.05176442861557007,-0.011055707931518555,-0.5012354254722595,-0.21351799368858337,0.25378620624542236,-0.20842148603507543,0.4801567064480949,0.08941200563509441
2.804596185684204,7.539987564086914e-05,-0.05209222435951233,-0.012969732284545898,-0.5319011807441711,-0.22149336338043213,0.25521260499954224,-0.21184585011886187,0.4789700523403828,0.09417698232582679
2.8143773078918457,8.52048397064209e-05,-0.04233236610889435,-0.02149301767349243,-0.5202221870422363,-0.21789734065532684,0.26227763295173645,-0.21536480638079972,0.47778918014728344,0.09900314767937934
2.82432222366333,0.0046243369579315186,-0.02333882451057434,-0.031159520149230957,-0.48749005794525146,-0.21348129212856293,0.28899848461151123,-0.2185873561355794,0.47667057383769773,0.10388681080814739
2.8343873023986816,0.004742056131362915,-0.008949890732765198,-0.04703611135482788,-0.43861106038093567,-0.20318327844142914,0.3174150288105011,-0.22132365692906927,0.47567162149587794,0.10882120922490895
2.8442461490631104,0.002447664737701416,-0.0035619884729385376,-0.05982404947280884,-0.38742271065711975,-0.18732842803001404,0.3533823490142822,-0.22346529402679982,0.4748012588053523,0.11381740409546674
2.8542590141296387,-0.0054527223110198975,-0.0007311403751373291,-0.06628924608230591,-0.3384670913219452,-0.17763499915599823,0.39280208945274353,-0.22499088595224936,0.4741136240458529,0.11892662402852125
2.864377021789551,-0.012201696634292603,0.004379004240036011,-0.06912177801132202,-0.3013159930706024,-0.18111708760261536,0.4084175229072571,-0.2259944079457019,0.47348047407718474,0.12409500741894373
2.8743531703948975,-0.01315656304359436,0.005680546164512634,-0.06809324026107788,-0.28244855999946594,-0.18429143726825714,0.41003847122192383,-0.22671001585428152,0.4728010028254599,0.1292096793026368
2.8844852447509766,-0.014443516731262207,-0.0031548887491226196,-0.06178158521652222,-0.2797851264476776,-0.17595015466213226,0.40352731943130493,-0.22735273085304863,0.4721442497940695,0.13424123200411706
2.8943562507629395,-0.022151052951812744,-0.009670689702033997,-0.0570942759513855,-0.2830163538455963,-0.18835222721099854,0.3857690989971161,-0.22805786538941686,0.47143848107355796,0.13917682884423588
2.904470205307007,-0.020672112703323364,-0.01063866913318634,-0.05013632774353027,-0.2903887629508972,-0.19376324117183685,0.3588309586048126,-0.2289263563069369,0.4705933089795082,0.14391793413764625
2.9143710136413574,-0.013860106468200684,-0.012494519352912903,-0.044604361057281494,-0.28860604763031006,-0.2078883796930313,0.3452368378639221,-0.2299233189494292,0.46963188887578416,0.14849267164002422
2.924476146697998,-0.011585325002670288,-0.01008172333240509,-0.04016917943954468,-0.2887168526649475,-0.212449312210083,0.3253086805343628,-0.23098713542555882,0.4685269991874727,0.15289828289063415
2.9343743324279785,-0.009949296712875366,-0.005607679486274719,-0.0375484824180603,-0.29521000385284424,-0.21493972837924957,0.31687992811203003,-0.23215961891061604,0.4673630435853788,0.15719175274119557
2.9443283081054688,-0.0061664879322052,-0.004171714186668396,-0.03913116455078125,-0.3073795735836029,-0.2198420763015747,0.30684810876846313,-0.23342815352971888,0.4661640236585105,0.1614579896659647
2.9549970626831055,-0.0036620497703552246,-0.001944422721862793,-0.034616291522979736,-0.3267959952354431,-0.2183040827512741,0.29330894351005554,-0.2349189194995092,0.464935980369608,0.16568106489963297
2.9643712043762207,-0.007660806179046631,-0.007342919707298279,-0.023148775100708008,-0.345777690410614,-0.2086237668991089,0.28386190533638,-0.23664195901473073,0.46377538873586877,0.16987777290332254
2.9743921756744385,-0.013949602842330933,-0.01672917604446411,-0.013258934020996094,-0.3494293987751007,-0.21040214598178864,0.27856552600860596,-0.23851238462274438,0.46265282295959714,0.1740759332077957
2.984504222869873,-0.015533030033111572,-0.01417975127696991,-0.0066675543785095215,-0.3447986841201782,-0.22105905413627625,0.2594813108444214,-0.24041167882464187,0.4614408797592647,0.17814696252403106
2.9944581985473633,-0.016051530838012695,-0.00845499336719513,0.00019800662994384766,-0.33812063932418823,-0.22179825603961945,0.25333836674690247,-0.24234177162088422,0.46016761990649935,0.182072218311026
3.004502296447754,-0.022242367267608643,-0.005226582288742065,-0.0020126700401306152,-0.33145126700401306,-0.22067493200302124,0.24964827299118042,-0.24421929149189642,0.4588672535243864,0.18592812269723996
3.0144591331481934,-0.02910536527633667,-0.00335538387298584,-0.0029867887496948242,-0.33269426226615906,-0.21817171573638916,0.235926553606987,-0.2461283297206084,0.45757304698753465,0.18968607506122556
3.024470329284668,-0.035080134868621826,-0.0030210018157958984,0.0013587474822998047,-0.3376288414001465,-0.20395871996879578,0.22157824039459229,-0.24812826903165247,0.45634041198155406,0.19332952816168048
3.0344910621643066,-0.03996047377586365,-0.0030150264501571655,0.00014960765838623047,-0.33779487013816833,-0.18481417000293732,0.21202436089515686,-0.25021619652694216,0.4552653310660502,0.19688139249985193
3.04445219039917,-0.04503020644187927,0.0011313706636428833,-0.004603385925292969,-0.3112391531467438,-0.16575925052165985,0.20302873849868774,-0.25223674868099344,0.45436593847229767,0.20028784185851936
3.0547752380371094,-0.0491061806678772,0.011199653148651123,-0.007188200950622559,-0.2624916136264801,-0.1582445353269577,0.19788432121276855,-0.2539415073401875,0.4535485366830255,0.20346250304630292
3.0646610260009766,-0.05236142873764038,0.024107366800308228,-0.009809792041778564,-0.2051747739315033,-0.1539059728384018,0.19331753253936768,-0.25518837632008395,0.4526952634566183,0.20634197067314322
3.0751101970672607,-0.05035319924354553,0.03278490900993347,-0.008819222450256348,-0.15410256385803223,-0.145149365067482,0.17840684950351715,-0.2559817761620864,0.4518384530507327,0.20887940080172268
3.084529161453247,-0.04936790466308594,0.02916768193244934,-0.00943911075592041,-0.12811064720153809,-0.13458487391471863,0.1643967628479004,-0.256503242327231,0.45100065761343905,0.2111073644406229
3.0945961475372314,-0.05428874492645264,0.022516489028930664,-0.007155954837799072,-0.11738469451665878,-0.12661997973918915,0.1431005895137787,-0.25692750420250343,0.45020440177133714,0.21310588044769257
3.104560136795044,-0.05233508348464966,0.014247983694076538,-0.004950284957885742,-0.12088648229837418,-0.12019750475883484,0.11243642121553421,-0.25744634813594763,0.4493936615566682,0.2148185455498355
3.1145901679992676,-0.04790815711021423,0.005441784858703613,0.0008901357650756836,-0.13119366765022278,-0.10847519338130951,0.09408559650182724,-0.25814261338742334,0.44862164334381976,0.21633459537666397
3.1246771812438965,-0.04825076460838318,0.005497545003890991,0.0009447932243347168,-0.1354406177997589,-0.09279236942529678,0.07973302155733109,-0.25896880041095227,0.44796403035417587,0.2177497081604105
3.1346540451049805,-0.04479283094406128,0.010582387447357178,-0.003664255142211914,-0.12132038176059723,-0.08718370646238327,0.07083384692668915,-0.2598333075550891,0.44741543700929126,0.2190291631178509
3.144580125808716,-0.04293784499168396,0.015939265489578247,-0.007230699062347412,-0.1019086018204689,-0.0815386101603508,0.06683085113763809,-0.2605428062822354,0.4468656089095507,0.22017847528937282
3.1557631492614746,-0.03771677613258362,0.022445350885391235,-0.014232039451599121,-0.08366221934556961,-0.06723938882350922,0.06438975036144257,-0.2610894958844197,0.44637221052408826,0.22118888510333795
3.164534091949463,-0.038949787616729736,0.028162211179733276,-0.021987199783325195,-0.0847674310207367,-0.05353262647986412,0.04990002140402794,-0.26158452255709785,0.4459944488597966,0.22210001629378137
3.174628257751465,-0.039450228214263916,0.022532880306243896,-0.024602293968200684,-0.09007716178894043,-0.037020184099674225,0.036735959351062775,-0.26219942263469986,0.44573699384725857,0.22289377367453694
3.1846392154693604,-0.044669389724731445,0.020548641681671143,-0.024945080280303955,-0.08769363164901733,-0.027557704597711563,0.020622504875063896,-0.26308487095356614,0.44488839584018325,0.22338095187919818
3.1945242881774902,-0.04781728982925415,0.022512584924697876,-0.02525949478149414,-0.07792221009731293,-0.02126266062259674,-0.0006586556555703282,-0.2638954691972857,0.44415757552425733,0.2236968304405476
3.204524040222168,-0.04630172252655029,0.023185938596725464,-0.022997677326202393,-0.0543268658220768,-0.022421400994062424,-0.014371005818247795,-0.2646205961801503,0.44340503385145774,0.22376001610356974
3.2145321369171143,-0.044771045446395874,0.02598392963409424,-0.026105165481567383,-0.023709682747721672,-0.025577735155820847,-0.028861744329333305,-0.2651997434959135,0.44258160589330076,0.22358695705425555
3.224581241607666,-0.041383594274520874,0.02836000919342041,-0.029964745044708252,-0.0037868425715714693,-0.024920467287302017,-0.039273373782634735,-0.26564690373309524,0.44169439930640336,0.22316570911709488
3.23455810546875,-0.041211217641830444,0.023545831441879272,-0.034066200256347656,0.01564917340874672,-0.015042359009385109,-0.04352729395031929,-0.26601860861134924,0.4408800467540005,0.22261102848830994
3.244579315185547,-0.0440540611743927,0.020978540182113647,-0.03710275888442993,0.034938979893922806,-0.018643219023942947,-0.047770772129297256,-0.26627559059947464,0.44002672345835464,0.22192953000042726
3.2546210289001465,-0.04135692119598389,0.020432353019714355,-0.037798941135406494,0.05248916149139404,-0.02809642255306244,-0.05504775419831276,-0.26631980346306633,0.43905787591186934,0.22109822120019998
3.267843246459961,-0.034351468086242676,0.01682382822036743,-0.03658699989318848,0.06205496937036514,-0.03008953109383583,-0.060506969690322876,-0.2662484489865006,0.4379288152155672,0.2201320069840961
3.275034189224243,-0.032030969858169556,0.012651383876800537,-0.03311467170715332,0.0645122081041336,-0.03140415623784065,-0.05474335327744484,-0.2661605888386541,0.43676398817249196,0.21912716610758262
3.2849221229553223,-0.032262057065963745,0.012175589799880981,-0.03333854675292969,0.0577312596142292,-0.035631656646728516,-0.0509566068649292,-0.26603691343668506,0.4357386918679254,0.21823863934261942
3.29502010345459,-0.026706725358963013,0.013493448495864868,-0.0366208553314209,0.05825003236532211,-0.035407375544309616,-0.047076862305402756,-0.2659204318920473,0.43479826003362454,0.21742408329068735
3.305150032043457,-0.019937455654144287,0.009217917919158936,-0.03654760122299194,0.05522068589925766,-0.040448207408189774,-0.03665271773934364,-0.2657496668199293,0.43392891639262754,0.2166887922440093
3.3145711421966553,-0.023017793893814087,0.010171711444854736,-0.03223985433578491,0.054889921098947525,-0.053764279931783676,-0.03170988708734512,-0.2655044148784598,0.4330071529034463,0.21604919102460304
3.3247570991516113,-0.02332407236099243,0.012432128190994263,-0.023936986923217773,0.04734278842806816,-0.062291454523801804,-0.0374591201543808,-0.26529666692192533,0.43195480709399786,0.2154150109098556
3.334810256958008,-0.025306284427642822,0.009213000535964966,-0.020578742027282715,0.03185064718127251,-0.06352467834949493,-0.044593408703804016,-0.2652171332079194,0.430864009410016,0.2147689672861782
3.344797134399414,-0.03077411651611328,0.007009387016296387,-0.018609285354614258,0.017262648791074753,-0.05909769609570503,-0.0536273829638958,-0.2652869513941425,0.4298347290312048,0.21414348800666713
3.3547351360321045,-0.029561281204223633,0.00482255220413208,-0.01782757043838501,0.016711758449673653,-0.05437764897942543,-0.0635397806763649,-0.2654500683077454,0.4288553491434499,0.21345486516822815
3.367739200592041,-0.025024712085723877,0.007124423980712891,-0.01814746856689453,0.027371592819690704,-0.056580349802970886,-0.0639517679810524,-0.26556305100509797,0.4278731278758192,0.21268939029913345
3.375002145767212,-0.021412014961242676,0.015175193548202515,-0.017583727836608887,0.04307618737220764,-0.06436751782894135,-0.06384897232055664,-0.26555332680826427,0.4268508892108056,0.21188684882027556
3.3851890563964844,-0.014898031949996948,0.01744210720062256,-0.00992882251739502,0.04985153675079346,-0.07426595687866211,-0.06906557083129883,-0.26541789372831254,0.42575913312707914,0.21099888911179088
3.394886016845703,-0.012777388095855713,0.009342283010482788,-0.003757178783416748,0.043587248772382736,-0.07325378060340881,-0.0686885192990303,-0.2653045156403984,0.4245826053150376,0.21008496954003808
3.4053051471710205,-0.012778520584106445,0.006431251764297485,-0.0037614107131958008,0.028155293315649033,-0.06220405176281929,-0.06394356489181519,-0.2653168200508349,0.4235097912833959,0.20923990714859397
3.4166760444641113,-0.01620161533355713,0.00515979528427124,-0.009521901607513428,0.013161813840270042,-0.05357590317726135,-0.06013817340135574,-0.2654484490650668,0.4225259699453022,0.20851069664994887
3.424960136413574,-0.012516885995864868,0.0023977160453796387,-0.012374818325042725,0.005181651562452316,-0.04382553696632385,-0.05043201521039009,-0.26565428398455565,0.42158933832636153,0.20785908492667368
3.4349591732025146,-0.012665987014770508,0.0035067498683929443,-0.009318828582763672,0.007952138781547546,-0.03957797586917877,-0.03278133273124695,-0.2658016357410326,0.4207542867234214,0.2073628183207442
3.4449520111083984,-0.013345062732696533,0.00820133090019226,-0.005382061004638672,0.01620633900165558,-0.03505060076713562,-0.01564362272620201,-0.26585440033207874,0.4200245657468713,0.2070083403673251
3.4550342559814453,-0.011170238256454468,0.010047733783721924,-0.0038889050483703613,0.021019671112298965,-0.03210887312889099,0.0049702017568051815,-0.26585431009221894,0.41940927195820427,0.20681471729320322
3.4675612449645996,-0.00791218876838684,0.011363029479980469,-0.0037527084350585938,0.02659047208726406,-0.030761579051613808,0.018303848803043365,-0.2657720537769291,0.4189574492311598,0.20679158383084617
3.475069999694824,-0.005517691373825073,0.010814696550369263,-0.001743912696838379,0.030412156134843826,-0.034598350524902344,0.031524207442998886,-0.2655180387148363,0.4185818204274082,0.20689003812440732
3.48557710647583,-0.0030933022499084473,0.01075202226638794,0.0006661415100097656,0.02741929702460766,-0.03936966881155968,0.03551548719406128,-0.2651876820346965,0.4181632011384353,0.2070645131184631
3.4951353073120117,-0.0013484954833984375,0.010972857475280762,0.004558265209197998,0.01845434680581093,-0.0438670814037323,0.03513353690505028,-0.26489561429263475,0.4176375633468504,0.20725699999738917
3.5058350563049316,-0.0003973245620727539,0.008957505226135254,0.005120515823364258,0.011774074286222458,-0.03991202265024185,0.03555138409137726,-0.2646438689179974,0.417134533378234,0.20749531730673876
