timestamp,accel_x,accel_y,accel_z,rotation_x,rotation_y,rotation_z, pitch,roll,yaw
0.04169178009033203,-0.009886108338832855,-0.028933513909578323,0.01465696096420288,-0.010247127152979374,-0.035049691796302795,0.00912869069725275,-0.04765889559975333,0.11926695281098483,0.0028459764616479994
0.04951190948486328,-0.011772893369197845,-0.031477443873882294,0.016007304191589355,-0.0032182459253817797,-0.032947391271591187,0.01460095401853323,-0.047715707972122386,0.1189234474399333,0.0029650591078346543
0.06123208999633789,-0.013635188341140747,-0.024280108511447906,0.017222344875335693,0.006643189582973719,-0.030971990898251534,0.019094398245215416,-0.047674695652605445,0.11860086983533064,0.003132644556783701
0.06931209564208984,-0.014231294393539429,-0.016395818442106247,0.01787090301513672,0.01084805466234684,-0.026469653472304344,0.020599083974957466,-0.04755699554237982,0.11832431712708012,0.0033213895133424568
0.07179689407348633,-0.016215436160564423,-0.014753777533769608,0.019260883331298828,0.0036259114276617765,-0.022603319957852364,0.016606366261839867,-0.04745598083267123,0.11809350388950944,0.0034938220720837922
0.07848882675170898,-0.016060687601566315,-0.014539502561092377,0.020621657371520996,-0.018320133909583092,-0.012909945100545883,0.014627903699874878,-0.04750115461485813,0.11792236313049986,0.00366437919975187
0.08642387390136719,-0.017125383019447327,-0.022083066403865814,0.022284090518951416,-0.03295110911130905,-0.006469357758760452,0.006230425555258989,-0.047751304703842506,0.11782803577543634,0.0037916757281328405
0.09767889976501465,-0.02095790207386017,-0.022995423525571823,0.025234103202819824,-0.032182253897190094,-0.000350212212651968,0.0007104913238435984,-0.04806893317670871,0.1177862719395096,0.0038666808265860656
0.1064610481262207,-0.02103593945503235,-0.022106632590293884,0.026927173137664795,-0.0262798722833395,0.006451811641454697,0.0009489507647231221,-0.048355400394340234,0.11780505113863415,0.003911929869846786
0.11645889282226562,-0.019368000328540802,-0.016728203743696213,0.022874116897583008,-0.017273860052227974,0.017156919464468956,0.00018568872474133968,-0.048577208164725764,0.11792462146252464,0.003936524104251879
0.12653779983520508,-0.019142039120197296,-0.010985501110553741,0.01533573865890503,-0.012193248607218266,0.02318720333278179,-0.0012507671490311623,-0.04872457436685055,0.11812840826486957,0.003950371079187838
0.13653898239135742,-0.018952809274196625,-0.01010926440358162,0.00747370719909668,-0.003783784806728363,0.0275699682533741,-0.00585563899949193,-0.048809745179409246,0.11838426369087852,0.003934138034832159
0.14771509170532227,-0.016658321022987366,-0.009906712919473648,0.006069660186767578,0.0022623396944254637,0.026177624240517616,-0.011097964830696583,-0.048820828791812376,0.11864015258274754,0.0038510722885175645
0.1569058895111084,-0.01551065593957901,-0.010892797261476517,0.0068669915199279785,-0.0007811208488419652,0.021834274753928185,-0.016388067975640297,-0.04881508151554457,0.1188676156928011,0.003714950971304242
0.1666419506072998,-0.01393129676580429,-0.012382734566926956,0.005194246768951416,-0.002929193200543523,0.022549068555235863,-0.02546859346330166,-0.04885548382702898,0.11906010253793102,0.00350192775121742
0.17670583724975586,-0.012408271431922913,-0.015433669090270996,0.0011112689971923828,-0.006089566275477409,0.015301007777452469,-0.033159270882606506,-0.04893104424152426,0.11923266840937949,0.0032136290161734722
0.18671703338623047,-0.01087699830532074,-0.022413481026887894,-0.0013046860694885254,-0.012626228854060173,0.013447092846035957,-0.03829725459218025,-0.049059816845440724,0.11935107610324856,0.002861707116856035
0.19805908203125,-0.010073646903038025,-0.022185370326042175,-0.001574873924255371,-0.014092298224568367,0.013634046539664268,-0.042655251920223236,-0.04875504887162264,0.11892388785538931,0.0024438253407101282
0.20678997039794922,-0.010445401072502136,-0.02502145618200302,-0.0015707612037658691,-0.010050119832158089,0.009524788707494736,-0.04181710258126259,-0.04860022694240963,0.1184362525675977,0.0020140312939908966
0.21668577194213867,-0.011230066418647766,-0.02952830120921135,-0.003792881965637207,0.00877842865884304,0.002191242529079318,-0.035350680351257324,-0.04831547372791695,0.11785653106793045,0.0015988974474350816
0.226593017578125,-0.009621769189834595,-0.027330122888088226,-0.005789399147033691,0.022241439670324326,-0.0011868886649608612,-0.028950093314051628,-0.0478409927000778,0.11724775026961846,0.0012280521895540238
0.23668479919433594,-0.007620498538017273,-0.021839335560798645,-0.005689382553100586,0.02425798587501049,-0.004388007801026106,-0.020977653563022614,-0.04721705367189626,0.1166420137490519,0.0009308555370852106
0.24768590927124023,-0.009217657148838043,-0.02517012506723404,-0.00686877965927124,0.016941582784056664,-0.002560725435614586,-0.015213454142212868,-0.04659513082514724,0.11614139157577191,0.000714518471847057
0.2567000389099121,-0.009421616792678833,-0.029077578336000443,-0.0036959052085876465,0.007380302995443344,-0.002482161857187748,-0.00696697598323226,-0.04595478289143279,0.11574374713717736,0.0005736836346869294
0.2668468952178955,-0.01034402847290039,-0.03529652580618858,-0.0012601017951965332,-0.0015760076930746436,-0.0003479928709566593,0.0008815728360787034,-0.04516912988009385,0.11543897738161948,0.0005170157986136876
0.2767667770385742,-0.00854533165693283,-0.03436049073934555,-0.0017026066780090332,-0.005460494197905064,-0.0013828971423208714,0.006565823685377836,-0.044476540909171504,0.11517584260190357,0.0005455050038619064
0.286956787109375,-0.007202744483947754,-0.03019632026553154,0.00044167041778564453,-0.0028878641314804554,-0.005828467197716236,0.009818715043365955,-0.0437143379135028,0.11486463415395515,0.0006218127644436871
0.2986869812011719,-0.005857557058334351,-0.026157088577747345,0.0017896294593811035,-0.004309992305934429,-0.00714540109038353,0.013022764585912228,-0.04281757802739545,0.11448875686766288,0.0007244316898549556
0.3069889545440674,-0.004279002547264099,-0.021194588392972946,0.0013113021850585938,-0.0036823684349656105,-0.00961614865809679,0.014593390747904778,-0.04203528430431203,0.11415516098040965,0.0008562487936099335
0.31696081161499023,-0.0019642040133476257,-0.014933958649635315,0.001738905906677246,0.0005344806704670191,-0.01729137822985649,0.011523031629621983,-0.04143514409360356,0.11383405283792507,0.0009783411670139077
0.32706689834594727,0.0012578219175338745,-0.008608561009168625,0.0016518235206604004,0.0031703775748610497,-0.02265232242643833,0.007906032726168633,-0.04070910975089128,0.11338245657723156,0.001056130460866079
0.33701395988464355,0.002664431929588318,-0.004438895732164383,0.0016772150993347168,-0.006739511154592037,-0.021064013242721558,0.002017517574131489,-0.03991098675607078,0.11289952660287834,0.0011007853068799706
0.34929609298706055,0.004042573273181915,0.0001496635377407074,0.002437770366668701,-0.009692324325442314,-0.02088753506541252,-0.0037451903335750103,-0.038983811467189496,0.11242944863627542,0.0010878165480057544
0.35696887969970703,0.0034806430339813232,8.415430784225464e-06,0.003707706928253174,-0.007314387708902359,-0.02333923988044262,-0.011563698761165142,-0.03813260558181286,0.11200818204242535,0.0010136299870333993
0.3677659034729004,0.0009962990880012512,0.00039819255471229553,0.008903682231903076,-0.00577637879177928,-0.023324860259890556,-0.015193001367151737,-0.0374066172784579,0.11163346552385542,0.0008831499642601129
0.37684202194213867,0.0007644146680831909,0.00405537337064743,0.01338285207748413,-0.004506849683821201,-0.01726590096950531,-0.015912853181362152,-0.036816052035849554,0.11134211853841451,0.0007256591367400811
0.38684606552124023,0.0012979432940483093,0.0050369128584861755,0.01389390230178833,-0.005064798519015312,-0.014127321541309357,-0.018345864489674568,-0.03638354132822572,0.11114114764741131,0.0005618614399664395
0.3985757827758789,-0.0005146786570549011,3.548711538314819e-05,0.013745129108428955,-0.004467185586690903,-0.009414857253432274,-0.01967504806816578,-0.03615104722405547,0.11104483298889972,0.00036942079838632555
0.4072749614715576,-0.00040156394243240356,-0.002864290028810501,0.018167972564697266,-0.005553821567445993,-0.0052434601821005344,-0.016612200066447258,-0.03609057917622158,0.11108433256323433,0.00019260517831671251
0.4173851013183594,-7.612258195877075e-05,-0.0020426250994205475,0.018961310386657715,-0.008320312947034836,0.0029199274722486734,-0.014224676415324211,-0.03615396434122853,0.11120244718595675,5.4320302420916375e-05
0.4297337532043457,-0.0003176480531692505,-0.004664383828639984,0.018366575241088867,-0.007295362651348114,0.008332714438438416,-0.010019863955676556,-0.03633443714049984,0.11141564204986117,-5.464476631613176e-05
0.4386298656463623,0.0013338848948478699,-0.009024590253829956,0.017666757106781006,-0.005977896973490715,0.009511428885161877,-0.009346883744001389,-0.03646804348598859,0.11162767916936106,-0.0001356888949705187
0.44816088676452637,0.0003658682107925415,-0.008360765874385834,0.015402257442474365,-0.005389554426074028,0.011705385521054268,-0.005645462311804295,-0.03656722348130426,0.11178848786644044,-0.00020483426527354937
0.4569888114929199,-0.0008651465177536011,-0.005862496793270111,0.015373587608337402,-0.004068892914801836,0.015525157563388348,-0.007009533699601889,-0.03675462941288773,0.11198403228500774,-0.0002597552542122731
0.4671058654785156,-0.0019085481762886047,-0.00968901813030243,0.01305454969406128,0.001372277969494462,0.017066949978470802,-0.0061285593546926975,-0.03690388122812681,0.11220560514585823,-0.0003208385089346777
0.4771709442138672,-0.003766655921936035,-0.008321788161993027,0.012149572372436523,0.0005656066350638866,0.020031580701470375,-0.005319491028785706,-0.036894681816610056,0.11238647623299583,-0.0003923059132225652
0.4871249198913574,-0.0022136270999908447,-0.006049193441867828,0.009903013706207275,4.955241456627846e-05,0.01656050607562065,-0.007942278869450092,-0.03683456618837927,0.11257400373743172,-0.0004533054202423372
0.49825191497802734,-0.0022299811244010925,-0.006196536123752594,0.005476593971252441,-0.0019464868819341063,0.012723955325782299,-0.01265713945031166,-0.0368140455178529,0.11272869049034029,-0.0005566143593924647
0.5072298049926758,-0.001984313130378723,-0.009742092341184616,0.0057108402252197266,-0.0022675974760204554,0.006394598633050919,-0.013405701145529747,-0.03675849675926932,0.11283449194600202,-0.00067988739591501
0.5172369480133057,-0.001981973648071289,-0.010647732764482498,0.006561279296875,-0.006806955207139254,0.0009811907075345516,-0.015178566798567772,-0.0366417193215235,0.11290848906385133,-0.0008165440163774797
0.5272328853607178,-0.0022838786244392395,-0.009563688188791275,0.0043790340423583984,-0.010272078216075897,-2.579484134912491e-05,-0.012730801478028297,-0.0365647005355618,0.11293560121601133,-0.0009517964474977745
0.5372490882873535,-0.002227388322353363,-0.00941075012087822,0.0009322762489318848,-0.006946588400751352,-0.0005206102505326271,-0.009605582803487778,-0.036549084292443135,0.11292475487652341,-0.001058953319047373
0.5479779243469238,-0.0023223012685775757,-0.009774640202522278,-0.001712203025817871,-0.003906739875674248,-0.0015789945609867573,-0.006472426932305098,-0.03639406886878794,0.11288139097685287,-0.0011365943486104117
0.5572028160095215,-0.002642698585987091,-0.008604966104030609,-0.00042885541915893555,0.0006781583651900291,-0.0026346715167164803,-0.005491052288562059,-0.0362161036323008,0.1127884236664785,-0.0011952157145475235
0.5674519538879395,-0.003120891749858856,-0.009488910436630249,-0.0005667209625244141,0.009008542634546757,-0.002199200913310051,-7.434224244207144e-05,-0.0360318125692985,0.11271604953385564,-0.0012185434176395467
0.5772600173950195,-0.003446139395236969,-0.008721653372049332,-0.000641167163848877,0.011392071843147278,-0.004167277365922928,0.004261550027877092,-0.035783193781460075,0.11264304970555365,-0.0012169704602023467
0.5873680114746094,-0.0024624764919281006,-0.009697332978248596,0.0010745525360107422,0.011010190472006798,-0.006171349436044693,0.008109232410788536,-0.03543113609090412,0.11255765541345317,-0.0011698461538171099
0.5980799198150635,-0.0033752918243408203,-0.010765697807073593,0.0026388168334960938,0.009723618626594543,-0.009487251751124859,0.005126758012920618,-0.03508021470741332,0.11246132816470399,-0.0011110077469232125
0.6073207855224609,-0.003140963613986969,-0.011426139622926712,0.0036890506744384766,0.005010022781789303,-0.015640219673514366,0.0028576385229825974,-0.034794436114237416,0.11230107377478456,-0.0010796576352737168
0.6172928810119629,-0.0040244609117507935,-0.012346219271421432,0.006159722805023193,-0.0072096255607903,-0.016336102038621902,0.0015335144707933068,-0.034600509046407824,0.11209905010917644,-0.0010675826633528968
0.6272830963134766,-0.003589056432247162,-0.013777431100606918,0.007603645324707031,-0.01512292493134737,-0.013924121856689453,0.0031776968389749527,-0.03450578242699738,0.1119060911602716,-0.0010396042803413228
0.6373291015625,-0.004931047558784485,-0.012898452579975128,0.0061890482902526855,-0.014382033608853817,-0.012396000325679779,0.005204895045608282,-0.034481283894344184,0.11173620960621031,-0.0009813203723179544
0.6480438709259033,-0.0033512189984321594,-0.011448349803686142,0.004078030586242676,-0.00439995713531971,-0.015263736248016357,0.009815679863095284,-0.03437388896918527,0.11154319723831496,-0.0008961371635606946
0.6573889255523682,-0.0038607195019721985,-0.009626206010580063,0.004352450370788574,0.004997006617486477,-0.01594018004834652,0.012166451662778854,-0.03416905961733973,0.11133334286649779,-0.0007868552965919219
0.667360782623291,-0.0041229575872421265,-0.00544433668255806,0.005754649639129639,0.010882875882089138,-0.012520725838840008,0.014691607095301151,-0.033862745827810195,0.11116604546996983,-0.000658466661804013
0.6775188446044922,-0.003407306969165802,-0.004721038043498993,0.005086660385131836,0.018765833228826523,-0.01682838797569275,0.013414354994893074,-0.033459651836394065,0.11098170528945908,-0.0005327684334122688
0.6875100135803223,-0.003995761275291443,-0.0044891685247421265,0.0016938447952270508,0.022812223061919212,-0.021095171570777893,0.00992225855588913,-0.03298337878346421,0.11075820137804682,-0.00044481535662589075
0.6987099647521973,-0.002377048134803772,-0.001548808068037033,0.004318177700042725,0.01232096552848816,-0.02433330938220024,0.006692111026495695,-0.03252995903225042,0.11047876160610588,-0.00038685073003698
0.707568883895874,-0.0021652132272720337,-0.0013752095401287079,0.005245566368103027,0.0015526236966252327,-0.025146594271063805,0.005028487183153629,-0.03215779454264631,0.1102027417865258,-0.000335920187552156
0.7188878059387207,-0.00263986736536026,-0.0019943825900554657,0.006295919418334961,-0.0026959169190376997,-0.02348211780190468,0.0028138025663793087,-0.03190709634740058,0.10988095687008657,-0.00029886931448710216
0.7276449203491211,-0.0014662295579910278,-0.0036392994225025177,0.005847334861755371,0.008350458927452564,-0.029751775786280632,0.00616453867405653,-0.03165979637247707,0.10958956581528653,-0.0002562094571514005
0.738339900970459,-0.0024312958121299744,-0.0006514154374599457,0.006352603435516357,0.025613069534301758,-0.02848837338387966,0.00847749412059784,-0.03131151350076584,0.1092542675707418,-0.00020477762722347168
0.7494268417358398,-0.0021681711077690125,0.007698088884353638,0.007603943347930908,0.03408205509185791,-0.025231417268514633,0.013154963962733746,-0.030926903516362157,0.10894204885480645,-0.00012732824877984892
0.7576138973236084,-0.0025310665369033813,0.010327793657779694,0.0038591623306274414,0.055407583713531494,-0.01828615926206112,0.01522157620638609,-0.0304179356593321,0.10872201545625118,-3.4263819276296687e-05
0.7675979137420654,-0.0037574991583824158,0.006566399708390236,0.0034506916999816895,0.08875120431184769,-0.02185315266251564,0.012848327867686749,-0.029647119082564073,0.10847955083072518,2.8314791259964932e-05
0.7775728702545166,-0.005233943462371826,0.00926266424357891,0.0061460137367248535,0.12351983785629272,-0.025717398151755333,0.014735975302755833,-0.028613625798902843,0.10824227322269633,5.090501923278861e-05
0.7875328063964844,-0.0034219101071357727,0.01429993100464344,0.007275104522705078,0.15569046139717102,-0.021291401237249374,0.02363455481827259,-0.027253198095433685,0.10802697108075268,9.069687923026432e-05
0.798588752746582,-0.002357184886932373,0.015548862516880035,0.003939330577850342,0.18256494402885437,-0.025259245187044144,0.027760857716202736,-0.02559169653733016,0.10781067434883944,0.00017409786358787082
0.807671070098877,-0.0012320727109909058,0.018884580582380295,-0.003584563732147217,0.19403284788131714,-0.03360515087842941,0.034862760454416275,-0.023750780374327003,0.10753347786730465,0.00028538888151021023
0.8176398277282715,0.0020926743745803833,0.01814013347029686,-0.0035800933837890625,0.20769859850406647,-0.04212566837668419,0.033834513276815414,-0.021870225677753777,0.10717745925189495,0.00041075822769729955
0.8275609016418457,0.00475822389125824,0.009868061169981956,0.004242122173309326,0.2073572427034378,-0.05433981120586395,0.02478621155023575,-0.020177933563307136,0.10670256806311632,0.0004691389791064639
0.8376979827880859,0.0008020848035812378,0.007357411086559296,0.005137979984283447,0.20210683345794678,-0.05347108840942383,0.020200248807668686,-0.018614196420852613,0.10616626131235178,0.0004707567167367016
0.8484079837799072,0.002048969268798828,0.0052205342799425125,0.005076348781585693,0.19627194106578827,-0.0613148994743824,0.009121925570070744,-0.01704293766657833,0.10556910999614916,0.0003969480010617255
0.8575649261474609,-9.045004844665527e-05,-0.0033738501369953156,0.004762828350067139,0.2079637497663498,-0.07284238934516907,0.008402072824537754,-0.0155358022839414,0.10486382496042357,0.0002680092587478623
0.8675999641418457,-0.002970673143863678,-0.0014368221163749695,0.008768439292907715,0.2292822152376175,-0.10305564105510712,0.010948853567242622,-0.01398007366646948,0.10398310113809739,0.0001348743048025462
0.8775949478149414,0.00010133534669876099,0.005582005716860294,0.010853111743927002,0.2526591420173645,-0.11572109907865524,0.01670154742896557,-0.012210116183061014,0.10293240626492382,1.5037126583502076e-05
0.8876979351043701,0.003031715750694275,0.008993718773126602,0.011547327041625977,0.25490403175354004,-0.13801008462905884,0.02093490958213806,-0.010354682412475913,0.10171769609402692,-4.436858749703074e-05
0.898392915725708,0.001728840172290802,0.004640054889023304,0.009092986583709717,0.21685835719108582,-0.17324769496917725,0.009593305177986622,-0.008650529343469373,0.10034156981816274,-0.00012482592832022146
0.9077739715576172,0.0038302242755889893,-0.0006208755075931549,0.01614534854888916,0.1122664362192154,-0.2081843614578247,-0.004881241358816624,-0.007472214795450941,0.098719439525938,-0.000265226853285715
0.9176559448242188,0.0009062141180038452,-0.02247961051762104,0.032513439655303955,-0.051868706941604614,-0.2647552490234375,-0.045476071536540985,-0.007571918257972593,0.09656729835890507,-0.0005283403951223157
0.9277598857879639,-0.001035444438457489,-0.046306200325489044,0.05937755107879639,-0.3647285997867584,-0.3647763729095459,-0.16760490834712982,-0.0099142227994266,0.09369127155125066,-0.001338887882198317
0.9378249645233154,-0.003047443926334381,-0.07543565332889557,0.09505611658096313,-0.966262936592102,-0.4241904318332672,-0.32508665323257446,-0.016644383038979287,0.08985082176326907,-0.003203992826842879
0.9495739936828613,-0.0029253214597702026,-0.1253269463777542,0.1426824927330017,-1.8777652978897095,-0.5689742565155029,-0.5967656970024109,-0.030910550787503585,0.08488553273073092,-0.006369666041576941
0.9576759338378906,-0.0041293129324913025,-0.19565808773040771,0.17915964126586914,-3.082064390182495,-0.800819993019104,-0.9872860312461853,-0.056146023535405085,0.0778781516196536,-0.01231979362505602
0.9679579734802246,-0.005021587014198303,-0.27709630131721497,0.23760616779327393,-4.4972758293151855,-1.0037673711776733,-1.3445268869400024,-0.09474292770708274,0.06812386806418196,-0.021201258054253654
0.9777729511260986,0.017240803688764572,-0.40651631355285645,0.2577020525932312,-5.997189998626709,-1.258514404296875,-1.7834718227386475,-0.1480539759477923,0.055353340263483736,-0.03358507827442796
0.987860918045044,0.037484172731637955,-0.44189518690109253,0.23547488451004028,-7.569086074829102,-1.3446050882339478,-2.1607553958892822,-0.21665755765567343,0.039045824181154876,-0.05059775967706453
0.9985790252685547,0.030426686629652977,-0.36896365880966187,0.23183387517929077,-9.147357940673828,-1.6862339973449707,-2.452782392501831,-0.3011213380049142,0.01850274185106331,-0.07194421422122119
1.007828950881958,0.034561872482299805,-0.3076114356517792,0.2099934220314026,-10.882826805114746,-2.1157994270324707,-2.7353367805480957,-0.4015031805959832,-0.010129363306044168,-0.09911321119830865
1.0178570747375488,0.01416071504354477,-0.23631995916366577,0.2599254250526428,-12.760833740234375,-2.2509119510650635,-2.975654363632202,-0.5187508453652161,-0.04800351598024423,-0.1349323093923047
1.0277857780456543,0.0055391862988471985,-0.1684088110923767,0.3038453459739685,-14.842233657836914,-2.329054355621338,-3.020613193511963,-0.6543840914128283,-0.09769809284219301,-0.18313655726868658
1.037904977798462,-0.06994090229272842,-0.0902247428894043,0.28939956426620483,-16.940044403076172,-2.4119551181793213,-2.9229140281677246,-0.8082331450589478,-0.16698242997986448,-0.2510367354157539
1.0493838787078857,-0.12483575940132141,0.002338588237762451,0.31144529581069946,-18.716218948364258,-2.3477060794830322,-2.6507833003997803,-0.9769461499749594,-0.2737204895572641,-0.3568615604104055
1.0595219135284424,-0.12371017038822174,0.07293975353240967,0.294681191444397,-19.72829246520996,-1.953216552734375,-2.3814070224761963,-1.148840697809365,-0.4632445683251431,-0.5481287311498696
1.0687379837036133,-0.1202201247215271,0.17284107208251953,0.2219567894935608,-19.59346580505371,-1.7204477787017822,-2.381901979446411,-1.2921777194218358,-0.8702421128115939,-0.9602615662619547
1.0778019428253174,-0.14818766713142395,0.39018046855926514,0.06635069847106934,-18.389724731445312,-1.5876284837722778,-2.6033008098602295,-1.3324409435655369,-1.6190684255453942,-1.71528178643564
1.0879120826721191,-0.19168785214424133,0.6471046209335327,-0.10286445915699005,-16.820125579833984,-1.8306138515472412,-2.8086392879486084,-1.2457545295267451,-2.1891497975088483,-2.28941074470234
1.0985651016235352,-0.15599200129508972,0.690310537815094,-0.3866978883743286,-15.48452377319336,-2.0511386394500732,-2.7952849864959717,-1.1140761923025095,-2.4500297610424124,-2.5495800142520735
1.1079449653625488,-0.08670955896377563,0.525233268737793,-0.520154595375061,-14.340063095092773,-2.1048407554626465,-2.5984878540039062,-0.9768525852318379,-2.5843087364196013,-2.6804134918076414
1.1178538799285889,-0.045175015926361084,0.4547768235206604,-0.5398350358009338,-12.78200912475586,-2.168954849243164,-2.52055287361145,-0.8458672387517086,-2.664070295890064,-2.753875078324061
1.1279420852661133,-0.03582879900932312,0.6772432923316956,-0.5844144821166992,-10.531576156616211,-2.358640193939209,-2.378779888153076,-0.729738205755083,-2.7155766146097986,-2.795015564787297
1.137990951538086,-0.004243731498718262,0.7097989320755005,-0.6111121773719788,-7.5017242431640625,-2.5098166465759277,-2.265565872192383,-0.6372978758924601,-2.7515578207555778,-2.814299385805727
1.1489028930664062,0.00829392671585083,0.6377257704734802,-0.6404150128364563,-4.460213661193848,-2.787992238998413,-2.169243574142456,-0.5739137840941732,-2.7791884289667057,-2.8157332071650503
1.1581768989562988,0.019541531801223755,0.8162415027618408,-0.6609339714050293,-2.4643173217773438,-2.6768763065338135,-1.9482650756835938,-0.5351037879072704,-2.802076237208985,-2.806609771625102
1.1680917739868164,0.10297808051109314,0.70099937915802,-0.5080544948577881,-1.7677165269851685,-2.136084794998169,-1.6162267923355103,-0.5098796742361151,-2.820403663250178,-2.794755425271458
1.1783559322357178,0.06874588131904602,0.2938256561756134,-0.2893640398979187,-1.692041277885437,-1.5104514360427856,-1.3076759576797485,-0.48901277280638833,-2.833839636272367,-2.784937530380299
1.1879677772521973,0.044428735971450806,0.015040159225463867,-0.06463587284088135,-1.6133944988250732,-1.17953622341156,-1.0779075622558594,-0.4696228461387093,-2.843809849666946,-2.7778196118080016
1.1978979110717773,0.05843842029571533,-0.10311436653137207,0.10842663049697876,-1.3683702945709229,-1.0486083030700684,-0.9710346460342407,-0.45231938571555985,-2.852190423780102,-2.7717037347734848
1.2078449726104736,0.08854156732559204,-0.13637271523475647,0.2819463014602661,-1.1168574094772339,-0.9279677271842957,-0.8327392339706421,-0.4378920832551148,-2.8596067502577083,-2.765906311064292
1.2178330421447754,0.11874739825725555,-0.13484901189804077,0.37799274921417236,-0.9148433208465576,-0.7354488968849182,-0.6467680335044861,-0.4260152757262188,-2.8659703253868734,-2.7611550219053695
1.2280158996582031,0.10207197070121765,-0.14506086707115173,0.32032954692840576,-0.743441641330719,-0.5234638452529907,-0.44862261414527893,-0.41657204085105703,-2.8708866308309244,-2.7578253013919
1.2379717826843262,0.08176375925540924,-0.1644737422466278,0.21107697486877441,-0.5330559015274048,-0.43276503682136536,-0.2812509536743164,-0.4094791883547217,-2.8747826667330747,-2.755844979623318
1.2478868961334229,0.060383617877960205,-0.19212651252746582,0.11545306444168091,-0.4101792871952057,-0.4601077139377594,-0.13376998901367188,-0.40453164512806944,-2.878841543833374,-2.754977936044946
1.2579388618469238,0.06527596712112427,-0.185116708278656,0.08108055591583252,-0.5145001411437988,-0.507841169834137,-0.012258464470505714,-0.39996504894184937,-2.883895553666028,-2.7554558481334857
1.267934799194336,0.05612185597419739,-0.17723512649536133,0.05725300312042236,-0.6214274764060974,-0.5198343396186829,0.10243099182844162,-0.39456179459737456,-2.8898707393928227,-2.7575499355625555
1.2778849601745605,0.037642285227775574,-0.21098637580871582,0.06473040580749512,-0.5615854263305664,-0.5071254968643188,0.1668267548084259,-0.3890460894248366,-2.8961227530236258,-2.7605647968279765
1.2879910469055176,0.017514541745185852,-0.1654541790485382,0.009523987770080566,-0.39524874091148376,-0.5130331516265869,0.1892663985490799,-0.3847787485867602,-2.902409692414805,-2.7637250614453372
1.2979230880737305,-0.016729429364204407,-0.0879179835319519,-0.07971274852752686,-0.32561933994293213,-0.47228971123695374,0.19091250002384186,-0.3819091128814741,-2.9084455203517408,-2.7665762650170462
1.3080589771270752,-0.02714608609676361,-0.0016210973262786865,-0.09956300258636475,-0.3757155239582062,-0.429572194814682,0.18898825347423553,-0.3789748726944357,-2.9140153467661416,-2.7694530112267635
1.3197259902954102,-0.042872264981269836,0.031415700912475586,-0.09008705615997314,-0.46390634775161743,-0.37684640288352966,0.1585962474346161,-0.37529698596534916,-2.919124237116262,-2.7722959694300386
1.327953815460205,-0.04475376009941101,0.05070006847381592,-0.05404353141784668,-0.48845285177230835,-0.3297688066959381,0.10833559930324554,-0.3708920013562416,-2.9235621939584644,-2.77482302768678
1.3381319046020508,-0.044940486550331116,0.05451837182044983,-0.041948020458221436,-0.46117621660232544,-0.2924131751060486,0.05524095147848129,-0.3664060307891267,-2.9273631417751638,-2.776745412758568
1.3486027717590332,-0.05679039657115936,0.06034564971923828,-0.040694475173950195,-0.4073408842086792,-0.2255328744649887,0.04321321099996567,-0.3622434338424213,-2.9305226285847463,-2.7782586279348984
1.358062982559204,-0.03809913992881775,0.09083402156829834,0.009471356868743896,-0.35182860493659973,-0.12704357504844666,0.051255956292152405,-0.35865452149423777,-2.932729096985283,-2.779560654337473
1.3683037757873535,-0.0337422639131546,0.08616667985916138,0.012406349182128906,-0.3039536774158478,-0.058697409927845,0.06485868990421295,-0.3556232552348312,-2.9341243672399417,-2.7809176091014214
1.3782577514648438,-0.04710903763771057,0.08412197232246399,0.003188610076904297,-0.2930392324924469,0.01279701478779316,0.06788457185029984,-0.35282512560074514,-2.9348239724197205,-2.782264309108832
1.3882160186767578,-0.04073098301887512,0.08170557022094727,0.04113268852233887,-0.2954505681991577,0.07773997634649277,0.07319965958595276,-0.3501005725133128,-2.9348344108856708,-2.783648466077694
1.398331880569458,-0.04380220174789429,0.051937222480773926,0.04966437816619873,-0.22060535848140717,0.0851302444934845,0.04216797277331352,-0.3476633904129433,-2.934394668438065,-2.7848668773832657
1.4081928730010986,-0.0414070188999176,0.06820046901702881,0.03746473789215088,-0.09712949395179749,0.036080144345760345,-0.01029230561107397,-0.3460436678824724,-2.9339380752607327,-2.7854141468061844
1.418247938156128,-0.03426790237426758,0.060854166746139526,0.04100543260574341,-0.043699026107788086,-0.008396510034799576,-0.036904476583004,-0.34545081660247773,-2.9337863530080983,-2.7852712672117255
1.4285409450531006,-0.027449727058410645,0.05382567644119263,0.04843008518218994,-0.15274350345134735,0.022577518597245216,-0.016161538660526276,-0.3445204674502579,-2.933727016027518,-2.7851928999044033
1.4386398792266846,-0.0231020450592041,0.08720102906227112,0.054297685623168945,-0.16935524344444275,0.028466833755373955,-0.015671517699956894,-0.3427979107037413,-2.933510439654154,-2.7854433161907557
1.4487080574035645,-0.030680343508720398,0.058511197566986084,0.053945183753967285,-0.057843439280986786,-0.0017864550463855267,-0.04459552466869354,-0.34163525683167995,-2.9333603639617056,-2.7853628430028743
1.4584708213806152,-0.023428648710250854,0.02951115369796753,0.04586684703826904,-0.010249024257063866,0.02182726189494133,-0.03941194713115692,-0.3413039464574754,-2.933149447191031,-2.7849619399628183
1.4685959815979004,-0.015931665897369385,0.056576311588287354,0.04182910919189453,-0.04410061612725258,0.08953240513801575,-0.008481303229928017,-0.3409843185637905,-2.9325060724292187,-2.7847614705404786
1.4783949851989746,-0.019719138741493225,0.047104835510253906,0.04365944862365723,-0.04693741351366043,0.12641452252864838,0.016606472432613373,-0.34052649702820414,-2.9314352254081055,-2.784909272314946
1.4885220527648926,-0.02338142693042755,0.029660522937774658,0.03661555051803589,0.008151836693286896,0.11477411538362503,0.01985286734998226,-0.34061113300257734,-2.9301542640530425,-2.7851097113101693
1.4988689422607422,-0.02417181432247162,0.020535022020339966,0.027742087841033936,0.04666993394494057,0.12105411291122437,0.029075393453240395,-0.341162384020497,-2.928949518330319,-2.7852622730487826
1.5084729194641113,-0.017221346497535706,0.02664509415626526,0.03451806306838989,0.02042056992650032,0.13974635303020477,0.020418737083673477,-0.34173841253442294,-2.927670712854726,-2.7854160173088918
1.5184240341186523,-0.01494857668876648,0.01810544729232788,0.036231279373168945,0.0018540772143751383,0.15609097480773926,0.022144464775919914,-0.3421377615229284,-2.9262481486263683,-2.785613272971446
1.5283889770507812,-0.015529423952102661,0.007284432649612427,0.042270541191101074,0.042302269488573074,0.16311238706111908,0.024929489940404892,-0.34248072503975246,-2.924630295722189,-2.78581008302908
1.5385499000549316,-0.016097068786621094,0.008593529462814331,0.031148910522460938,0.10997744649648666,0.1539127677679062,0.02088148519396782,-0.3433589846151399,-2.9230376006965146,-2.7858567464696082
1.5496909618377686,-0.015734776854515076,0.03870588541030884,0.00481569766998291,0.08739006519317627,0.1675761640071869,0.025690356269478798,-0.3445511155959286,-2.9214354940922793,-2.7858589734489274
1.5585589408874512,-0.01736655831336975,0.03983592987060547,-0.0036949515342712402,0.07007978856563568,0.16153664886951447,0.03375520557165146,-0.3454905597771467,-2.9198131636768627,-2.7859954450678908
1.568993091583252,-0.018122598528862,0.0252302885055542,-0.003939151763916016,0.08230516314506531,0.14369525015354156,0.03261340409517288,-0.3463533867203883,-2.918321757038787,-2.786162977924828
1.578645944595337,-0.010839521884918213,0.0170038640499115,0.006467938423156738,0.11955612897872925,0.13928824663162231,0.025899307802319527,-0.34742621289546527,-2.916880395317125,-2.78619896817864
1.5885157585144043,-0.0005695521831512451,0.018016785383224487,0.0211564302444458,0.18836699426174164,0.13931012153625488,0.019944746047258377,-0.3490271895442787,-2.915447214223557,-2.786071326736709
1.598789930343628,-0.003532230854034424,0.006630152463912964,0.015406191349029541,0.16932833194732666,0.16555877029895782,0.021916816011071205,-0.3508828680613561,-2.913893191889228,-2.7858417638256503
1.6085388660430908,-0.006272271275520325,0.009906142950057983,0.0047168731689453125,0.08222926408052444,0.18217739462852478,0.01611511968076229,-0.3519765779284022,-2.9121408483328723,-2.7857901403455188
1.6185839176177979,-0.01046133041381836,0.01118507981300354,-0.0009906291961669922,0.059181731194257736,0.1559809446334839,-0.0005030047032050788,-0.35246729143961125,-2.910420988100988,-2.7857070069477397
1.6285309791564941,-0.01758715510368347,-0.023726224899291992,-0.00024235248565673828,0.0939587876200676,0.11487993597984314,-0.021478965878486633,-0.3535722813369558,-2.9088878445073303,-2.785372108689421
1.6385059356689453,-0.008758217096328735,-0.01862502098083496,-0.005059361457824707,0.09176620841026306,0.10607659071683884,-0.021721580997109413,-0.35503143327445086,-2.9074783392279384,-2.7848408039629766
1.6485068798065186,-0.0024030953645706177,-0.003070622682571411,-0.01849222183227539,0.09134474396705627,0.10231375694274902,-0.01331589836627245,-0.3562623053789368,-2.906055246784301,-2.7843512991860946
1.6585807800292969,-0.00840681791305542,-0.013110578060150146,-0.031236588954925537,0.10253401100635529,0.07543633878231049,-0.013529484160244465,-0.35732042767055233,-2.9050636747309007,-2.783991652842017
1.6690020561218262,-0.006451621651649475,-0.016824454069137573,-0.029550552368164062,0.06917660683393478,0.055341146886348724,-0.012318864464759827,-0.35819024749345196,-2.904848936391342,-2.783817750322967
1.6835370063781738,0.0005717724561691284,-0.020119696855545044,-0.009044170379638672,0.029786057770252228,0.06703028827905655,0.001418785541318357,-0.35836882649766705,-2.904576610483363,-2.7837711216976766
1.6916117668151855,0.007021099328994751,-0.030037879943847656,0.014279007911682129,0.052899084985256195,0.07959815114736557,0.012575406581163406,-0.3587761716139041,-2.9039250321990595,-2.78379717017881
1.6996779441833496,0.00557824969291687,-0.03603920340538025,0.00928807258605957,0.11172990500926971,0.07537810504436493,0.019602956250309944,-0.3597753332917816,-2.9029207492734432,-2.78368277063445
1.7086877822875977,0.005733370780944824,-0.02223670482635498,-0.0037980079650878906,0.10417693853378296,0.08062253147363663,0.026321738958358765,-0.3596521228329199,-2.901603600234924,-2.7834561379669656
1.7187349796295166,0.00908014178276062,-0.019718170166015625,0.0012451410293579102,0.050958987325429916,0.08524870872497559,0.034445974975824356,-0.35961860205908597,-2.900627576206488,-2.783496664439166
1.7286269664764404,0.008247032761573792,-0.025830239057540894,0.012109994888305664,0.05775652453303337,0.08174474537372589,0.04264867305755615,-0.3601493833379198,-2.8997993529516535,-2.783755026305169
1.7386538982391357,0.0002330392599105835,-0.04375743865966797,0.018592476844787598,0.11608986556529999,0.07932765781879425,0.047109998762607574,-0.36089755691648684,-2.8986411653709734,-2.7838313479500822
1.7490999698638916,0.006076693534851074,-0.028833091259002686,0.018765687942504883,0.15202799439430237,0.10965094715356827,0.06404945999383926,-0.36200549076271055,-2.8974618292554846,-2.783940670276596
1.758673906326294,0.006622344255447388,-0.011122256517410278,0.013817787170410156,0.18935298919677734,0.14093323051929474,0.08854708075523376,-0.363103858721759,-2.8965209007728765,-2.7843736275154636
1.768718957901001,0.0012278556823730469,-0.016730785369873047,0.0012041330337524414,0.2646116316318512,0.14432135224342346,0.10202395170927048,-0.3641741826320247,-2.895906097545537,-2.785024662977149
1.778700828552246,0.0002925097942352295,-0.014277845621109009,-0.004943728446960449,0.35723239183425903,0.13908584415912628,0.11454054713249207,-0.36602400040795036,-2.8951608768070374,-2.7855298973653793
1.788827896118164,0.0023622363805770874,-0.0015770494937896729,-0.00989532470703125,0.4113136827945709,0.14567942917346954,0.13783904910087585,-0.3691741150025825,-2.894254120713659,-2.7859812221734184
1.7988548278808594,-0.003095567226409912,0.009247452020645142,-0.025985896587371826,0.4852645993232727,0.14520858228206635,0.15185979008674622,-0.37290053405293133,-2.893476782540293,-2.7865323862884943
1.8088250160217285,-0.008000701665878296,0.014182358980178833,-0.03696286678314209,0.633719801902771,0.1274733990430832,0.16683794558048248,-0.3773379941659597,-2.8927875273230987,-2.786956543054896
1.8188018798828125,-0.006887644529342651,0.019530147314071655,-0.04242497682571411,0.8560660481452942,0.10088839381933212,0.18354582786560059,-0.38336111858171973,-2.8918532197690707,-2.7869068163992607
1.828761100769043,-0.006406620144844055,0.04184216260910034,-0.04443478584289551,1.1802172660827637,0.07490823417901993,0.2155473232269287,-0.3936786066509728,-2.8907134783084074,-2.7862880720293455
1.8388710021972656,-0.00930127501487732,0.06858688592910767,-0.04772382974624634,1.6534132957458496,0.053940899670124054,0.2395373433828354,-0.4078850416214443,-2.8895383831013435,-2.7848966673709223
1.848951816558838,-0.009713664650917053,0.09654876589775085,-0.0627511739730835,2.2455737590789795,0.046922627836465836,0.2523041069507599,-0.4274252865723946,-2.8879189141685258,-2.7821451969880497
1.8588237762451172,-0.010008350014686584,0.12122476100921631,-0.08459144830703735,2.8190360069274902,0.11821704357862473,0.2646859586238861,-0.45267097630492675,-2.88533153661928,-2.7778398685322934
1.8689579963684082,-0.010745510458946228,0.13735198974609375,-0.11678940057754517,3.513430118560791,0.2783988118171692,0.27440351247787476,-0.4838977567213465,-2.880520674018757,-2.7717141571499093
1.8788700103759766,-0.016078248620033264,0.1140972375869751,-0.1453590989112854,4.305185317993164,0.37755683064460754,0.28916168212890625,-0.5223925322756339,-2.8730869831731494,-2.763163706142136
1.8888440132141113,-0.016373321413993835,0.08289289474487305,-0.15566354990005493,5.146961212158203,0.466122031211853,0.2601603865623474,-0.5686810458964321,-2.862756991202614,-2.7513408701827835
1.8990309238433838,0.012189000844955444,0.097226083278656,-0.09520626068115234,6.268252849578857,0.6359078884124756,0.2681637108325958,-0.6241019810845584,-2.8478940126071715,-2.734881250681189
1.908869981765747,0.03058701753616333,0.10352933406829834,-0.019920527935028076,7.3988542556762695,0.7258862853050232,0.3277541399002075,-0.6903760117499192,-2.827489287812754,-2.7126177162379035
1.9189119338989258,0.0486578643321991,0.14449608325958252,-0.0007815361022949219,8.598235130310059,0.9082701802253723,0.40828439593315125,-0.767206397847398,-2.7994748022312557,-2.68272264605827
1.9289748668670654,0.05304689705371857,0.23827677965164185,0.07313674688339233,10.266648292541504,1.1047594547271729,0.5731856822967529,-0.8569960124075312,-2.7588724559166136,-2.6408169047980805
1.939159870147705,0.04515935480594635,0.26773911714553833,0.13658678531646729,12.263833045959473,1.1058274507522583,0.7942056655883789,-0.9629837414055505,-2.6974421252920204,-2.5772651629858117
1.9493639469146729,0.07070904970169067,0.3707183599472046,0.20154893398284912,14.601738929748535,1.1221082210540771,1.0759952068328857,-1.0858141137765962,-2.5943304115218764,-2.4699287241243377
1.9590368270874023,0.08459097146987915,0.6160867214202881,0.3464644253253937,16.529096603393555,0.96543949842453,1.3132696151733398,-1.2185524091864894,-2.3923348960206323,-2.261104522243071
1.9692039489746094,0.07388779520988464,0.828740656375885,0.46879494190216064,17.09813117980957,0.8187837600708008,0.9934982061386108,-1.3266615449291752,-1.9435505731631924,-1.8021419263891325
1.9790520668029785,-0.01670663058757782,0.8571906089782715,0.6891985535621643,16.10856056213379,1.2342755794525146,0.5251192450523376,-1.3376684483210557,-1.2307095386879123,-1.080737561856777
1.9890689849853516,-0.20604555308818817,0.4233468770980835,0.9671154022216797,14.182598114013672,1.6137373447418213,0.3714067339897156,-1.2556558417467851,-0.7507094796855773,-0.5983139634811308
1.999436855316162,-0.2675526738166809,-0.032136619091033936,1.0576057434082031,12.407567024230957,1.858667254447937,0.5222889184951782,-1.1506806377211063,-0.5190560573571853,-0.3691185030009539
2.0090279579162598,-0.17651841044425964,-0.03847301006317139,1.0899631977081299,10.872405052185059,1.750626564025879,0.6359319090843201,-1.0484661089307412,-0.38983622438280474,-0.24476964697547263
2.0191397666931152,-0.11499591171741486,0.13200855255126953,0.9856290221214294,9.699628829956055,1.6883602142333984,0.7775129675865173,-0.9541486095027714,-0.30747933192078075,-0.16743640175955804
2.0291659832000732,-0.13882671296596527,0.17794686555862427,0.8855628967285156,8.717144966125488,1.7742490768432617,0.9438097476959229,-0.8679913301330257,-0.24719509500693293,-0.11281249379046562
2.039766788482666,-0.15543046593666077,0.037821054458618164,0.6987069845199585,8.093847274780273,2.0215349197387695,1.1383134126663208,-0.7881297106730085,-0.19654266141009327,-0.07029550290898745
2.0497307777404785,-0.16897052526474,-0.07098329067230225,0.46639716625213623,7.609111309051514,2.0577056407928467,1.2258853912353516,-0.712868393856198,-0.15237906003987045,-0.035710653339449894
2.0590810775756836,-0.16928866505622864,-0.037195801734924316,0.3355913758277893,7.182595252990723,2.166156053543091,1.253028392791748,-0.6408728494460453,-0.1134406127568624,-0.007215770861021192
2.069154977798462,-0.15810120105743408,-0.0002034306526184082,0.35219305753707886,7.100388050079346,1.9587757587432861,1.1342617273330688,-0.570960927360151,-0.07934695653227773,0.015613850803956686
2.079103946685791,-0.1551530659198761,-0.005973488092422485,0.3415710926055908,7.039555549621582,1.5529752969741821,0.8996493220329285,-0.5010234922929192,-0.05304889007998097,0.03289473370069346
2.0891308784484863,-0.10908474773168564,-0.00029787421226501465,0.4384901523590088,6.826778888702393,1.308342456817627,0.6992807984352112,-0.4317882007803268,-0.03337271436086099,0.045143294245420455
2.099471092224121,-0.026681259274482727,-0.029919952154159546,0.48654109239578247,6.37684440612793,1.0295145511627197,0.5905223488807678,-0.3657156957333273,-0.0180952494948362,0.053958584714902134
2.109189987182617,-0.005240455735474825,-0.011126339435577393,0.38889122009277344,5.600463390350342,0.9235144853591919,0.4734729826450348,-0.3056425495167257,-0.006408967334093891,0.060387256239177886
2.1191599369049072,0.03670971840620041,-0.004542052745819092,0.3579098582267761,4.650389671325684,1.034812569618225,0.38183069229125977,-0.2542828478895934,0.004496475421807209,0.06486634836591443
2.1292190551757812,0.03215853124856949,-0.1004023402929306,0.2688332200050354,3.80747652053833,1.2535666227340698,0.35385239124298096,-0.21203398765951664,0.016818325564342824,0.0681560555616926
2.1392109394073486,-0.0019005704671144485,-0.15432274341583252,0.11704385280609131,3.2090108394622803,1.3107036352157593,0.3897813856601715,-0.17691164808565993,0.030255335876105148,0.07108015180331598
2.1496357917785645,0.0062913671135902405,-0.08586438000202179,0.005001842975616455,2.765601873397827,1.3386610746383667,0.3975176513195038,-0.14698576114816894,0.043924822562062565,0.07400041568513137
2.159247875213623,0.03642133250832558,0.015212707221508026,-0.028234422206878662,2.5190987586975098,1.3303123712539673,0.4237828254699707,-0.12043902644265518,0.05779471477572907,0.0767511514645817
2.1692380905151367,0.04746038466691971,0.0680142194032669,-0.05089181661605835,2.424060344696045,1.1992111206054688,0.46696117520332336,-0.09547616029644412,0.0708720631428116,0.07963209400000452
2.1792659759521484,0.054323479533195496,0.09061284363269806,-0.06076306104660034,2.282329559326172,0.9768079519271851,0.4298950433731079,-0.07155764159039334,0.08196429960107929,0.0824213207982858
2.1893868446350098,0.07079756259918213,0.09601885080337524,-0.024490296840667725,1.9861476421356201,0.80916428565979,0.2860383987426758,-0.0498300722072652,0.09097034326430695,0.084155248904125
2.1995768547058105,0.055432260036468506,0.03601895645260811,0.034893155097961426,1.6386655569076538,0.705520749092102,0.16687682271003723,-0.03158278198320603,0.09850851729675385,0.08465169162788447
2.2092437744140625,0.030882857739925385,-0.06191185861825943,0.06415790319442749,1.339404821395874,0.5652278661727905,0.12064626812934875,-0.016624594569030128,0.10491375174198254,0.08456129443724275
2.2192459106445312,0.02783534675836563,-0.1195143461227417,0.06033825874328613,1.0896745920181274,0.4950341284275055,0.06337045878171921,-0.00446314943211836,0.11012950425607228,0.0841728285941279
2.229206085205078,0.03444354981184006,-0.10084350407123566,0.04953205585479736,0.8813732266426086,0.45507505536079407,0.049450598657131195,0.005372892423883587,0.11487387324940256,0.08361872466654922
2.2392959594726562,0.027645543217658997,-0.07873935997486115,0.021716296672821045,0.7350991368293762,0.45981070399284363,0.06848101317882538,0.013469850932585157,0.11943877448668376,0.08324960584929175
2.2496719360351562,0.006254367530345917,-0.06873404234647751,-0.015334904193878174,0.618457019329071,0.46422478556632996,0.07585733383893967,0.020302326690275565,0.12404831772281509,0.08316957591751026
2.2592978477478027,-0.015257611870765686,-0.051827747374773026,-0.03499191999435425,0.49751144647598267,0.49739232659339905,0.07167243957519531,0.02593389465969964,0.12886230166712676,0.08318328867129893
2.26938796043396,-0.03785325586795807,-0.038301609456539154,-0.03272789716720581,0.3909448981285095,0.542536735534668,0.13272710144519806,0.03048968002384701,0.13401947798261318,0.08357992649572495
2.279313087463379,-0.055518731474876404,-0.05075990408658981,-0.02427619695663452,0.3129608929157257,0.5325219035148621,0.17894519865512848,0.03416184448686032,0.1394407304229338,0.08468165722347654
2.289426803588867,-0.05546450614929199,-0.020926591008901596,-0.005312025547027588,0.2894623577594757,0.45601266622543335,0.18266361951828003,0.03740115729921334,0.14436888034702763,0.08607183453968927
2.3051979541778564,-0.05181311070919037,0.024493370205163956,0.02624499797821045,0.25994813442230225,0.35612842440605164,0.1570189893245697,0.0404039635630122,0.14837930206190486,0.08735925569158602
2.310196876525879,-0.03444519639015198,-0.013015907257795334,0.03828728199005127,0.21560703217983246,0.2711491882801056,0.1210683286190033,0.042966495107338715,0.15143470869422906,0.08838791571217308
2.31925106048584,-0.01909218728542328,-0.04522741958498955,0.029732167720794678,0.214988112449646,0.24072711169719696,0.1042182445526123,0.04522678298231681,0.1539662809197227,0.08914945997300576
2.3293678760528564,-0.012449607253074646,-0.024962641298770905,0.006598234176635742,0.2769066095352173,0.1794300675392151,0.10753611475229263,0.04783996434911622,0.15606740135732133,0.08981828185829183
2.3394370079040527,-0.0010095536708831787,0.004596564918756485,-0.03239554166793823,0.32159337401390076,0.1355915069580078,0.09950268268585205,0.05097477622790045,0.15758087096043963,0.09036977430281508
2.3498339653015137,0.00933617353439331,0.02564191073179245,-0.05193150043487549,0.3351673185825348,0.11619015783071518,0.09301911294460297,0.05441626030041792,0.15880099987092647,0.09080045979131587
2.3594517707824707,0.015341117978096008,0.030102860182523727,-0.0640944242477417,0.29661059379577637,0.12589365243911743,0.07300865650177002,0.05772274038040055,0.15996791987685458,0.09112453675553595
2.369548797607422,0.009936735033988953,0.026682019233703613,-0.0690719485282898,0.20007643103599548,0.1747075766324997,0.04243316873908043,0.06030309519627254,0.16143554678448782,0.09127996541488206
2.379857063293457,-0.0013150721788406372,-0.0023999474942684174,-0.060293734073638916,0.06364961713552475,0.2595580220222473,0.010910931043326855,0.06166495078145169,0.16354667561253464,0.09133625095187926
2.389540910720825,-0.012467697262763977,-0.043339647352695465,-0.06244105100631714,-0.01853533461689949,0.36892321705818176,0.014095486141741276,0.06184802631938477,0.1667087158311028,0.09139344678570518
2.3998217582702637,-0.01766367256641388,-0.059395816177129745,-0.07101458311080933,-0.019889285787940025,0.4238937795162201,0.07328770309686661,0.06169122364692271,0.17066974980609959,0.09186104019971024
2.409547805786133,-0.015600323677062988,-0.05344820395112038,-0.07986104488372803,0.01921384409070015,0.45933017134666443,0.12240033596754074,0.06187135431671601,0.17502912953560074,0.09284821147008646
2.4196009635925293,-0.008793160319328308,-0.030282538384199142,-0.07247835397720337,0.04260651767253876,0.4883413016796112,0.15016378462314606,0.0624551402918398,0.17969346790482837,0.09414128975374732
2.429409980773926,-0.008920207619667053,-0.02674282342195511,-0.05872994661331177,0.060485098510980606,0.4417574107646942,0.13307838141918182,0.06323455838241096,0.18432466463350225,0.09548457069242192
2.439743995666504,-0.01963503658771515,-0.047405846416950226,-0.029987871646881104,0.06154556944966316,0.31175175309181213,0.06516458094120026,0.06405757479720033,0.1880407230752257,0.09635027755470299
2.4497790336608887,-0.029495075345039368,-0.09181281924247742,0.0220525860786438,0.017121315002441406,0.21189288794994354,0.00907036755234003,0.06452767452386028,0.1906026816747489,0.0966130333203613
2.4598069190979004,-0.01720784604549408,-0.10639877617359161,0.06777310371398926,-0.04375535249710083,0.14386457204818726,0.01255324948579073,0.06443736649877725,0.19237313260713199,0.09669812953263986
2.469871997833252,0.0022160112857818604,-0.054926417768001556,0.07398343086242676,-0.09385012835264206,0.09388241171836853,0.04113210737705231,0.06381494802149856,0.19353438100405881,0.09709751483178954
2.479844093322754,0.0066115111112594604,-0.013056538999080658,0.055628418922424316,-0.10976198315620422,0.017495498061180115,0.04765552282333374,0.06288204905470952,0.19406711345428304,0.09775042157323068
2.4907407760620117,0.012964591383934021,-0.017088137567043304,0.029185712337493896,-0.06286320090293884,-0.0851612389087677,0.04455197975039482,0.06209904353131104,0.19367801254639427,0.09837898913628373
2.5009799003601074,0.02366793155670166,-0.01378704234957695,0.0009335875511169434,0.014274460263550282,-0.1567177176475525,0.051434122025966644,0.06196666405256013,0.19240756542709095,0.09889099007112821
2.5097718238830566,0.03326484560966492,0.011152222752571106,-0.029041588306427002,0.039804574102163315,-0.18738140165805817,0.04818708822131157,0.062385858939898245,0.1906226033752187,0.09932269394754756
2.5196759700775146,0.02944621443748474,0.030971206724643707,-0.04822665452957153,0.018810074776411057,-0.14774717390537262,0.05109712481498718,0.06281175310776141,0.18888809225732922,0.09974629823160427
2.529597759246826,0.004813387989997864,0.013489656150341034,-0.04398536682128906,-0.006880441680550575,-0.102595753967762,0.049328096210956573,0.06295439131849978,0.18761880968453934,0.10023618814921366
2.539764881134033,-0.026189520955085754,-0.02232503890991211,-0.0347629189491272,0.013596870005130768,-0.08588575571775436,0.03331264108419418,0.06304379696400723,0.18665209741400593,0.10063453876593978
2.5499749183654785,-0.047320663928985596,-0.02218751609325409,-0.016445398330688477,0.08496595919132233,-0.09555701911449432,0.03447580337524414,0.0641907240629156,0.18597895470207798,0.10084943538927138
2.5597400665283203,-0.0480094850063324,-0.0034995749592781067,0.002375006675720215,0.15527234971523285,-0.09364993125200272,0.04173718020319939,0.06562399553473183,0.1852829928953768,0.1009831394018096
2.5698060989379883,-0.04595470428466797,0.014489255845546722,0.011545896530151367,0.19217438995838165,-0.0845630094408989,0.05418916046619415,0.06765664863705292,0.18472241160236533,0.10111184459645321
2.579740047454834,-0.047616466879844666,0.02318241447210312,0.013456404209136963,0.17318737506866455,-0.05665520951151848,0.047228723764419556,0.06970179450603516,0.18445159283964474,0.10124913261538615
2.589992046356201,-0.05012714862823486,0.01266014575958252,0.013097167015075684,0.1264767050743103,-0.022486407309770584,0.03866490349173546,0.07093183650063956,0.18461621613010679,0.10135105101767604
2.5999059677124023,-0.05169825255870819,-0.0092674121260643,0.01752448081970215,0.06060473993420601,0.015206909738481045,0.02141054905951023,0.0712218083393727,0.18499300641431374,0.101438799980289
2.6097569465637207,-0.05287972092628479,-0.02704719454050064,0.022837698459625244,-0.00046794977970421314,0.06262941658496857,0.00685195391997695,0.07109612547963991,0.18535596397062293,0.1015171139251955
2.619874954223633,-0.04857136309146881,-0.03125941753387451,0.024942636489868164,-0.021900804713368416,0.07655322551727295,0.0034580212086439133,0.07118710157844599,0.1854917567009303,0.1016431467773509
2.629790782928467,-0.03619314730167389,-0.026761993765830994,0.016329169273376465,-0.017416706308722496,0.06490650773048401,-0.005109261255711317,0.07125966661209877,0.18525586642021435,0.10175252318775888
2.6399099826812744,-0.021819964051246643,-0.01242683082818985,0.01459360122680664,-0.009549994952976704,0.03816438093781471,-0.018694311380386353,0.07108327861536874,0.18480279244717965,0.10174178446598173
2.6499948501586914,-0.011476919054985046,-0.0017983242869377136,0.019043445587158203,-0.023625915870070457,0.007406866177916527,-0.03924480825662613,0.0705103901112124,0.18405075261723303,0.10154953052442564
2.6598689556121826,-0.007085070013999939,-0.008805431425571442,0.027174055576324463,-0.05729679390788078,0.004301353823393583,-0.05995887517929077,0.06940573532556288,0.1828878594050314,0.10120561590337544
2.669912815093994,-0.0027078092098236084,-0.023389436304569244,0.0293390154838562,-0.09340880811214447,-0.009848508983850479,-0.06499747186899185,0.06817024223175608,0.181163536516689,0.10083843148036639
2.679898977279663,0.0028135329484939575,-0.025846391916275024,0.024809598922729492,-0.10524921864271164,-0.015967123210430145,-0.06464486569166183,0.06763467015719708,0.1792160857414526,0.10049608930168333
2.6898388862609863,0.014076605439186096,-0.021565362811088562,0.014807701110839844,-0.0709139034152031,-0.021532462909817696,-0.039656318724155426,0.06765854665923025,0.17778450401595092,0.10021743919216729
2.700176954269409,0.024165421724319458,-0.015128210186958313,0.0033774375915527344,-0.016225092113018036,-0.04962215572595596,-0.018580861389636993,0.06817649076079653,0.17646735196361676,0.10008624569208616
2.709843873977661,0.02863745391368866,0.00917978584766388,-0.006469368934631348,0.020145684480667114,-0.05817769467830658,-0.001740788808092475,0.06901844498529178,0.17529579019999503,0.10000833695058252
2.7198739051818848,0.027722299098968506,0.02241387963294983,-0.005234122276306152,0.0035446020774543285,-0.0550822988152504,0.01227329671382904,0.06961969840378461,0.17444849374146063,0.10005920632823376
2.7297778129577637,0.022511765360832214,0.011289358139038086,-0.009453952312469482,-0.05579423904418945,-0.03765008971095085,0.010527808219194412,0.06952705771531688,0.17400437388333842,0.10021843740756244
2.7401528358459473,0.023097649216651917,-0.006331875920295715,-0.009520947933197021,-0.12720423936843872,-0.019978685304522514,0.0033617746084928513,0.06894851133295736,0.17391353621001526,0.1004435488786518
2.750091075897217,0.026153594255447388,-0.0323745533823967,-0.0016224384307861328,-0.18036502599716187,-0.029821552336215973,-0.010717878118157387,0.06818786398916361,0.17397772786501156,0.1006579504136999
2.75992488861084,0.029983773827552795,-0.04820281267166138,0.011266171932220459,-0.18615686893463135,-0.05381263792514801,-0.022249897941946983,0.06729591466011313,0.17399792856527163,0.10078245209165007
2.7700278759002686,0.03674708306789398,-0.04222072660923004,0.023248732089996338,-0.145381897687912,-0.07384049892425537,-0.01075052935630083,0.06660836643772079,0.17423454092507945,0.10083788367017016
2.7800419330596924,0.04220825433731079,-0.026801295578479767,0.02318030595779419,-0.097062848508358,-0.0912272110581398,0.01660972274839878,0.06614237493122735,0.17454113746842542,0.10099018958510574
2.789921760559082,0.03568969666957855,-0.0026415959000587463,0.016887128353118896,-0.052144426852464676,-0.09233300387859344,0.0409332774579525,0.06516874973693301,0.17476586468403943,0.1013227739758595
2.8001198768615723,0.023708343505859375,0.015039585530757904,0.01008695363998413,-0.034996066242456436,-0.09156814217567444,0.05170869454741478,0.06409463326112078,0.1748655399186935,0.10179147712287433
2.8099350929260254,0.01729966700077057,0.007852204144001007,0.007973790168762207,-0.043833035975694656,-0.07829894125461578,0.05445536971092224,0.06355899196661245,0.1747507755120091,0.10232413855218377
2.820119857788086,0.007725954055786133,-0.006043784320354462,0.017312943935394287,-0.07237200438976288,-0.06322252005338669,0.045694902539253235,0.0634873147095489,0.1747720683907556,0.1028755746831753
2.829957962036133,-0.0016550570726394653,-0.017443791031837463,0.02943134307861328,-0.11540307104587555,-0.047829315066337585,0.02585770934820175,0.06399019645341435,0.17510061198790405,0.10333398830513611
2.8400819301605225,-0.010883241891860962,-0.027524441480636597,0.044129014015197754,-0.1438448280096054,-0.031881771981716156,0.017152635380625725,0.06465310329480116,0.17580354691502567,0.10370298910743364
2.850188970565796,-0.0220232754945755,-0.03466145694255829,0.048460304737091064,-0.15745802223682404,-0.016735533252358437,0.018099335953593254,0.06476424712343795,0.17690870625733385,0.1040527983590559
2.8600850105285645,-0.0317404568195343,-0.030011944472789764,0.04144489765167236,-0.15355703234672546,-0.02186957374215126,0.025084540247917175,0.06420935953462906,0.1781268111913423,0.10445194548464685
2.8703317642211914,-0.03256945312023163,-0.015377454459667206,0.026112377643585205,-0.14641326665878296,-0.02738134190440178,0.03144161403179169,0.06288046157752344,0.1787536460969688,0.10493028314914796
2.880176067352295,-0.024928748607635498,-0.0109267458319664,0.016527295112609863,-0.150908961892128,-0.04181727394461632,0.04258428141474724,0.06119390050663652,0.17883196984964,0.10554274620936625
2.8901519775390625,-0.017651885747909546,-0.011541634798049927,0.007201075553894043,-0.1717098355293274,-0.05031701922416687,0.04673028737306595,0.05958425843497028,0.17861404202972017,0.10625167825460226
2.9002649784088135,-0.013142064213752747,-0.009977076202630997,0.0013298392295837402,-0.19155731797218323,-0.06012703478336334,0.05301268771290779,0.058079201069130275,0.17813902269632428,0.10706760755351992
2.910140037536621,-0.013774573802947998,-0.0121212899684906,0.0010973811149597168,-0.20472225546836853,-0.07856885343790054,0.04446633532643318,0.056665069190002255,0.177401587363421,0.10790965015304134
2.92025089263916,-0.01708538830280304,-0.021250169724225998,0.008645892143249512,-0.212100550532341,-0.08456762135028839,0.034974027425050735,0.05533135054495867,0.17645636743651913,0.1086692853950604
2.9300718307495117,-0.022741734981536865,-0.02539766952395439,0.01315605640411377,-0.21447183191776276,-0.0904863178730011,0.029806645587086678,0.05408115221402432,0.17530642505401065,0.10938850841815842
2.940107822418213,-0.023891568183898926,-0.021569184958934784,0.00946652889251709,-0.20735719799995422,-0.08537358045578003,0.0301698986440897,0.05278082378548903,0.1740117809211019,0.11007611481771548
2.950434923171997,-0.023812249302864075,-0.016736194491386414,0.004115760326385498,-0.187070831656456,-0.08625606447458267,0.037009481340646744,0.05135577438453757,0.17272370294014336,0.1107783919384422
2.96053409576416,-0.021679162979125977,-0.011315692216157913,-0.005482137203216553,-0.1549278050661087,-0.07956620305776596,0.04914817214012146,0.050121866067949994,0.17156843996710994,0.11151659992171872
2.971395969390869,-0.016513600945472717,0.0016055479645729065,-0.013967812061309814,-0.1146104633808136,-0.08075029402971268,0.06656742841005325,0.04929390879701299,0.1705608564814748,0.11233025304553464
2.980618953704834,-0.009895607829093933,0.009824853390455246,-0.017747342586517334,-0.0755339041352272,-0.08632748574018478,0.06648965924978256,0.04887623722788181,0.16956967533906184,0.11315729773473028
2.9913768768310547,-0.0044167786836624146,0.012119363993406296,-0.015478849411010742,-0.05179077386856079,-0.09196402132511139,0.0700736939907074,0.04891249394809997,0.1684996772210068,0.11394683332394626
3.0002028942108154,-0.00730016827583313,0.013743702322244644,-0.012842237949371338,-0.05303793027997017,-0.09536008536815643,0.055315785109996796,0.04945411322539393,0.16726406667238156,0.11467479947552103
3.0101890563964844,-0.008165895938873291,0.01119185984134674,-0.009937405586242676,-0.0570361390709877,-0.09615884721279144,0.038996677845716476,0.05000048186429919,0.16587025659429924,0.11525479673190885
3.0206289291381836,-0.007369056344032288,0.0020881369709968567,-0.004473984241485596,-0.05613891780376434,-0.10642267018556595,0.019301539286971092,0.05029654257067764,0.16438238695876042,0.1156680666657226
3.03031587600708,-0.006521314382553101,-0.0032624974846839905,-0.00304567813873291,-0.041172683238983154,-0.11416643857955933,0.0038318228907883167,0.05039341708042648,0.1627950935257085,0.11588572916230827
3.04030179977417,-0.0073108673095703125,0.003997631371021271,-0.0012645125389099121,-0.01804792508482933,-0.1168072298169136,-0.0028452547267079353,0.05043619725968983,0.16119696531137837,0.11596155178600677
3.0502688884735107,-0.012804269790649414,0.01517564058303833,-0.007975161075592041,0.01287135761231184,-0.10662440955638885,-0.015124664641916752,0.05029199849090662,0.15978760823393812,0.1158861570958786
3.0604300498962402,-0.030324295163154602,0.02453424036502838,-0.014866292476654053,0.036694400012493134,-0.08674550801515579,-0.02760183997452259,0.050144184990762425,0.15873716970724558,0.11564368216060315
3.07033109664917,-0.04983876645565033,0.028947405517101288,-0.019127070903778076,0.05665765330195427,-0.0665099248290062,-0.04486503824591637,0.05013228577109053,0.15808572939681587,0.11521084613307822
3.080461025238037,-0.06355249881744385,0.032836101949214935,-0.021307408809661865,0.07917361706495285,-0.05011976510286331,-0.07111554592847824,0.0502827708643453,0.15754149639466272,0.11452607004017547
3.0903358459472656,-0.07083986699581146,0.03223223611712456,-0.024242639541625977,0.10327613353729248,-0.041291166096925735,-0.09295538812875748,0.05079344828281897,0.15712150310714745,0.11356740502462884
3.1006228923797607,-0.06832829117774963,0.03351501002907753,-0.02574223279953003,0.1266496479511261,-0.04571733996272087,-0.11649160832166672,0.051726490231542646,0.1567485470078557,0.11235653868911842
3.110352039337158,-0.05955612659454346,0.04078973829746246,-0.028950393199920654,0.14897415041923523,-0.06099962443113327,-0.14515168964862823,0.05291458949615103,0.15628051103348994,0.11083351185833212
3.120651960372925,-0.04798121750354767,0.04142845422029495,-0.030576705932617188,0.15968137979507446,-0.07953309267759323,-0.17379558086395264,0.05411961228903429,0.1556321118548572,0.109012130364048
3.1303439140319824,-0.03661809861660004,0.036698758602142334,-0.029040217399597168,0.14827576279640198,-0.09396099299192429,-0.19775572419166565,0.055082876995473616,0.1547325204373876,0.10693472599665786
3.1408629417419434,-0.026547953486442566,0.029609326273202896,-0.02582472562789917,0.1287212371826172,-0.09682868421077728,-0.20916977524757385,0.05566951173829538,0.15345459510688136,0.10472524552959225
3.1505508422851562,-0.017979830503463745,0.020937517285346985,-0.023601412773132324,0.11853625625371933,-0.11289975047111511,-0.21173322200775146,0.05595505971651149,0.1516708566471941,0.10249672686904598
3.160712957382202,-0.007995963096618652,0.013140179216861725,-0.02461707592010498,0.12359440326690674,-0.1264813393354416,-0.19775614142417908,0.05607722499436836,0.1494413197191148,0.100334451141901
3.1705288887023926,0.00211295485496521,0.01596110314130783,-0.019889891147613525,0.1375836730003357,-0.13879233598709106,-0.17601415514945984,0.05631979082920505,0.1468860487926196,0.09836214465326744
3.1825108528137207,0.012628167867660522,0.021367285400629044,-0.01948404312133789,0.14893220365047455,-0.15266500413417816,-0.15036845207214355,0.056752297925749144,0.14433897562159764,0.09659683669587665
3.190453052520752,0.020672306418418884,0.02278636395931244,-0.020990192890167236,0.1436712145805359,-0.15850518643856049,-0.1292370706796646,0.05722610380996696,0.141977535227619,0.09504645761852511
3.2008328437805176,0.023838132619857788,0.014932624995708466,-0.014003336429595947,0.11439269036054611,-0.1545858085155487,-0.11192679405212402,0.05761274785348585,0.1398739167040627,0.09370029678648487
3.2105939388275146,0.020529210567474365,0.002304457128047943,-0.0037189126014709473,0.08356215804815292,-0.14345614612102509,-0.09592018276453018,0.057786995654137634,0.13803654340501006,0.0925576510803041
3.2206978797912598,0.01678048074245453,-0.007029976695775986,0.0075612664222717285,0.07316863536834717,-0.1520315259695053,-0.0848158597946167,0.05789793359647883,0.13639690946913816,0.09157314866511501
3.230592966079712,0.017200171947479248,-0.010121259838342667,0.01258707046508789,0.07883557677268982,-0.16496676206588745,-0.0767480805516243,0.058164039442454886,0.1347715144261215,0.09067547372695677
3.2406558990478516,0.0208979994058609,-0.005879197269678116,0.020370066165924072,0.08015464246273041,-0.16636227071285248,-0.06291162967681885,0.058576840213091695,0.13321177215704236,0.0898716992961478
3.250514030456543,0.021342754364013672,-0.00030635297298431396,0.025745153427124023,0.06768889725208282,-0.15840460360050201,-0.04699407145380974,0.058824796102908736,0.1319161172957571,0.08920630384178918
3.2607498168945312,0.018672600388526917,0.0005826391279697418,0.023429155349731445,0.040262870490550995,-0.14777140319347382,-0.03653104603290558,0.05861479088242334,0.13105094948259577,0.08868858170251596
3.270556926727295,0.017817363142967224,-0.003701157867908478,0.02298635244369507,0.011758456006646156,-0.1347791701555252,-0.029497478157281876,0.05809904538276133,0.1304619087493493,0.08826558907476796
3.2821640968322754,0.018763214349746704,-0.009170185774564743,0.027125179767608643,-0.00982140377163887,-0.123440220952034,-0.014723059721291065,0.05761882689246912,0.1300576533891351,0.08798501917643799
3.290541887283325,0.020457401871681213,-0.01196141168475151,0.032108187675476074,-0.02770504541695118,-0.11602603644132614,-0.006514984183013439,0.05734485225754235,0.12963898051782352,0.08786176404724308
3.3007030487060547,0.019823789596557617,-0.0033346563577651978,0.03412371873855591,-0.03235039860010147,-0.10513930022716522,2.3076077923178673e-05,0.05724341208121421,0.12919933441875334,0.08783642948855898
3.310633897781372,0.023406609892845154,0.0034841299057006836,0.029636263847351074,-0.029503613710403442,-0.09988079965114594,0.005212352145463228,0.05725680841102684,0.12884797670683587,0.08787269562515587
3.3207149505615234,0.022662147879600525,0.009162019938230515,0.027911901473999023,-0.034442976117134094,-0.09500881284475327,-0.0006934738485142589,0.057182010702703144,0.12864383118688175,0.08788770531026938
3.3308959007263184,0.016269370913505554,0.014313563704490662,0.030864357948303223,-0.04927678406238556,-0.0862952172756195,-0.020086079835891724,0.05683982693478586,0.12837864260820597,0.08781112562800553
3.3407959938049316,0.015249714255332947,0.015235163271427155,0.03610450029373169,-0.08258946985006332,-0.0688973143696785,-0.047594670206308365,0.056188735941573496,0.12801676187535874,0.08753690399874164
3.352447032928467,0.011916056275367737,0.01047120988368988,0.03996831178665161,-0.11719072610139847,-0.03596590831875801,-0.06990120559930801,0.05520744521559768,0.12781674171538585,0.08706831410724422
3.3607687950134277,0.003844544291496277,0.009438574314117432,0.03911226987838745,-0.1258518546819687,-0.016017233952879906,-0.08900086581707001,0.05402044641750301,0.12785423536836624,0.08643043041749716
3.371537923812866,-0.0009335130453109741,0.012817282229661942,0.029440879821777344,-0.0956946611404419,-0.003909660503268242,-0.10300061851739883,0.05292675917675947,0.12804904808499082,0.08560089928319496
3.383030891418457,-0.0009495019912719727,0.025958027690649033,0.01823556423187256,-0.04471084475517273,-0.007286814972758293,-0.10573648661375046,0.05218098254461329,0.1282758345238533,0.08464270535578287
3.390860080718994,0.004633843898773193,0.036270271986722946,0.006642520427703857,0.0020506184082478285,-0.011782540008425713,-0.10942064225673676,0.051872693707703144,0.12849084134307767,0.0835906259387517
3.400676965713501,0.007307469844818115,0.0383530855178833,0.0009477734565734863,0.017990702763199806,-0.015182599425315857,-0.11513818800449371,0.05181920582203303,0.12865658372286914,0.08244924483874652
3.4108147621154785,0.005889445543289185,0.02945922315120697,0.002686798572540283,0.012122510001063347,-0.009060123935341835,-0.12335073947906494,0.051744826272417284,0.1288091079323544,0.08122964942489456
3.4207799434661865,-8.866190910339355e-06,0.01197555661201477,0.007000565528869629,-0.003799996804445982,-0.0005446672439575195,-0.12847919762134552,0.05153381733552967,0.12904728238643873,0.079961205468552
3.4331350326538086,-0.0059325844049453735,-0.003203064203262329,0.009282946586608887,-0.012808239087462425,0.01084851287305355,-0.13328596949577332,0.051216842884463806,0.12934124406671438,0.07865023317662546
3.4408109188079834,-0.009452790021896362,-0.009933024644851685,0.005555987358093262,-0.01001112163066864,0.01509066205471754,-0.12401684373617172,0.05086460598055212,0.12962703835709274,0.07737903104121296
3.4506640434265137,-0.013431504368782043,-0.013378314673900604,-0.0006979703903198242,0.004943394102156162,0.015242373570799828,-0.10884183645248413,0.05054695791784729,0.12985218293588172,0.07621785430746787
3.4607999324798584,-0.012640193104743958,-0.012857038527727127,-0.0069602131843566895,0.021292805671691895,0.015553697943687439,-0.08997680246829987,0.050152199363104805,0.13005204205357498,0.07520596337680238
3.4707939624786377,-0.008836954832077026,-0.013604827225208282,-0.009854555130004883,0.0396779403090477,0.010752017609775066,-0.07050696760416031,0.04969376141279702,0.1303071578835698,0.07437275956461366
3.48250675201416,-0.0098734050989151,-0.018214058130979538,-0.008095741271972656,0.05845988541841507,0.003467739559710026,-0.05104990676045418,0.04928018569835993,0.13054983495630962,0.0736985413478435
3.4908270835876465,-0.008568301796913147,-0.0267910435795784,-0.006544709205627441,0.07176050543785095,-0.01392270252108574,-0.0366792231798172,0.04912587149826695,0.13064852630809562,0.0731855826733074
3.5007739067077637,-0.006736457347869873,-0.028796527534723282,-0.004922807216644287,0.0761222317814827,-0.024727944284677505,-0.026169592514634132,0.04956232292377511,0.13045023938808992,0.0727835460831308
3.5106608867645264,-0.003144010901451111,-0.028966084122657776,-0.00564265251159668,0.06962278485298157,-0.030606605112552643,-0.016257839277386665,0.05040088954441278,0.1300330148078227,0.07248422158010333
3.5210108757019043,-0.0065066516399383545,-0.0328514538705349,-0.004110395908355713,0.055286090821027756,-0.03133222833275795,-0.008638376370072365,0.05124683681496142,0.12953593402863692,0.07229220430031973
