timestamp,accel_x,accel_y,accel_z,rotation_x,rotation_y,rotation_z, pitch,roll,yaw
0.04324221611022949,-0.013380378484725952,-0.021158337593078613,0.004466116428375244,-0.017227383330464363,0.0022790180519223213,0.004602046217769384,-0.0853794265877028,0.31621983216289234,0.01362102397819666
0.05551004409790039,-0.015886247158050537,-0.018449515104293823,0.004131138324737549,0.005590047687292099,0.004495567176491022,0.012255171313881874,-0.08541732549310592,0.3162567337113655,0.013718230387523244
0.06786108016967773,-0.0166168212890625,-0.00930323451757431,0.0017115473747253418,0.03257402777671814,-0.006255968939512968,0.01542247086763382,-0.08518131673558266,0.31624817016735896,0.013793380334780543
0.07498502731323242,-0.01414749026298523,-0.0019382238388061523,0.0006047487258911133,0.033328503370285034,-0.005069531034678221,0.011021861806511879,-0.08480347020045641,0.31617592332570654,0.013809884209719701
0.07636713981628418,-0.01275584101676941,-0.0023641064763069153,0.0011630654335021973,0.012788422405719757,0.0017821169458329678,0.007165871094912291,-0.08454177074883307,0.31616540757918865,0.01382633017813303
0.08452820777893066,-0.015237510204315186,-0.008519284427165985,0.0004169940948486328,-0.014481548219919205,0.005938512273132801,-0.003318727482110262,-0.08454767431159514,0.3162080630067609,0.013851411634720055
0.09021210670471191,-0.013551980257034302,-0.014545701444149017,-0.0012370944023132324,-0.02524220012128353,0.004268665798008442,-0.0062205614522099495,-0.0847612560914113,0.3162709788837116,0.013872593033921535
0.10045313835144043,-0.011581093072891235,-0.009805791079998016,-0.0023761987686157227,-0.018038615584373474,-0.0011668461374938488,-0.007679441012442112,-0.08499657023397623,0.31629101971781054,0.013872727028437934
0.11035418510437012,-0.006941050291061401,-0.003207750618457794,-0.0033646225929260254,-0.0028551691211760044,-0.014617674052715302,-0.010846525430679321,-0.08512813008403891,0.31619657209289187,0.013810528003624109
0.12045001983642578,-0.0017279982566833496,-0.0016295164823532104,-0.00469362735748291,0.0012445009779185057,-0.0223738644272089,-0.011783425696194172,-0.08516746955790427,0.31599395575975103,0.013699845060967228
0.13036417961120605,-0.0016313791275024414,-0.0006681978702545166,-0.004907548427581787,-0.006536273285746574,-0.02591458149254322,-0.01555227767676115,-0.08522871158808443,0.315732545228695,0.01357645422456516
0.14045000076293945,-0.004872947931289673,-0.007585875689983368,-0.0004336237907409668,-0.02445269003510475,-0.022579237818717957,-0.021267421543598175,-0.08543326959604158,0.315471458085585,0.013440733135298482
0.15044212341308594,-0.009309440851211548,-0.01658789813518524,0.005051732063293457,-0.03814629837870598,-0.021528445184230804,-0.019966626539826393,-0.0858001588623966,0.3152521916076835,0.01334099999657513
0.16050100326538086,-0.01059982180595398,-0.017096877098083496,0.007078230381011963,-0.04050851985812187,-0.01824450120329857,-0.01856047846376896,-0.0862344394413618,0.31504796079974134,0.01327680917541381
0.17067217826843262,-0.010064870119094849,-0.014460831880569458,0.008007228374481201,-0.03380391374230385,-0.011405857279896736,-0.011036141775548458,-0.08663640263450488,0.31489730593597387,0.013252999128093728
0.18072819709777832,-0.012324929237365723,-0.016545772552490234,0.0060942769050598145,-0.01828913763165474,-0.009151756763458252,-0.0015172056155279279,-0.08690655813465936,0.3147940359740756,0.01327530146169505
0.19074416160583496,-0.01307457685470581,-0.015715986490249634,0.00982445478439331,-0.01140714529901743,-0.004968419671058655,0.006931672804057598,-0.08697731191678748,0.3146531705131111,0.01333727613727681
0.20063209533691406,-0.013639062643051147,-0.013092942535877228,0.01266467571258545,-0.011644432321190834,0.0029419679194688797,0.013490506447851658,-0.08700941849717211,0.31463788487758876,0.01347008665445364
0.2106921672821045,-0.014947772026062012,-0.014532037079334259,0.010067939758300781,-0.015817424282431602,0.016407841816544533,0.0170772522687912,-0.08706015210584549,0.3147322080131852,0.013655900906835682
0.2208871841430664,-0.014738142490386963,-0.01830635964870453,0.008976280689239502,-0.0101752495393157,0.015241643413901329,0.01779923588037491,-0.08703494399348397,0.31486459411586853,0.013861833207505031
0.23078298568725586,-0.014057278633117676,-0.014121487736701965,0.01117783784866333,-0.003111048834398389,0.012622425332665443,0.015649529173970222,-0.08686247739560783,0.31494635254038367,0.014028466126163002
0.24071121215820312,-0.012329429388046265,-0.008190706372261047,0.01043689250946045,0.0010437488090246916,0.009688686579465866,0.01564420387148857,-0.08663764150770434,0.3149844960466856,0.014170742136264625
0.25058603286743164,-0.012218445539474487,-0.007322944700717926,0.007735490798950195,0.0016371675301343203,0.013494167476892471,0.01286945678293705,-0.08644052877355488,0.3150389549985325,0.01429128121964488
0.26076698303222656,-0.011247754096984863,-0.007468588650226593,0.003709256649017334,0.013218988664448261,0.008127897046506405,0.013768273405730724,-0.08617319792393266,0.3150537171867906,0.014384742526139083
0.27060914039611816,-0.007228285074234009,-0.0022957101464271545,-0.0009860396385192871,0.026003576815128326,-0.002797144465148449,0.012791372835636139,-0.0858054771137009,0.3149883092961011,0.014438018312321471
0.28059911727905273,-0.0032851994037628174,0.0030011162161827087,-0.0028868913650512695,0.024716736748814583,-0.010544812306761742,0.01156179141253233,-0.08540525637688848,0.3148254958795104,0.014474405698042923
0.29061126708984375,-0.004042178392410278,0.0005943328142166138,-0.004846155643463135,0.009925457648932934,-0.01457279920578003,0.0094201834872365,-0.08507952897671385,0.314584662966244,0.01451457247180947
0.30074119567871094,-0.00399547815322876,-0.0031884536147117615,-0.005684316158294678,-0.0069968001917004585,-0.01470276154577732,0.006084042135626078,-0.08487905185177326,0.3143365852307204,0.01457849770420964
0.31076812744140625,-0.004598468542098999,-0.005471289157867432,-0.003984570503234863,-0.018875963985919952,-0.02061276137828827,0.0033240485936403275,-0.08487303447540233,0.3140709674407082,0.014659771746860282
0.32086610794067383,-0.005920320749282837,-0.0053713321685791016,-0.0005917549133300781,-0.02788996510207653,-0.026477307081222534,0.0002361132064834237,-0.08503306529624872,0.3137635354067733,0.014742175061830011
0.3307762145996094,-0.005625516176223755,-0.005951113998889923,0.0006667971611022949,-0.035214006900787354,-0.027044693008065224,0.0038862416986376047,-0.08527803482300882,0.31342704963620516,0.014843228656188211
0.3410911560058594,-0.008671492338180542,-0.0067604705691337585,0.000885009765625,-0.03917492926120758,-0.02870517410337925,0.004675868898630142,-0.08555434043280466,0.3130905489015331,0.014991945584894964
0.3511652946472168,-0.009354382753372192,-0.007081903517246246,0.0005591511726379395,-0.03541935235261917,-0.02797924168407917,0.006392169743776321,-0.08587696016207394,0.3127736347586171,0.015148374325868965
0.36109304428100586,-0.009282112121582031,-0.005933530628681183,0.0015695691108703613,-0.018241699784994125,-0.03143895044922829,0.010908624157309532,-0.08613334921456978,0.312495309534979,0.015308314709791404
0.37093114852905273,-0.009712457656860352,-0.002872094511985779,0.003688633441925049,-0.010419678874313831,-0.03618039935827255,0.010353249497711658,-0.08621552719553359,0.31213068847974307,0.015449583925640943
0.381223201751709,-0.009345382452011108,-0.002696894109249115,0.00658106803894043,-0.013925730250775814,-0.028127267956733704,0.008909815922379494,-0.08625409465631313,0.31179293728162955,0.015573750883806458
0.3909339904785156,-0.01441812515258789,-0.0067335814237594604,0.010065138339996338,-0.016742605715990067,-0.023242099210619926,0.004720716271549463,-0.08630844407650434,0.3115120219913364,0.015691896574624196
0.4011693000793457,-0.01940491795539856,-0.009361982345581055,0.013629376888275146,-0.020588742569088936,-0.014712793752551079,0.0016250580083578825,-0.08641955601627296,0.3113029510509894,0.015769062817578797
0.4108443260192871,-0.019124895334243774,-0.0065887123346328735,0.01275104284286499,-0.015247523784637451,-0.00988692231476307,0.0030761081725358963,-0.08651529363381245,0.311155178624483,0.01584659182966722
0.4211702346801758,-0.016918540000915527,-0.0021109730005264282,0.011550188064575195,-0.00591207854449749,-0.004571785684674978,0.0013623639242723584,-0.08653898782302698,0.3110336169399261,0.01588367731542809
0.43073511123657227,-0.01515313982963562,-8.492171764373779e-05,0.009529650211334229,-0.005449587479233742,0.002510180464014411,-0.0017515105428174138,-0.08652705439782392,0.31095771139595124,0.01589479202568163
0.44101524353027344,-0.017020761966705322,0.0008828490972518921,0.008655786514282227,-0.01019054651260376,0.009370217099785805,-0.003683900460600853,-0.08655119132738731,0.31096476698073305,0.015894625400514305
0.4512929916381836,-0.016105949878692627,-0.0010641813278198242,0.007456064224243164,-0.02456890232861042,0.011726893484592438,-0.01298855897039175,-0.08671355486174473,0.31100223095808827,0.015860292534187075
0.46112918853759766,-0.01580551266670227,-0.005189172923564911,0.007230997085571289,-0.040617380291223526,0.019850334152579308,-0.01885310560464859,-0.08705564716260933,0.3110972430272531,0.01580057361058691
0.47110819816589355,-0.015310525894165039,-0.010572120547294617,0.007388710975646973,-0.04704318568110466,0.0209236741065979,-0.022029351443052292,-0.08748111170617284,0.31121479654354295,0.015732745902359284
0.48291015625,-0.01299235224723816,-0.010223500430583954,0.004961788654327393,-0.03676897659897804,0.021392658352851868,-0.024041103199124336,-0.08788171366552523,0.31130780769601,0.015629486482099646
0.491091251373291,-0.011910796165466309,-0.006143480539321899,0.0036591291427612305,-0.019572148099541664,0.025524109601974487,-0.0224804375320673,-0.08816681302511002,0.3113982784869396,0.01547786927136491
0.5011641979217529,-0.013666689395904541,-0.0029798001050949097,0.0008683204650878906,0.005590197630226612,0.02204229310154915,-0.01677488163113594,-0.08826891163315032,0.3115150385662474,0.015305912770100115
0.5109732151031494,-0.013486772775650024,0.0015929192304611206,-0.0018666982650756836,0.0183879341930151,0.018406854942440987,-0.01752658560872078,-0.08819725782206922,0.3115968038401938,0.015092150111481815
0.5211551189422607,-0.012586385011672974,0.00028111785650253296,-0.003051280975341797,0.016207605600357056,0.02042073756456375,-0.01963021606206894,-0.08808957637179848,0.3116580019185979,0.014847166896243954
0.5310561656951904,-0.015042215585708618,-0.009128101170063019,-0.0035797953605651855,0.0056568593718111515,0.015937039628624916,-0.025311697274446487,-0.08803813634349646,0.31170393470042096,0.014583908242655416
0.5416660308837891,-0.014647126197814941,-0.015184544026851654,-0.001743018627166748,-0.008620613254606724,0.014978036284446716,-0.02569093182682991,-0.08808278690504082,0.3117229829891721,0.014334201561595464
0.5510473251342773,-0.012482404708862305,-0.016829900443553925,-0.0014911293983459473,-0.009962347336113453,0.010866736061871052,-0.02244134247303009,-0.08815678398053724,0.31172725513703164,0.014124866186581278
0.5610101222991943,-0.010377168655395508,-0.01631276309490204,-0.0061571598052978516,0.002479674993082881,0.008767366409301758,-0.015222045592963696,-0.08817377102551197,0.31171216223043885,0.013948823243488347
0.5710511207580566,-0.007188618183135986,-0.012662790715694427,-0.0077713727951049805,0.01334840152412653,0.005362870171666145,-0.008436789736151695,-0.08807872084608676,0.31167782464224364,0.013797846445574325
0.5812292098999023,-0.006998032331466675,-0.009081244468688965,-0.008708596229553223,0.012368625029921532,0.0019034240394830704,-0.0055762892588973045,-0.08794513996337923,0.31158564343015294,0.0136916490941344
0.5911221504211426,-0.007439374923706055,-0.01136954128742218,-0.005475044250488281,0.006326078437268734,0.006065323017537594,-0.00544185284525156,-0.08789866910898772,0.3115026862538747,0.013593340063366844
0.6012330055236816,-0.010275572538375854,-0.015731729567050934,-0.002499997615814209,0.006865900941193104,0.0069636073894798756,-0.0028937403112649918,-0.08785088641011751,0.3114670902315039,0.013531560269734608
0.6111040115356445,-0.010045498609542847,-0.012686893343925476,-0.002112746238708496,0.01799270510673523,0.005882852245122194,0.0008181203156709671,-0.08767401379318104,0.31139646046022595,0.013471148254077532
0.621239185333252,-0.006703734397888184,-0.0066507309675216675,-0.006076991558074951,0.032515186816453934,-0.0032864115200936794,0.007216897793114185,-0.08729742664473379,0.3112891847861237,0.013415047986980273
0.6316123008728027,-0.004836440086364746,-0.004447951912879944,-0.006480276584625244,0.03421818092465401,-0.005964220035821199,0.008790293708443642,-0.08681707251096774,0.3111409551907461,0.01337178070282666
0.6412930488586426,-0.004529237747192383,-0.004019230604171753,-0.0013318657875061035,0.02056468464434147,-0.008913405239582062,0.008152998983860016,-0.08640205375368656,0.3109824297807075,0.013359363764298363
0.6512460708618164,-0.005592912435531616,-0.011362127959728241,0.004045605659484863,0.006522320210933685,-0.010442191734910011,0.006819606758654118,-0.08616043763184465,0.3108262521861385,0.01339926865486405
0.6611611843109131,-0.0038997530937194824,-0.013984918594360352,0.007597982883453369,-0.0004921795334666967,-0.01662312261760235,0.005252869334071875,-0.0860514982101452,0.3106147139336397,0.013439184820635934
0.6711981296539307,-0.0035723447799682617,-0.011594057083129883,0.009297609329223633,-0.004285785835236311,-0.022012384608387947,0.0050814151763916016,-0.0859797031326665,0.310364078055742,0.013483346697997136
0.6813561916351318,-0.003506988286972046,-0.007754802703857422,0.009855270385742188,-0.01148803811520338,-0.015262601897120476,0.006251075305044651,-0.0859244218897475,0.3101006699085264,0.013553968049010025
0.6912193298339844,-0.0040628015995025635,-0.005348928272724152,0.008612215518951416,-0.0034983723890036345,-0.007831184193491936,0.007994646206498146,-0.08589882873758933,0.30992993228846666,0.01364103503589058
0.7012362480163574,-0.006792634725570679,-0.00414903461933136,0.004498779773712158,0.006605127826333046,-0.011660543270409107,0.0048286812379956245,-0.08581251211225666,0.3097812445733251,0.013693007215311
0.7112960815429688,-0.007498502731323242,0.001474037766456604,0.009068429470062256,0.007276244927197695,-0.007634554523974657,0.003120050299912691,-0.08569743853670266,0.30963754926002734,0.01369832054959995
0.7213711738586426,-0.007619529962539673,0.0015361905097961426,0.012174069881439209,0.006808060687035322,0.003707848722115159,-0.0009969304082915187,-0.08560441856098783,0.30958561029287174,0.01368350814530036
0.731417179107666,-0.00686916708946228,-0.001994498074054718,0.011118590831756592,0.006555277854204178,0.0004635411314666271,-0.0032916697673499584,-0.08547252664689516,0.30957921423149737,0.013639742787023804
0.7414381504058838,-0.005833268165588379,0.0005469992756843567,0.0097578763961792,0.0037006346974521875,0.0014622267335653305,-0.004460531286895275,-0.0853261199473643,0.3095769925917993,0.013586110486704439
0.7511801719665527,-0.004218459129333496,0.0034115687012672424,0.009865283966064453,0.011336433701217175,0.01603659801185131,-0.0017425090773031116,-0.08520770415508862,0.3096569110142646,0.013529377571150275
0.7613952159881592,-0.00694701075553894,0.0022203251719474792,0.008677482604980469,0.02703257091343403,0.007052689790725708,0.00304638734087348,-0.0849790572939083,0.30976029353823176,0.013483972081260944
0.7714321613311768,-0.0058386921882629395,0.008406199514865875,0.004941344261169434,0.045013971626758575,-0.003595160786062479,0.0007624601712450385,-0.08459012833824954,0.3097556055841782,0.013376656250401745
0.7813451290130615,-0.0011206865310668945,0.01047244668006897,0.00644993782043457,0.03993505612015724,-0.0008060322143137455,-0.0009952260879799724,-0.08415501774248141,0.3096763011551071,0.013241323364945472
0.7914831638336182,-0.005052626132965088,0.0025638267397880554,0.009372591972351074,0.0238554198294878,0.0004792092368006706,-0.006421150639653206,-0.0838992823872994,0.30961609540898233,0.013111667788098948
0.8013010025024414,-0.007656991481781006,-0.004794575273990631,0.009897351264953613,0.001691262936219573,-0.002555462997406721,-0.011966916732490063,-0.08384170979732214,0.30956117585175474,0.012984356323996265
0.8113481998443604,-0.005888402462005615,-0.008318483829498291,0.009565174579620361,-0.016635645180940628,0.00025914376601576805,-0.013475650921463966,-0.08396333869931154,0.30951770898848646,0.012885941775215737
0.8213729858398438,-0.007795155048370361,-0.009626008570194244,0.008155643939971924,-0.016916342079639435,0.005693856626749039,-0.01256085466593504,-0.08420359431226228,0.30952355696110856,0.012812079495594464
0.8333830833435059,-0.006942659616470337,-0.010097600519657135,0.008538305759429932,-0.0025067110545933247,-0.0013937023468315601,-0.003435746766626835,-0.08435529242898393,0.3095297684671898,0.012768690793471175
0.8414273262023926,-0.006249338388442993,-0.003888338804244995,0.005279242992401123,0.007918765768408775,-0.005592176225036383,-0.002068746369332075,-0.08435635588031257,0.30945846219323647,0.012722388589412314
0.8514852523803711,-0.004555612802505493,-0.003475688397884369,0.004528224468231201,0.010792732238769531,-0.0036421651020646095,0.0031369877979159355,-0.08432506358333577,0.30937720604911306,0.012694667855595625
0.861903190612793,-0.008269846439361572,-0.008048616349697113,0.005134165287017822,0.010080602951347828,-0.00520890299230814,0.007486196234822273,-0.08428970658775745,0.3093507816789562,0.012716456700798393
0.8720262050628662,-0.008106350898742676,-0.009738288819789886,0.005273759365081787,0.014453962445259094,-0.007489411626011133,0.007534985896199942,-0.08417845618243566,0.3092719925351184,0.012755142961340185
0.8829622268676758,-0.00730288028717041,-0.007006093859672546,0.004951417446136475,0.01105869933962822,-0.005926669109612703,0.010973392054438591,-0.08399382940891081,0.30917611405520196,0.012801599555742515
0.8914852142333984,-0.00874793529510498,-0.007427476346492767,0.003569960594177246,0.008179139345884323,-0.006981592159718275,0.016339875757694244,-0.08380419360452902,0.30910193118410706,0.012909803276467225
0.9015111923217773,-0.008007168769836426,-0.006360135972499847,0.00308382511138916,0.0065729874186217785,-0.012595802545547485,0.01926642283797264,-0.08362122200146531,0.3089917948473541,0.013058960666891712
0.9114711284637451,-0.006246656179428101,-0.006290540099143982,0.0047394633293151855,0.00923578254878521,-0.01970173604786396,0.025282982736825943,-0.08341357536110743,0.30881946352659206,0.013240655340243972
0.9215183258056641,-0.005193620920181274,-0.0038320347666740417,0.005391120910644531,0.01650860905647278,-0.025551103055477142,0.038961246609687805,-0.08319736219934831,0.30858853246173584,0.013497794323085715
0.9331061840057373,-0.0015786290168762207,0.0018588453531265259,0.005880773067474365,0.050056666135787964,-0.03861226886510849,0.054166827350854874,-0.082723358148186,0.3083041961622727,0.013838329061589771
0.9416213035583496,0.0005630254745483398,0.009883560240268707,0.00039440393447875977,0.08745782822370529,-0.040086325258016586,0.0610007643699646,-0.08183675306328773,0.30790566086062016,0.014160932775955993
0.9516232013702393,0.0022997260093688965,0.013910442590713501,-0.0019685029983520508,0.10492759943008423,-0.03162422031164169,0.09457503259181976,-0.08055222332965559,0.3075701719446332,0.014582712755399244
0.9619002342224121,-0.0011520087718963623,0.022254176437854767,8.040666580200195e-05,0.09517750144004822,-0.06476539373397827,0.08440575003623962,-0.07937636499474242,0.3070940164940479,0.015172251552683669
0.972783088684082,-0.0012340545654296875,0.019530251622200012,0.012483954429626465,0.06604435294866562,-0.08117979019880295,0.0628812313079834,-0.07837402911498373,0.30633641593499966,0.015617968076628208
0.983119010925293,0.0005059242248535156,-0.028607651591300964,0.0015012025833129883,0.05329074338078499,-0.08471060544252396,0.05961965024471283,-0.07760517006019631,0.30549834681744575,0.016006831763377628
0.9917311668395996,-0.003924727439880371,-0.017399892210960388,-0.005163073539733887,0.03127240762114525,-0.10072281956672668,0.05501936376094818,-0.07703107523472344,0.3046077288315975,0.016432126030568532
1.0017852783203125,-0.0022410452365875244,0.006861701607704163,0.005620062351226807,0.027766888961195946,-0.12281347066164017,0.05161743611097336,-0.07661774379633761,0.3035496839496126,0.016848203181959745
1.011620044708252,-0.0022144615650177,-0.007687874138355255,0.016827762126922607,0.03316040709614754,-0.1536630541086197,0.05186553671956062,-0.07624313555026105,0.3022301141196755,0.017269281895763954
1.0215950012207031,0.00016129016876220703,-0.0042080506682395935,0.016825497150421143,0.05570539832115173,-0.179326593875885,0.06343670934438705,-0.07576792039220051,0.3006532157506447,0.01768046534983359
1.0338082313537598,0.0058574378490448,0.0066065117716789246,0.011897265911102295,0.07802403718233109,-0.21623529493808746,0.07876463979482651,-0.07503734056286353,0.29875741081397655,0.018167470027474555
1.041795253753662,0.004061371088027954,0.005883306264877319,0.008624911308288574,0.07422450184822083,-0.23457249999046326,0.08349920809268951,-0.07424773103535605,0.2965739213243565,0.018726911268142202
1.0517911911010742,0.0031832754611968994,-0.004061095416545868,0.004614472389221191,0.051048241555690765,-0.24477650225162506,0.07835472375154495,-0.07357016347683133,0.29431230448452617,0.019331686355758024
1.0618462562561035,-0.001557677984237671,-0.014857873320579529,0.0031880736351013184,0.043893925845623016,-0.23720219731330872,0.07610035687685013,-0.07273751624323593,0.29205168661419156,0.019935421613703968
1.0721101760864258,-0.010184764862060547,-0.016827791929244995,0.005683183670043945,0.0543443039059639,-0.24782589077949524,0.07560330629348755,-0.07194351702329782,0.2897090448424524,0.020538543701032027
1.083707332611084,-0.008987396955490112,-0.005356647074222565,0.00682830810546875,0.09517509490251541,-0.28473517298698425,0.07401153445243835,-0.07116679068298891,0.2872594589644215,0.021072299699242264
1.09171724319458,-0.007273882627487183,-0.0004797130823135376,0.014142036437988281,0.1094282791018486,-0.2848404347896576,0.07177165150642395,-0.06997953001467963,0.2845992998031393,0.02150041180601783
1.1017003059387207,-0.0002593100070953369,-0.0021326392889022827,0.012478888034820557,0.14200752973556519,-0.27766719460487366,0.07306541502475739,-0.06854674540716257,0.2819306058137104,0.021857502020383508
1.1117591857910156,0.003877699375152588,0.0014043599367141724,0.010194003582000732,0.1993984431028366,-0.2996050715446472,0.08820527791976929,-0.06682159291123367,0.27928465960285065,0.02216316022506346
1.1219401359558105,-0.004843473434448242,0.014192812144756317,0.005671262741088867,0.22800825536251068,-0.3332836925983429,0.07663090527057648,-0.06458740211690674,0.27630972447247787,0.022397782851829365
1.1329991817474365,0.002823382616043091,0.012199807912111282,0.013045847415924072,0.18241675198078156,-0.3558633327484131,0.04394391179084778,-0.062410370756720436,0.27300704341340737,0.02243396175606203
1.1421492099761963,0.00232890248298645,-0.013736803084611893,0.0279579758644104,0.0552220493555069,-0.3847639560699463,-0.026227451860904694,-0.06124514536342607,0.26931213339410404,0.02221084817793141
1.1520042419433594,-0.006484478712081909,-0.03577845171093941,0.05404520034790039,-0.10613545030355453,-0.42224499583244324,-0.09053751826286316,-0.0616200223909476,0.2652542453155784,0.021705929040567666
1.1621942520141602,-0.004728466272354126,-0.07094009220600128,0.07451897859573364,-0.28928476572036743,-0.5109322667121887,-0.17744286358356476,-0.06384231029418021,0.26057231978205075,0.020942525985304817
1.1733322143554688,0.004296690225601196,-0.07094785571098328,0.09430384635925293,-0.5560407042503357,-0.6375760436058044,-0.3084544539451599,-0.06848363676306027,0.25474711491643676,0.019676046185554626
1.1844573020935059,0.01371215283870697,-0.0861908495426178,0.11506783962249756,-0.911964476108551,-0.7857415080070496,-0.46706220507621765,-0.07649979122139573,0.24750380056356575,0.01775767999690449
1.192446231842041,0.01664268970489502,-0.14618054032325745,0.12634670734405518,-1.3768343925476074,-1.0181808471679688,-0.7252395153045654,-0.08895525946074537,0.23823103684703492,0.014732601980937137
1.2019963264465332,0.026426643133163452,-0.1746143400669098,0.15871334075927734,-2.0296058654785156,-1.3069220781326294,-0.977672815322876,-0.1073920233018518,0.22620983028099864,0.010284105990781583
1.2118730545043945,0.04630948603153229,-0.1806003898382187,0.18521326780319214,-2.992471694946289,-1.585254192352295,-1.265446662902832,-0.1341425505056846,0.2109786574165707,0.004715037804141371
1.2219572067260742,0.05920328199863434,-0.19117371737957,0.18759673833847046,-4.358531475067139,-1.747301697731018,-1.5322461128234863,-0.1727134529819854,0.1932366406165177,-0.0017942816853397231
1.2334623336791992,0.03328719735145569,-0.2228948175907135,0.17053329944610596,-6.117242813110352,-1.8669238090515137,-1.8390250205993652,-0.22714712456089234,0.17366790275609828,-0.008978169916672758
1.2419471740722656,-0.005624234676361084,-0.2676546573638916,0.18651264905929565,-7.941311359405518,-1.9494730234146118,-2.1517412662506104,-0.2999169692902229,0.15224860169727597,-0.017603625054195892
1.2518982887268066,-0.03690842539072037,-0.3299630284309387,0.247472882270813,-10.173508644104004,-2.1312899589538574,-2.403975248336792,-0.39314361885123533,0.12872171597957588,-0.027827518412453955
1.2625072002410889,-0.04800625145435333,-0.2726163864135742,0.30882471799850464,-12.497218132019043,-2.4406964778900146,-2.5656378269195557,-0.508514535235613,0.09991753054011106,-0.041091769495397494
1.2719120979309082,-0.05442606657743454,-0.2453995943069458,0.4064372181892395,-14.909534454345703,-2.5240814685821533,-2.596792697906494,-0.6471855664149273,0.06555242922972174,-0.058549170491326616
1.283677101135254,-0.050811849534511566,-0.22907918691635132,0.4377948045730591,-17.69413185119629,-2.6427762508392334,-2.3459393978118896,-0.8111968353117445,0.02382223824028845,-0.08222586255562213
1.2919871807098389,-0.1266002655029297,0.024862051010131836,0.45233988761901855,-20.460376739501953,-2.564049243927002,-1.8276119232177734,-1.0023481206727747,-0.030224036775557538,-0.11739466452043595
1.3020331859588623,-0.1345156580209732,0.22537606954574585,0.4202623963356018,-22.411006927490234,-2.1973865032196045,-1.3529818058013916,-1.216242365544165,-0.11790464895276423,-0.18829632327927626
1.3119981288909912,-0.11429893225431442,0.3253377079963684,0.3060868978500366,-23.238367080688477,-1.8118256330490112,-1.288170337677002,-1.4356789518956525,-0.44702689233208676,-0.5045709294645602
1.3219890594482422,-0.15226513147354126,0.5641510486602783,0.20624090731143951,-22.267681121826172,-1.464859962463379,-1.8157663345336914,-1.4405382785685112,-2.5403652031773465,-2.5892927374370385
1.3330073356628418,-0.24993067979812622,0.8434317111968994,-0.017876803874969482,-20.754188537597656,-1.5365159511566162,-2.4440360069274902,-1.2341744482404424,-2.862101897639851,-2.902934150453015
1.3429722785949707,-0.2849314212799072,0.840680718421936,-0.2776477336883545,-19.392255783081055,-1.5080331563949585,-2.7416796684265137,-1.032768918894642,-2.928366531449258,-2.958728364539761
1.354297161102295,-0.18025894463062286,0.6567758321762085,-0.3037680983543396,-17.389131546020508,-1.3241052627563477,-2.9083290100097656,-0.8459318060696548,-2.954798913696526,-2.9738144714405825
1.361964225769043,-0.15709489583969116,0.7602026462554932,-0.3283368945121765,-14.09673023223877,-1.279714822769165,-2.861724376678467,-0.6847539714691364,-2.967803555575681,-2.9734278272717045
1.372178077697754,-0.13568022847175598,1.0667355060577393,-0.4571850299835205,-9.417031288146973,-1.2079870700836182,-2.6472535133361816,-0.5634183506677465,-2.9749742755113635,-2.964817713709113
1.383291244506836,-0.04423201084136963,1.2276320457458496,-0.6697003245353699,-4.604184627532959,-1.5961225032806396,-2.332993745803833,-0.4907430367645856,-2.9814986278061095,-2.9494038831125073
1.3921422958374023,0.06000484526157379,1.2151620388031006,-0.7490499019622803,-1.6380059719085693,-1.459088921546936,-2.0088424682617188,-0.4579499161311549,-2.988615006676813,-2.9304919617480003
1.4021201133728027,0.16948898136615753,0.7353857755661011,-0.5485159158706665,-0.9735031127929688,-0.8623145222663879,-1.622614860534668,-0.443551290104438,-2.9926048767856717,-2.9125016166727065
1.4121413230895996,0.05056527256965637,0.13150107860565186,-0.24254333972930908,-1.5894695520401,-0.21604062616825104,-1.2364593744277954,-0.429108703893909,-2.992064570270199,-2.8988547155902524
1.4225661754608154,0.014302298426628113,-0.24404895305633545,0.09900397062301636,-2.1500651836395264,0.10428492724895477,-0.9271799325942993,-0.4086648598253891,-2.988914447459149,-2.8904186164865617
1.4336051940917969,0.06199972331523895,-0.3134117126464844,0.2982158064842224,-2.0438241958618164,0.15908554196357727,-0.752475380897522,-0.38615443706790736,-2.985395989138413,-2.8850103580530324
1.4423561096191406,0.09097696840763092,-0.198964923620224,0.28034377098083496,-1.4897536039352417,0.1310749351978302,-0.6555400490760803,-0.36747312765167534,-2.9823004527078005,-2.8805674204602534
1.4520502090454102,0.07958145439624786,-0.10784295201301575,0.13432079553604126,-0.9478330612182617,0.1309119611978531,-0.5548539161682129,-0.35464054831955155,-2.9794972372098623,-2.8762671381806157
1.4621362686157227,0.06494508683681488,-0.09033983945846558,0.0050046443939208984,-0.7999309301376343,0.1191551685333252,-0.4791348874568939,-0.3454290081836554,-2.976861262826731,-2.872300360965107
1.4724571704864502,0.06555593013763428,-0.10040661692619324,0.03059399127960205,-1.0460398197174072,0.11975114047527313,-0.3980914056301117,-0.3357761893547089,-2.9746593602436833,-2.8692982573396355
1.4835031032562256,0.06591038405895233,-0.16285958886146545,0.16229891777038574,-1.2474501132965088,0.09225906431674957,-0.3448268473148346,-0.32367907264959905,-2.9729685932091607,-2.867504103179161
1.492643117904663,0.04940800368785858,-0.19531556963920593,0.21585357189178467,-1.1405866146087646,0.04418536648154259,-0.31184467673301697,-0.3111518124574804,-2.9718873223665754,-2.866232651836237
1.5027241706848145,0.026899322867393494,-0.14533677697181702,0.18811941146850586,-0.8804698586463928,0.07835851609706879,-0.2530556619167328,-0.3006642475953047,-2.970997208391938,-2.865093202960743
1.5123882293701172,0.009302303194999695,-0.07778751850128174,0.13520753383636475,-0.696986734867096,0.19617800414562225,-0.17227360606193542,-0.29265585546443024,-2.9694491817307433,-2.8642889246030774
1.5221881866455078,-0.011786684393882751,-0.05768731236457825,0.05633342266082764,-0.6440380215644836,0.327902227640152,-0.09264136105775833,-0.2859010870076076,-2.9667481442067736,-2.864134257386632
1.5332531929016113,-0.029860273003578186,-0.06615403294563293,0.03382265567779541,-0.6765885353088379,0.4086618721485138,-0.07246264815330505,-0.27928927740455056,-2.9631601911097682,-2.864555077497647
1.5422883033752441,-0.03385324776172638,-0.07905206084251404,0.029409587383270264,-0.7070415616035461,0.4597056210041046,-0.08337175101041794,-0.27233192904103826,-2.958839711476547,-2.8650460743507344
1.5523443222045898,-0.049271583557128906,-0.08028241991996765,-0.01599109172821045,-0.6758241057395935,0.4062034487724304,-0.13413405418395996,-0.2652989209592803,-2.954539907004824,-2.865265193921784
1.5621862411499023,-0.04252691566944122,-0.03714635968208313,-0.027929961681365967,-0.6480859518051147,0.3478964567184448,-0.1866622418165207,-0.2585064428248812,-2.95068993880549,-2.864915707189213
1.572519302368164,-0.0512518584728241,-0.028173968195915222,-0.03671395778656006,-0.5784872770309448,0.2812510132789612,-0.21329252421855927,-0.25205638572260725,-2.947303509952042,-2.8640800032887235
1.584090232849121,-0.06096431612968445,-0.0011134296655654907,-0.04397082328796387,-0.48449742794036865,0.19231712818145752,-0.21268318593502045,-0.246428418188315,-2.944658162603596,-2.8629489611092303
1.592461109161377,-0.048693880438804626,0.03404368460178375,-0.041020214557647705,-0.4173722267150879,0.12947586178779602,-0.20305180549621582,-0.2416157289282505,-2.942811053335238,-2.8617518117862675
1.6030893325805664,-0.03955255448818207,0.03783833980560303,-0.007000088691711426,-0.37889060378074646,0.13319282233715057,-0.1916116625070572,-0.23733267621655946,-2.941242362596298,-2.860581311190529
1.6123571395874023,-0.04052680730819702,0.024256274104118347,-0.02402210235595703,-0.3428388237953186,0.17381185293197632,-0.15977773070335388,-0.23344291454918442,-2.9394604700714746,-2.8595214238581232
1.6224892139434814,-0.04187418520450592,0.03388272225856781,-0.0640331506729126,-0.2860674262046814,0.1695667803287506,-0.1390594094991684,-0.23002701372822051,-2.9375023652094705,-2.8587041758506464
1.6335630416870117,-0.025708749890327454,0.04492117464542389,-0.08679884672164917,-0.24826692044734955,0.09211840480566025,-0.15081796050071716,-0.22720054491467387,-2.9359522244311096,-2.8578223784147507
1.6423871517181396,0.0019134581089019775,0.049377575516700745,-0.07792377471923828,-0.30990177392959595,0.020416254177689552,-0.1697961688041687,-0.22414683470926097,-2.935151138813976,-2.856777909795912
1.6524300575256348,0.012455612421035767,0.03850036859512329,-0.024277925491333008,-0.3471412658691406,-0.03295016288757324,-0.18996945023536682,-0.22049944697626309,-2.934974003210853,-2.855658787362068
1.6625370979309082,0.019774407148361206,0.028910398483276367,0.010790646076202393,-0.25523024797439575,-0.06945597380399704,-0.17154304683208466,-0.2170994061253298,-2.935233864641888,-2.8544661975630397
1.672532081604004,0.032858312129974365,0.06699258089065552,0.018233656883239746,-0.09058355540037155,-0.0767526850104332,-0.14250421524047852,-0.21508800049369284,-2.935733680559528,-2.8532522122288766
1.6839051246643066,0.03614412248134613,0.09619730710983276,0.008034586906433105,0.03785058110952377,-0.046524737030267715,-0.08561749011278152,-0.21462007513680095,-2.9361165370033278,-2.8521326231472712
1.6926469802856445,0.03302001953125,0.08728218078613281,-0.004065752029418945,0.1093217134475708,-0.016926323994994164,-0.024599356576800346,-0.21529578825986137,-2.9362890774883814,-2.8514477484298206
1.7037391662597656,0.03265272080898285,0.0793944001197815,-0.0025117993354797363,0.1338459700345993,0.0039070528000593185,0.03458753600716591,-0.21652883607166762,-2.9362977043194824,-2.8512300744046266
1.7126049995422363,0.02762635052204132,0.06275381147861481,-0.006532788276672363,0.13000257313251495,-0.0031032306142151356,0.04918022081255913,-0.21792828447933693,-2.9362877816821835,-2.851422067933227
1.7226099967956543,0.018253609538078308,0.046473428606987,0.006512284278869629,0.10176455229520798,0.0013740761205554008,0.03732942044734955,-0.2191153569778399,-2.936332737500603,-2.851602804691019
1.7332801818847656,0.019413307309150696,0.022813931107521057,0.03166300058364868,0.1438589096069336,0.004461301490664482,0.03395615518093109,-0.22032787923028435,-2.9363082528194884,-2.8517161147338945
1.742488145828247,0.013285845518112183,0.019638672471046448,0.025202453136444092,0.2626159191131592,-0.015386439859867096,0.038725610822439194,-0.22240947818510098,-2.936363608452588,-2.851652093524965
1.7526030540466309,0.02210785448551178,0.06653565168380737,0.019073307514190674,0.3479403555393219,-0.002801582682877779,0.040586359798908234,-0.22551690892458529,-2.936437520051031,-2.8514202693956454
1.762585163116455,0.023971527814865112,0.06490585207939148,0.030315756797790527,0.41674765944480896,0.017863748595118523,0.053718142211437225,-0.22957057829227928,-2.9363519638821876,-2.851118159763806
1.7726781368255615,0.019011110067367554,0.04779024422168732,0.02881002426147461,0.3932344317436218,0.020361971110105515,0.04552151635289192,-0.23386138708983986,-2.93619052394525,-2.850781290934427
1.7839910984039307,0.023385226726531982,0.055141180753707886,0.03987729549407959,0.3157910406589508,0.07584094256162643,0.04377581179141998,-0.23760014206196006,-2.935784247514946,-2.8505093361403127
1.7927031517028809,0.010509282350540161,0.018603339791297913,0.03954595327377319,0.3038187026977539,0.10536496341228485,0.04372686520218849,-0.24084408768267304,-2.9349421872806554,-2.8503555678418873
1.8025941848754883,0.005699127912521362,0.02194128930568695,0.007238030433654785,0.3705945312976837,0.1165907233953476,0.038329172879457474,-0.24432194850813843,-2.9338655840915004,-2.850067151253712
1.8125691413879395,0.013920068740844727,0.039024367928504944,-0.021224021911621094,0.47830772399902344,0.09992159903049469,0.03812005743384361,-0.24851418682244245,-2.932713694366888,-2.849590517548745
1.8226380348205566,0.009673655033111572,0.043911516666412354,-0.024780631065368652,0.5612497925758362,0.06448691338300705,0.025136349722743034,-0.25369243298564326,-2.93169535288211,-2.848778930315876
1.8333702087402344,0.016332954168319702,0.04133939743041992,-0.019530653953552246,0.5832837820053101,0.06001870334148407,0.012019962072372437,-0.25938036759262045,-2.930821526688433,-2.8477208781364873
1.8425922393798828,0.016873329877853394,0.025509774684906006,-0.019665956497192383,0.5903640985488892,0.059196315705776215,0.0021825111471116543,-0.2651533853283861,-2.9299008338731545,-2.8465427195998836
1.8526721000671387,0.014739632606506348,0.015001684427261353,-0.018799304962158203,0.6265027523040771,0.0339847058057785,-0.03163233771920204,-0.2710346711266639,-2.9289997968770995,-2.8450713919842885
1.862713098526001,0.013369530439376831,-0.0019337236881256104,-0.0098341703414917,0.7043054103851318,-0.015557813458144665,-0.04840199649333954,-0.2774841565196895,-2.9284257983400397,-2.843185862145264
1.8732390403747559,0.01811876893043518,-0.012225896120071411,-0.005893051624298096,0.8096035122871399,-0.016691965982317924,-0.03796597197651863,-0.2847344406248906,-2.928016938863621,-2.8410635454867466
1.883254051208496,0.021315380930900574,-0.005388408899307251,-0.0197603702545166,1.0138347148895264,0.008352401666343212,-0.044676873832941055,-0.29352047079932286,-2.9273597196808674,-2.8386624510884406
1.8926873207092285,0.01834796369075775,-0.01278012990951538,-0.04345262050628662,1.2943460941314697,0.045740917325019836,-0.02092701569199562,-0.3047208287234211,-2.926237998235891,-2.8357066707169696
1.9026432037353516,0.02538369596004486,-0.011346012353897095,-0.0633237361907959,1.346794605255127,0.08610299229621887,-0.0016009885584935546,-0.3179774798395373,-2.9246103236115384,-2.8325766769484164
1.9127402305603027,0.026314914226531982,0.009343206882476807,-0.060976266860961914,1.1048204898834229,0.24461935460567474,0.05899253115057945,-0.33010003958843653,-2.92209103038423,-2.8299712683486615
1.922821044921875,0.018093422055244446,-0.035986870527267456,0.0019419193267822266,0.7034869194030762,0.3566441535949707,0.12324848771095276,-0.3391427048700266,-2.918665099091792,-2.8288522917279417
1.9336822032928467,0.008149102330207825,-0.11508440971374512,0.0639728307723999,0.5162608623504639,0.3785998523235321,0.17742879688739777,-0.3452289532894453,-2.9149743901498057,-2.829019849235235
1.9428372383117676,0.019354969263076782,-0.07958313822746277,0.08600199222564697,0.6472122073173523,0.37880516052246094,0.22512201964855194,-0.35117640089542385,-2.9114496030007078,-2.829730181167787
1.9538681507110596,0.026825502514839172,0.0007106363773345947,0.02947080135345459,1.0526925325393677,0.41549748182296753,0.2921290099620819,-0.3598986974477354,-2.907730984315682,-2.8303521791313746
1.9628562927246094,0.02052280306816101,0.04033765196800232,-0.04442489147186279,1.7746249437332153,0.46175846457481384,0.38666245341300964,-0.3743014760159161,-2.9032718845399184,-2.830357818769191
1.9730291366577148,0.024550586938858032,0.07950812578201294,-0.08270764350891113,2.7400317192077637,0.4560745060443878,0.5112015604972839,-0.39722565744832755,-2.898221350541513,-2.8292600969678063
1.984222173690796,0.04207871854305267,0.14381897449493408,-0.084389328956604,3.778717517852783,0.4805596172809601,0.6589489579200745,-0.4302792531890755,-2.8925331923687922,-2.826765427238562
1.992981195449829,0.04757110774517059,0.18240246176719666,-0.07615256309509277,4.815676212310791,0.5071771144866943,0.8332454562187195,-0.4738496295181375,-2.885867745522095,-2.822824295690578
2.002967119216919,0.026207774877548218,0.17001962661743164,-0.06130152940750122,5.713387966156006,0.5864447951316833,1.0170016288757324,-0.5272602483340113,-2.8779425578639994,-2.817584354499916
2.0129752159118652,0.0038288086652755737,0.14444297552108765,-0.04435640573501587,6.523085594177246,0.6991605758666992,1.201346516609192,-0.589286164479499,-2.8680538817386165,-2.8110363349767735
2.023099184036255,-0.013402774930000305,0.11575651168823242,-0.01868152618408203,7.3182573318481445,0.8009710907936096,1.3862881660461426,-0.6595086331585821,-2.8556922626523034,-2.8028098739787044
2.033405303955078,-0.02308514714241028,0.10648190975189209,0.022564232349395752,8.171099662780762,0.931337296962738,1.5688735246658325,-0.7379245969685222,-2.8400606253582925,-2.7919616445110274
2.0429041385650635,-0.03387907147407532,0.12560784816741943,0.07134944200515747,9.208093643188477,1.0551044940948486,1.8053982257843018,-0.8257840152856539,-2.8195568811978324,-2.7770552886560504
2.052983283996582,-0.035998329520225525,0.16393423080444336,0.09263867139816284,10.417885780334473,1.0949448347091675,2.0400028228759766,-0.9248226256115898,-2.7917784643506476,-2.754940097788502
2.0630393028259277,-0.031655967235565186,0.26290982961654663,0.14856088161468506,11.783512115478516,1.1608057022094727,2.267348527908325,-1.0361671647059618,-2.750357783878555,-2.7187450723172266
2.073169231414795,-0.04819925129413605,0.36296921968460083,0.23738589882850647,13.047676086425781,1.0958606004714966,2.4930543899536133,-1.159535859087327,-2.680560723013863,-2.653378492643603
2.0839152336120605,-0.08231492340564728,0.4423033595085144,0.36029040813446045,13.820086479187012,0.9609439969062805,2.5920820236206055,-1.2890609443299759,-2.5423679300342266,-2.5176806447837823
2.093278169631958,-0.11691591143608093,0.45500433444976807,0.5552577972412109,14.36076545715332,1.0645555257797241,2.4239017963409424,-1.4086939005827852,-2.1638668397362446,-2.1407335319371135
2.104377269744873,-0.19449681043624878,0.25364989042282104,0.6838176846504211,14.247138023376465,1.4165351390838623,2.3779540061950684,-1.4477863886471878,-1.1184447053135615,-1.0991115056223135
2.1129791736602783,-0.26660847663879395,0.08971285820007324,0.7132933735847473,13.927441596984863,1.6626555919647217,2.5105512142181396,-1.3573358468617869,-0.4093339394881909,-0.3970221889634949
2.123108148574829,-0.2867565155029297,0.16972112655639648,0.7514909505844116,13.518790245056152,1.7709373235702515,2.613640546798706,-1.2320697275726473,-0.16645531808993067,-0.16299314641382712
2.1333742141723633,-0.31000810861587524,0.21002435684204102,0.7840073704719543,13.138449668884277,1.950036644935608,2.6245784759521484,-1.1020790888661927,-0.05242376591333339,-0.05946867118599578
2.143092155456543,-0.3100784122943878,0.16448312997817993,0.7763468027114868,12.666299819946289,2.116011381149292,2.6168711185455322,-0.9732662123253832,0.016525865445400915,-0.0032602281107035726
2.153034210205078,-0.30768319964408875,0.15395468473434448,0.7303749918937683,12.12973403930664,2.175269842147827,2.5649991035461426,-0.8480948627753042,0.06499508658329005,0.030784864698132526
2.163057327270508,-0.32128381729125977,0.1701805591583252,0.720885157585144,11.467215538024902,2.2186734676361084,2.4556283950805664,-0.7282215127818178,0.10224930420168658,0.05233247156288528
2.1731271743774414,-0.31041765213012695,0.12189120054244995,0.7170737385749817,10.58622932434082,2.283259630203247,2.3859305381774902,-0.6154891726464127,0.13354145793514202,0.0663704992726288
2.1842041015625,-0.28617483377456665,0.07335931062698364,0.6810163855552673,9.39122200012207,2.29119610786438,2.3041346073150635,-0.5129245726845675,0.16185040888987162,0.07648647702540826
2.193211078643799,-0.26585668325424194,0.07687932252883911,0.6599650382995605,7.9478440284729,2.3555095195770264,2.1807661056518555,-0.4234224584403949,0.18863943460037816,0.08431506638343765
2.2038731575012207,-0.24753445386886597,-0.029258549213409424,0.6101604700088501,6.3310675621032715,2.443999767303467,2.035088539123535,-0.34909596541697596,0.2152797777931732,0.09122374260948204
2.213165283203125,-0.21364176273345947,-0.21946516633033752,0.5286925435066223,4.739995956420898,2.4987130165100098,1.7703065872192383,-0.2908393292334136,0.24205620554416457,0.09765314607646418
2.223302125930786,-0.1894916594028473,-0.3571178913116455,0.4472692012786865,3.381054162979126,2.4718878269195557,1.471339225769043,-0.2476732317323074,0.26858632445822933,0.10336366261975573
2.233614206314087,-0.1573566198348999,-0.38783538341522217,0.34340065717697144,2.481147289276123,2.2350049018859863,1.220309853553772,-0.21595658381232752,0.29340321828547866,0.10835634880776669
2.2431650161743164,-0.05497857928276062,-0.3250087797641754,0.24021655321121216,1.9703500270843506,1.9567583799362183,0.9921651482582092,-0.19164295195093176,0.31519049515584846,0.11237030026390603
2.25321626663208,0.06645044684410095,-0.17393192648887634,0.1476927399635315,1.8736975193023682,1.5381546020507812,0.8642475605010986,-0.17071635238961325,0.33334603490303105,0.11512751139160536
2.2631351947784424,0.13811242580413818,-0.01915048062801361,0.07218223810195923,1.9734108448028564,0.9910381436347961,0.7343508005142212,-0.1498837527884102,0.3461988567375895,0.1163011523963874
2.2732720375061035,0.1726703643798828,0.046525388956069946,0.06307089328765869,1.9442912340164185,0.6015496253967285,0.5699027180671692,-0.12909531677587324,0.3539293261910117,0.11562662764599006
2.2832891941070557,0.16734158992767334,0.05188644677400589,0.042346835136413574,1.6810529232025146,0.45356544852256775,0.4476926624774933,-0.11021704268807503,0.3588443998782668,0.11399871159665484
2.2932071685791016,0.12480974197387695,0.015894435346126556,-0.016119956970214844,1.3172907829284668,0.42830586433410645,0.3756229877471924,-0.09467476888510339,0.3631497057888895,0.11252930336659223
2.303335189819336,0.08067837357521057,-0.038700900971889496,-0.0835268497467041,0.9398434162139893,0.4087609350681305,0.24495498836040497,-0.08303148615758218,0.3672173548311789,0.11144979151627125
2.313300132751465,0.06312757730484009,-0.060363493859767914,-0.11103206872940063,0.6609659790992737,0.4397926926612854,0.14680297672748566,-0.07494471888175365,0.37135534454443203,0.11035504119842958
2.32332706451416,0.06386798620223999,-0.06109069287776947,-0.13872551918029785,0.5061604380607605,0.45105868577957153,0.12795045971870422,-0.06909546577636878,0.3757822695539177,0.10948496431077755
2.3348541259765625,0.06206941604614258,-0.025694116950035095,-0.1630130410194397,0.4650667607784271,0.40349963307380676,0.13145491480827332,-0.0641444452156798,0.3800421516041776,0.10894131746867382
2.3434231281280518,0.05936938524246216,0.020298708230257034,-0.15231186151504517,0.46976590156555176,0.3341578245162964,0.12807776033878326,-0.05931061719222907,0.38372695941805696,0.10840099040617718
2.353722095489502,0.05233186483383179,0.029778212308883667,-0.12498843669891357,0.4296201169490814,0.24828141927719116,0.09798046201467514,-0.05466060535902772,0.38659146456156446,0.10775295874853627
2.36330509185791,0.030794113874435425,0.004433058202266693,-0.09204304218292236,0.3293992578983307,0.2003120332956314,0.06265869736671448,-0.05084089808011663,0.38877851477273373,0.10705376174078633
2.3733301162719727,0.009779542684555054,-0.044673800468444824,-0.06835246086120605,0.20234856009483337,0.16189123690128326,0.018204353749752045,-0.04820195853125699,0.39056149810629626,0.10641997483636453
2.383639335632324,0.004746824502944946,-0.0696256160736084,-0.0525546669960022,0.06844481080770493,0.14447681605815887,-0.01422202866524458,-0.04695303079599613,0.3920544120958434,0.10590251818925633
2.393376111984253,-0.0031333863735198975,-0.06073197349905968,-0.04137110710144043,-0.030476344749331474,0.1282421052455902,-0.01820947416126728,-0.04687888076720222,0.3933829440158267,0.10569742945206673
2.403426170349121,-0.003327876329421997,-0.051274705678224564,-0.054560303688049316,-0.04584890604019165,0.10506567358970642,-0.004350915551185608,-0.0473403400665726,0.39457888868980984,0.10574464376961361
2.421431064605713,0.001311272382736206,-0.03184503689408302,-0.06763166189193726,0.025215912610292435,0.06557498872280121,0.014952155761420727,-0.04745730819042384,0.39542475687336115,0.10584331108775563
2.4283041954040527,0.003808647394180298,0.00958898663520813,-0.0691983699798584,0.11828513443470001,0.031666290014982224,0.03571628779172897,-0.04668710323554605,0.39589517038139643,0.10579939651335359
2.4339962005615234,-0.003620058298110962,0.02611285075545311,-0.06029319763183594,0.17292582988739014,0.026607394218444824,0.056422844529151917,-0.04513047463284574,0.3961607714538732,0.10563602858055375
2.443432331085205,-0.017443180084228516,0.018108487129211426,-0.04735368490219116,0.17487552762031555,0.030096402391791344,0.07263776659965515,-0.04324530292975285,0.39643902763510613,0.10555846415724492
2.453428268432617,-0.029092878103256226,0.01707432046532631,-0.03772085905075073,0.15614597499370575,0.051029469817876816,0.05949607864022255,-0.04145499202529479,0.3968456296526103,0.10552339648909582
2.463545322418213,-0.034438639879226685,0.011861991137266159,-0.02694106101989746,0.1147996112704277,0.07028012722730637,0.02863377146422863,-0.04002855906010533,0.3974395791117757,0.1054215028431022
2.473543167114258,-0.040721744298934937,-0.002034686505794525,-0.01149904727935791,0.06938596069812775,0.08670534938573837,-0.006889653857797384,-0.03913877323880578,0.39823263276854753,0.10515950424148343
2.4838080406188965,-0.05063304305076599,-0.011759951710700989,-0.0013297796249389648,0.03336137533187866,0.11700999736785889,-0.04967440292239189,-0.03879297418329186,0.3992302211935895,0.10471292754401473
2.4935851097106934,-0.04852679371833801,-0.0024694018065929413,0.010621607303619385,0.02954193577170372,0.11323318630456924,-0.07874653488397598,-0.03874921972800975,0.4003230310258195,0.1040029779537281
2.503643035888672,-0.04651889204978943,0.005317706614732742,0.01604706048965454,0.048044513911008835,0.09634795039892197,-0.11077051609754562,-0.03878989786095575,0.4012758188138599,0.10297646575898922
2.5136091709136963,-0.03673666715621948,0.011036098003387451,0.02635711431503296,0.07362635433673859,0.08461952209472656,-0.14174258708953857,-0.0388240963390197,0.4019883248732663,0.10155728592698164
2.523707151412964,-0.03510403633117676,0.02713310718536377,0.03310495615005493,0.08479325473308563,0.089893639087677,-0.15607333183288574,-0.038733487899474374,0.40265068875198773,0.09985693236547837
2.533818244934082,-0.03866010904312134,0.03393462672829628,0.026560544967651367,0.07247111201286316,0.10224023461341858,-0.18918095529079437,-0.038722123634578144,0.4033485435993805,0.09795825985520933
2.544032096862793,-0.03378790616989136,0.021639183163642883,0.024279475212097168,0.04393187537789345,0.14401698112487793,-0.2118002474308014,-0.039024384740722236,0.4043116683788708,0.09585432444851642
2.5536041259765625,-0.03753983974456787,0.01150454580783844,0.022534310817718506,0.02138502337038517,0.18883754312992096,-0.21804717183113098,-0.03957692967548017,0.40574796903608973,0.09374423962754579
2.563676118850708,-0.03890615701675415,0.013629820197820663,0.006879746913909912,0.005607657600194216,0.19897405803203583,-0.2304263412952423,-0.04030563064950229,0.4074155510619654,0.09163705141255267
2.5734620094299316,-0.01935875415802002,0.00394086167216301,0.002478182315826416,-0.0082312086597085,0.19775234162807465,-0.25024813413619995,-0.041267357677472846,0.4091120852185478,0.08941076250470882
2.584290027618408,-0.0030844509601593018,-0.010266579687595367,0.014912724494934082,-0.038912154734134674,0.17368215322494507,-0.24859672784805298,-0.04249064147295076,0.41060714667659565,0.08718903440767047
2.593468189239502,-0.003918468952178955,-0.03192979469895363,0.03035813570022583,-0.07660757005214691,0.15576298534870148,-0.23890893161296844,-0.04407477650466372,0.4119310413695343,0.08515776418092368
2.6034491062164307,0.005869686603546143,-0.04512627050280571,0.032809436321258545,-0.0755673423409462,0.12963524460792542,-0.20081880688667297,-0.04578310551910081,0.4131404576528048,0.08342911955284371
2.61350417137146,0.022702306509017944,-0.03250165656208992,0.02722376585006714,-0.06658552587032318,0.0936802551150322,-0.15074755251407623,-0.04724393381770155,0.41405209942256477,0.08209253024193994
2.623445987701416,0.03335726261138916,-0.021947897970676422,0.018902957439422607,-0.06310797482728958,0.06557219475507736,-0.11510486155748367,-0.04842553555138129,0.4146563201471664,0.08113540076697956
2.6336512565612793,0.033511728048324585,-0.031405460089445114,0.01791292428970337,-0.07929231971502304,0.04213304817676544,-0.08218361437320709,-0.04947676637959016,0.41502753822860433,0.08051337307843254
2.643449306488037,0.02838107943534851,-0.04325736314058304,0.012362182140350342,-0.10708719491958618,0.029508065432310104,-0.06364241987466812,-0.050633709668503696,0.4151906695749286,0.08021266403885732
2.6534931659698486,0.02283063530921936,-0.04786175861954689,0.01347494125366211,-0.15159213542938232,0.023673566058278084,-0.050151001662015915,-0.052020325860219666,0.4153348619115976,0.08020647494868169
2.663440227508545,0.013793140649795532,-0.05621860548853874,0.017850220203399658,-0.18890035152435303,0.020755009725689888,-0.034685224294662476,-0.05368088251522009,0.41556202562506095,0.08050613030231672
2.673427104949951,0.002665877342224121,-0.053533099591732025,0.016059935092926025,-0.20903317630290985,0.016903501003980637,-0.023968398571014404,-0.05545358389430444,0.41580917239849946,0.08105081650353466
2.6836252212524414,-0.0032830536365509033,-0.04469255730509758,0.01122671365737915,-0.21463993191719055,0.007223709020763636,-0.020832793787121773,-0.05720541549241239,0.4160678237354797,0.08171660227624954
2.6935391426086426,-0.004201233386993408,-0.041427548974752426,-2.2232532501220703e-05,-0.22511345148086548,0.0008939523249864578,-0.012318347580730915,-0.05900936934054083,0.4163677404889325,0.08247404016584521
2.7035722732543945,-0.0009125769138336182,-0.03582174703478813,-0.009928584098815918,-0.23116734623908997,-0.004567125346511602,-0.003515268675982952,-0.060883743860322276,0.41672634777403184,0.08335345527258278
2.7139892578125,0.004340320825576782,-0.028709426522254944,-0.01929682493209839,-0.2505895495414734,-0.016410335898399353,-0.009621844626963139,-0.06264011837690173,0.4171213001934879,0.08429161659458684
2.7239952087402344,0.003218322992324829,-0.03239259868860245,-0.02016347646713257,-0.2604145109653473,-0.010921027511358261,-0.004776488523930311,-0.06445012197457971,0.4173819840862714,0.08528134244129394
2.7345921993255615,-0.002739042043685913,-0.030968204140663147,-0.021893620491027832,-0.24832987785339355,-0.00572182796895504,0.010782443918287754,-0.06615742090000423,0.41767276167073225,0.0863662901924877
2.743450164794922,-0.007651865482330322,-0.020272046327590942,-0.03420543670654297,-0.19788508117198944,-0.012423938140273094,0.038494765758514404,-0.06741168661750635,0.4178934936096274,0.08751474597764974
2.753571033477783,-0.004751265048980713,-0.0026417970657348633,-0.04608267545700073,-0.1360088735818863,-0.03885221853852272,0.06705471873283386,-0.06813943784626525,0.41779672095332115,0.08869803620302784
2.7635183334350586,0.006738871335983276,0.013199567794799805,-0.056728482246398926,-0.09892436116933823,-0.05842778459191322,0.08010260760784149,-0.06850375728131268,0.4173891844793579,0.08984480930070593
2.7735722064971924,0.012572020292282104,0.012159585952758789,-0.05876117944717407,-0.1027178168296814,-0.06902028620243073,0.0867353156208992,-0.06876615627313291,0.41679023931659387,0.0910217340781705
2.784381151199341,0.006608337163925171,-0.0022198036313056946,-0.05352813005447388,-0.1271914690732956,-0.06734568625688553,0.07933039963245392,-0.06924593562885556,0.41614987836155964,0.09225062776507392
2.793635129928589,-0.0062049031257629395,-0.015664957463741302,-0.04466128349304199,-0.12978069484233856,-0.07267645001411438,0.08241210132837296,-0.06992111267880728,0.4155474671991424,0.09350966809072463
2.8036551475524902,-0.012624740600585938,-0.011622093617916107,-0.043777644634246826,-0.10480929911136627,-0.09661640226840973,0.08142886310815811,-0.0705030951981708,0.41477531448996946,0.0947437113559975
2.8136119842529297,-0.013185381889343262,0.008182927966117859,-0.04252523183822632,-0.07578503340482712,-0.11331797391176224,0.08086379617452621,-0.07087111342730484,0.41376312309831736,0.09585076180656293
2.8236660957336426,-0.010662436485290527,0.020040161907672882,-0.04177337884902954,-0.060242295265197754,-0.1285962611436844,0.08032742887735367,-0.07106881859480545,0.4125776363850624,0.09686611406580899
2.8338510990142822,-0.013858497142791748,0.015810050070285797,-0.03550595045089722,-0.07851024717092514,-0.12977205216884613,0.0663229301571846,-0.07137821522224541,0.4112760882690136,0.09781486704027156
2.843785285949707,-0.022803425788879395,0.0030089467763900757,-0.021893858909606934,-0.10511335730552673,-0.12244994938373566,0.06312261521816254,-0.0719738064804031,0.4100635361346445,0.0987626804521451
2.8563690185546875,-0.03155672550201416,-0.002940915524959564,-0.01363438367843628,-0.13242383301258087,-0.10417413711547852,0.05858176201581955,-0.07284477594263825,0.40898453252696443,0.09979696998351202
2.863893985748291,-0.032774895429611206,0.0006569325923919678,-0.01580178737640381,-0.13974566757678986,-0.09746403992176056,0.05996500700712204,-0.07384250547714995,0.4080465239572444,0.10088720111735655
2.873836040496826,-0.031198322772979736,0.0012090280652046204,-0.02007293701171875,-0.13179126381874084,-0.0992819145321846,0.05767160281538963,-0.07480368839569915,0.4071054146368678,0.10195999554229343
2.884265184402466,-0.028400003910064697,0.0009248256683349609,-0.014247894287109375,-0.13151322305202484,-0.11268027871847153,0.05748225003480911,-0.07573137516798799,0.406062743422084,0.10301062328836734
2.8938770294189453,-0.025085538625717163,-0.006345316767692566,-0.0027230381965637207,-0.17271870374679565,-0.11783824861049652,0.0523802749812603,-0.07688611142265576,0.4049146067428362,0.1041044888518067
2.9039292335510254,-0.024075746536254883,-0.023104064166545868,0.0063433051109313965,-0.232931986451149,-0.10822902619838715,0.050606876611709595,-0.07858958632456126,0.4038197714895429,0.10537688857211845
2.9142980575561523,-0.03383585810661316,-0.03998185694217682,0.012408614158630371,-0.2651223838329315,-0.10721742361783981,0.04821844771504402,-0.08074949299480137,0.4027722746139495,0.10681696623036252
2.924036979675293,-0.03290891647338867,-0.049455925822257996,0.015055716037750244,-0.25308144092559814,-0.11375442147254944,0.05975286290049553,-0.08289123960660608,0.40163661707929843,0.10832036232831334
2.934382200241089,-0.01999068260192871,-0.039872922003269196,0.014177918434143066,-0.21392787992954254,-0.12613971531391144,0.08794061094522476,-0.08463638498434299,0.40029155728531113,0.10990141870578628
2.9439752101898193,-0.007461369037628174,-0.01615801453590393,0.00931251049041748,-0.1636420637369156,-0.13007959723472595,0.11840078234672546,-0.08587409867533755,0.39885466705896744,0.11157444036853394
2.9539811611175537,-0.0032633543014526367,-0.00513216108083725,0.006325423717498779,-0.14332100749015808,-0.123698890209198,0.13846524059772491,-0.08666147696750844,0.3974191526747584,0.11334658857295853
2.9641151428222656,-0.007195770740509033,-0.011793047189712524,0.007281601428985596,-0.1487000584602356,-0.09141871333122253,0.1498209685087204,-0.08734348843358453,0.396260214241749,0.11522643466404375
2.974040985107422,-0.011113256216049194,-0.017477355897426605,0.011307358741760254,-0.16620120406150818,-0.06941429525613785,0.1599515825510025,-0.08804085969751353,0.3954845993148275,0.11726417732285607
2.9846839904785156,-0.007606089115142822,-0.013488881289958954,0.008898377418518066,-0.16712957620620728,-0.05413361266255379,0.15914198756217957,-0.08867828369446691,0.394946396017377,0.11938742647569801
2.994016170501709,0.003410428762435913,-0.0039929598569869995,0.0043280720710754395,-0.15185895562171936,-0.05501392111182213,0.16268712282180786,-0.0891022496010759,0.39439825333216744,0.12147916489522016
3.0042262077331543,0.01203182339668274,0.008075125515460968,0.0020928382873535156,-0.14048433303833008,-0.06399516761302948,0.15055643022060394,-0.08933366171931516,0.3938093907091399,0.12347894266735794
3.0141491889953613,0.013898640871047974,0.016576342284679413,0.002795696258544922,-0.12992393970489502,-0.07789012044668198,0.1315019428730011,-0.0896533094687932,0.3932184115508451,0.12529848879163266
3.024203300476074,0.01343497633934021,0.011174768209457397,0.0043610334396362305,-0.14559690654277802,-0.07730662077665329,0.11597145348787308,-0.09028142629331908,0.39261808099777157,0.126982760607335
3.034492015838623,0.014186054468154907,0.019613757729530334,0.002518296241760254,-0.14192862808704376,-0.08668436110019684,0.10285501182079315,-0.09112324090213014,0.39198280729597523,0.12855994039470808
3.044250011444092,0.013658463954925537,0.03575730323791504,6.645917892456055e-05,-0.1293550431728363,-0.0920620858669281,0.08549252897500992,-0.09193560923637502,0.39122743258166676,0.12996950808600108
3.054133176803589,0.011065572500228882,0.0340350866317749,-0.004859864711761475,-0.11344499886035919,-0.09161107987165451,0.06921417266130447,-0.09268445323077129,0.3904095370694099,0.13115766976495077
3.0641660690307617,0.007950574159622192,0.03402993828058243,-0.011706054210662842,-0.08869437873363495,-0.08623762428760529,0.055558543652296066,-0.09331794898119548,0.3896077349247817,0.13212392643497198
3.074287176132202,0.004900604486465454,0.039732418954372406,-0.015416622161865234,-0.06905792653560638,-0.07910744845867157,0.05000627785921097,-0.09381269540406251,0.38889597319192454,0.13292246999355203
3.084583282470703,-0.002264946699142456,0.039518289268016815,-0.013162374496459961,-0.05585876479744911,-0.0653223991394043,0.04176965355873108,-0.09422702719636225,0.38832575696784105,0.13359191039654997
3.094179153442383,-0.014900922775268555,0.035165563225746155,-0.008781850337982178,-0.04778575897216797,-0.05074363201856613,0.0353420116007328,-0.09462952246207798,0.3879457675278409,0.13415690589657375
3.1043763160705566,-0.02451080083847046,0.03037317842245102,-0.009495198726654053,-0.04275451600551605,-0.03912106528878212,0.020619520917534828,-0.09498318062335581,0.3876911630406451,0.13461014341674143
3.1141881942749023,-0.026010990142822266,0.029469750821590424,-0.012735366821289062,-0.0426160953938961,-0.03294643759727478,0.005958767142146826,-0.09544620525693821,0.387515788713778,0.1349237211019926
3.1242311000823975,-0.02753278613090515,0.027372412383556366,-0.01334148645401001,-0.04224831610918045,-0.02691384218633175,-0.007865702733397484,-0.09611225796653783,0.38738841092745957,0.13507583140782714
3.1345651149749756,-0.031206071376800537,0.024313241243362427,-0.012550413608551025,-0.03867821395397186,-0.02797289378941059,-0.017312094569206238,-0.09680956679395752,0.38722937913462796,0.13511418922356444
3.1442360877990723,-0.0319957435131073,0.023015320301055908,-0.016152679920196533,-0.017853358760476112,-0.03596583753824234,-0.022360382601618767,-0.09740839893155284,0.38696762537912405,0.13503633661599512
3.154285192489624,-0.024238377809524536,0.027675002813339233,-0.021883070468902588,0.009838622063398361,-0.058403678238391876,-0.027675092220306396,-0.09783190931422958,0.38648146975390996,0.13481221488989814
3.164445161819458,-0.015524029731750488,0.03297354280948639,-0.024053335189819336,0.027672478929162025,-0.07027285546064377,-0.03178301826119423,-0.0980581442217569,0.3857440489046696,0.13444864980727628
3.1742920875549316,-0.010695338249206543,0.029360458254814148,-0.024302661418914795,0.02763131819665432,-0.0745970755815506,-0.032971907407045364,-0.09817753756600499,0.38483131501576395,0.13401585215091866
3.1843931674957275,-0.010291218757629395,0.02105563133955002,-0.023558378219604492,0.01727668195962906,-0.07047929614782333,-0.03572827950119972,-0.09830426427198871,0.3838690662322445,0.13358132327000516
3.1943182945251465,-0.013226091861724854,0.014763206243515015,-0.022004544734954834,0.00782395713031292,-0.07196179032325745,-0.036900442093610764,-0.09850942743360348,0.38292393037801614,0.13316814406911928
3.2044219970703125,-0.013200938701629639,0.013852305710315704,-0.020365595817565918,0.0029383881483227015,-0.06977959722280502,-0.03502451255917549,-0.09876544802919696,0.3819813470417975,0.13278530242859443
3.2144031524658203,-0.007705330848693848,0.01441589742898941,-0.020401597023010254,0.012358787469565868,-0.07549118995666504,-0.026305269449949265,-0.098950439235164,0.3810443286086312,0.1324468565780639
3.2243521213531494,-0.002859145402908325,0.016905970871448517,-0.01663869619369507,0.01450343243777752,-0.08527643978595734,-0.03191095590591431,-0.09907020529762861,0.3799987134213357,0.1321119398524986
3.234511137008667,-0.0026102662086486816,0.020342163741588593,-0.008018016815185547,0.0031037204898893833,-0.08378325402736664,-0.03812693431973457,-0.09928190089599474,0.37891244483662684,0.13172891657882477
3.2443652153015137,-0.005376338958740234,0.014354676008224487,-0.002904057502746582,-0.003686274867504835,-0.07180222123861313,-0.030788861215114594,-0.09962532604956922,0.37799001345671246,0.13140115220342338
3.254495143890381,-0.008887529373168945,0.014744013547897339,-0.004750669002532959,0.004133331589400768,-0.07077299803495407,-0.02853289619088173,-0.099939453005557,0.3771628908711744,0.13112227590832398
3.2644591331481934,-0.006707698106765747,0.0222141295671463,-0.007414519786834717,0.024064429104328156,-0.07411180436611176,-0.026085983961820602,-0.10003819689454527,0.37632811328054677,0.13080928462774818
3.2747020721435547,-0.0007889866828918457,0.02885425090789795,-0.00617295503616333,0.043722834438085556,-0.07612768560647964,-0.024065284058451653,-0.09988228286970795,0.3754335027528588,0.1304341511041937
3.284536123275757,0.0006181895732879639,0.0270095095038414,-0.004258513450622559,0.051790084689855576,-0.0855126604437828,-0.02819424867630005,-0.09960467191796352,0.3744795816740231,0.13001382386577537
3.294448137283325,0.0012469589710235596,0.02438782900571823,0.0010833144187927246,0.04556013643741608,-0.09070596098899841,-0.0311244186013937,-0.09934113019811801,0.3734939059573996,0.12953813519388185
3.3045032024383545,0.002700209617614746,0.016736775636672974,0.011262476444244385,0.027537990361452103,-0.08416976034641266,-0.03763691335916519,-0.09924023171878174,0.3725474201797109,0.1290727796616964
3.314423084259033,-0.0010947585105895996,0.011306412518024445,0.019939780235290527,0.016903938725590706,-0.07982885837554932,-0.0418696366250515,-0.0993458015496973,0.37169076945673885,0.12862004750576211
3.324397087097168,-0.0025369226932525635,0.01033385843038559,0.02145206928253174,0.014601368457078934,-0.08047281205654144,-0.04626651480793953,-0.09947977650849776,0.3708487041948812,0.12814125667933893
3.335034132003784,0.003335237503051758,0.009655497968196869,0.021778583526611328,0.014534257352352142,-0.07598085701465607,-0.04674961045384407,-0.09964013467266733,0.36998572883680764,0.12764059819297396
3.34444522857666,0.005766510963439941,0.015351854264736176,0.021101772785186768,0.01247563399374485,-0.07013388723134995,-0.04025762528181076,-0.09984996485017576,0.36918247494120554,0.1271827642042125
3.3550920486450195,0.003438711166381836,0.017544634640216827,0.021957039833068848,0.006769278086721897,-0.06131909042596817,-0.04103100672364235,-0.10013051963799516,0.36851199389301514,0.12676436766406673
3.3643360137939453,-0.0021687746047973633,0.01247946172952652,0.02370065450668335,0.004327693022787571,-0.04820648208260536,-0.04084831103682518,-0.10042114681762321,0.36795603855650955,0.12636714456124518
3.374422073364258,-0.0070507824420928955,0.01004551351070404,0.022247612476348877,0.002565479138866067,-0.03315003588795662,-0.041188400238752365,-0.10072037818643452,0.3675887959162639,0.12597513902594618
3.3848752975463867,-0.008340150117874146,0.007211141288280487,0.021328508853912354,0.004426845349371433,-0.022962599992752075,-0.046302784234285355,-0.1009773241434706,0.36736048792047776,0.12557309501409322
3.394496202468872,-0.008345335721969604,0.006593644618988037,0.022424936294555664,0.013074762187898159,-0.020641744136810303,-0.04649309813976288,-0.10115320464251916,0.3671921960224987,0.1251200172339033
3.404561996459961,-0.008687078952789307,0.008974440395832062,0.021731197834014893,0.020041856914758682,-0.01749442145228386,-0.040870100259780884,-0.10122947088222296,0.3670209145933999,0.12465486878890035
3.4145641326904297,-0.00749439001083374,0.012046054005622864,0.01945275068283081,0.019695347175002098,-0.01581130363047123,-0.03777343034744263,-0.10124018895895612,0.36690362833782075,0.12422191565146291
3.42456316947937,-0.0043447017669677734,0.011436805129051208,0.01326596736907959,0.012306938879191875,-0.01045355573296547,-0.039751626551151276,-0.10131576067523992,0.36681756005851607,0.12380855176742037
3.4348981380462646,-0.0009546279907226562,0.004863284528255463,0.010011255741119385,0.002185412682592869,-0.009368006139993668,-0.0438779778778553,-0.10149678546624222,0.3667396789562174,0.12339723795804308
3.44474720954895,-0.004379481077194214,0.0009557902812957764,0.012537240982055664,-0.01185903325676918,-0.007895544171333313,-0.0472940169274807,-0.1017741120740528,0.366642917498359,0.12299215703795431
3.454802989959717,-0.006037712097167969,1.3396143913269043e-05,0.014039099216461182,-0.012382910586893559,-0.008794361725449562,-0.046509768813848495,-0.10210789176065632,0.3665356569987133,0.122596340455566
3.4646341800689697,-0.004232168197631836,0.002094179391860962,0.00985860824584961,-0.003420840948820114,-0.014600586146116257,-0.04185882583260536,-0.10237837307682392,0.36637661530821997,0.1221993587819064
3.474651336669922,-0.0018590986728668213,0.007298655807971954,0.0059337615966796875,0.013749823905527592,-0.012575606815516949,-0.03034757450222969,-0.1024998532202087,0.3662249879876921,0.12183227316797453
3.4852700233459473,0.0008768439292907715,0.00987648218870163,0.0022927522659301758,0.028194010257720947,-0.01592453196644783,-0.02053302712738514,-0.10243941505529669,0.36605334659180216,0.1215291125715891
3.4946842193603516,0.0021253228187561035,0.012701809406280518,0.0016007423400878906,0.033628787845373154,-0.019115086644887924,-0.01866290345788002,-0.10228355532530539,0.36585304199709806,0.12122993427397773
3.504636287689209,0.0026901960372924805,0.01096392422914505,0.005480468273162842,0.021244024857878685,-0.02113296464085579,-0.021389979869127274,-0.10215920904847729,0.3656178663640391,0.12093676216307697
3.5147600173950195,0.0018430054187774658,0.0030839666724205017,0.005241334438323975,0.00726246228441596,-0.02393469773232937,-0.024032102897763252,-0.10213499858222132,0.3653955896905033,0.12068084310837741
3.524810314178467,0.0016096830368041992,0.0008933842182159424,0.00908207893371582,-0.005849078297615051,-0.03482462838292122,-0.03279763087630272,-0.10225099342418359,0.36507646750844314,0.12040974366378926
3.5350871086120605,0.0014983713626861572,0.0005660876631736755,0.012929141521453857,-0.017700709402561188,-0.041188254952430725,-0.0334022231400013,-0.1024879706496279,0.364663667861308,0.1201449395111132
3.5450291633605957,0.00046956539154052734,0.0015992522239685059,0.013393163681030273,-0.02228374406695366,-0.03898875042796135,-0.03009883500635624,-0.10281456249838196,0.36425659878137917,0.11992482056158826
3.555147171020508,-0.004207968711853027,0.0063505619764328,0.007125735282897949,-0.030600562691688538,-0.03578896075487137,-0.03281744197010994,-0.10323822763891906,0.36387188892460287,0.11971976160981962
3.5647811889648438,-0.005210131406784058,0.003275848925113678,0.0044956207275390625,-0.037140220403671265,-0.02473045140504837,-0.034718405455350876,-0.1037522171441845,0.36357501636117756,0.11951638800663553
3.5748772621154785,-0.010794878005981445,-0.0015122666954994202,0.006757199764251709,-0.041196614503860474,-0.020520083606243134,-0.03347348794341087,-0.10431669475112769,0.3633676963913402,0.11933532675169825
3.5848450660705566,-0.019774407148361206,-0.002014435827732086,0.01357734203338623,-0.03315040469169617,-0.019336573779582977,-0.033055372536182404,-0.10486765273324158,0.36321702619565005,0.11916725546894699
3.5947701930999756,-0.022415757179260254,-0.0008229240775108337,0.014938056468963623,-0.014242413453757763,-0.013509709388017654,-0.03293313458561897,-0.10521921680491585,0.3630686837320199,0.11894327621863218
3.6048171520233154,-0.021623462438583374,-0.0011831298470497131,0.010123968124389648,0.011131386272609234,-0.011999431997537613,-0.01895739510655403,-0.10532058016478407,0.362975520287381,0.11871160359463304
3.6148312091827393,-0.02144506573677063,0.00414624810218811,0.002624988555908203,0.037770338356494904,-0.0172597523778677,-0.012974604032933712,-0.10513237674953062,0.36287456463284895,0.11849037262839333
3.624861240386963,-0.01564672589302063,0.006557852029800415,0.0014937520027160645,0.05206805095076561,-0.01822035387158394,-0.00880542490631342,-0.10474807142438908,0.3627278723129882,0.11823523406179036
3.63505220413208,-0.010694742202758789,0.003129221498966217,0.0015292167663574219,0.04729216918349266,-0.015083061531186104,-0.006299124099314213,-0.10434454882617178,0.362522563947768,0.1179931299765464
3.644932270050049,-0.013301968574523926,0.00024500489234924316,0.004451930522918701,0.037101585417985916,-0.006135106552392244,-0.009673882275819778,-0.10400733464078166,0.36237576252334386,0.11776343611848537
3.6549811363220215,-0.017545461654663086,-0.0018607228994369507,0.0032695531845092773,0.03111058846116066,-0.004092417191714048,-0.017493294551968575,-0.10374654483638833,0.3622522700761203,0.11750771926578003
3.664947032928467,-0.016746222972869873,-0.0016881078481674194,-0.0006304383277893066,0.029885001480579376,-0.0032010567374527454,-0.023748528212308884,-0.10354231285360209,0.3620739748334922,0.1171917257731786
3.6750011444091797,-0.012533992528915405,0.005109280347824097,-0.0011140704154968262,0.039159927517175674,-0.0015215794555842876,-0.02331235632300377,-0.1033356244639833,0.36190092778694066,0.11683918522356301
3.6853551864624023,-0.011243700981140137,0.009736508131027222,-0.0046776533126831055,0.056725870817899704,-0.005237487610429525,-0.02344072051346302,-0.10299429288742176,0.3617143396961651,0.1164403746501538
3.6949610710144043,-0.006612807512283325,0.009510993957519531,-0.0078011155128479,0.07631844282150269,-0.01297769881784916,-0.024880211800336838,-0.10251537483288697,0.3614416139207462,0.11595905606590944
