timestamp,accel_x,accel_y,accel_z,rotation_x,rotation_y,rotation_z, pitch,roll,yaw
0.04354214668273926,-0.004704475402832031,-0.004673659801483154,0.015428781509399414,-0.017874177545309067,0.003523531835526228,-0.004994766786694527,-0.2671795224283128,1.4024656303934988,0.2259907945942269
0.05124211311340332,-0.0034801363945007324,-0.002338409423828125,0.01361154019832611,-0.017222866415977478,0.0026753146667033434,-0.0016644838033244014,-0.267242156187779,1.402544481106519,0.2261569030934823
0.06528115272521973,-0.003972053527832031,-0.0033342838287353516,0.009887218475341797,-0.016175711527466774,0.002609801013022661,8.361507207155228e-05,-0.26727793329529803,1.4026243243171188,0.22632816675017903
0.0701439380645752,-0.003918945789337158,-0.0028751790523529053,0.007498025894165039,-0.014026142656803131,0.0021502282470464706,0.0026291708927601576,-0.26729236648677235,1.4026970764872513,0.22648420580948375
0.07694196701049805,-0.00470811128616333,-0.0018168091773986816,0.009090438485145569,-0.016643229871988297,-3.968924283981323e-05,0.0026568679604679346,-0.2672866193037795,1.402755747191813,0.22664940197163916
0.0816960334777832,-0.005236387252807617,-0.0012650787830352783,0.012456491589546204,-0.01582542434334755,-0.0003177677281200886,0.003541676327586174,-0.2672841379021722,1.4028104825845824,0.2268174813519648
0.09091997146606445,-0.0010592937469482422,-0.0018815994262695312,0.011859714984893799,-0.015308237634599209,-0.003599314484745264,0.0016827901126816869,-0.26729057855194716,1.4028440492651217,0.22699082430708828
0.10002398490905762,0.0009551048278808594,0.0005869269371032715,0.0126638263463974,-0.015233086422085762,-0.006131669972091913,0.00252317707054317,-0.2672941026970931,1.4028486825153084,0.22715610685769994
0.10989904403686523,0.002463102340698242,0.0015191733837127686,0.009929180145263672,-0.011702267453074455,-0.005921280477195978,0.004305098205804825,-0.267276734580189,1.4028369330948667,0.2273018095271541
0.11994600296020508,0.0020335912704467773,0.0029205679893493652,0.011395856738090515,-0.008277060464024544,-0.006603981833904982,0.004365871660411358,-0.2672476363804106,1.4028042631729711,0.22740510081388796
0.12984895706176758,0.0011161565780639648,0.003224194049835205,0.01103585958480835,-0.0047869873233139515,-0.005192506592720747,0.0025985981337726116,-0.2672175397724819,1.4027670732259456,0.22748602685720412
0.13990283012390137,4.887580871582031e-05,0.0038214027881622314,0.009146630764007568,-0.0023507275618612766,-0.005931355990469456,0.004296575672924519,-0.2671995290538165,1.402732756121485,0.22752932445798862
0.14998793601989746,-0.0012003779411315918,0.004276633262634277,0.008379697799682617,0.0018464145250618458,-0.007895437069237232,0.003080310532823205,-0.2671705026870387,1.4026741556082278,0.22754311015379652
0.1598818302154541,-0.0012830495834350586,0.0035425126552581787,0.00854039192199707,0.006242228206247091,-0.010329033248126507,0.0029700554441660643,-0.2671406339081185,1.4025707443814919,0.2275053904694786
0.16994214057922363,-0.0018353462219238281,0.0046676695346832275,0.008701562881469727,0.010308874770998955,-0.01136740017682314,-0.000466221128590405,-0.2671131334925717,1.4024506290764835,0.22742878029704022
0.18033599853515625,-0.003240048885345459,0.004208207130432129,0.008696034550666809,0.011306412518024445,-0.011281779035925865,0.002431830856949091,-0.267083274246339,1.4023134201126088,0.22731670596117118
0.19008398056030273,-0.005160868167877197,0.0021894872188568115,0.009174063801765442,0.014383427798748016,-0.013430418446660042,-0.0012710285373032093,-0.2670563320461131,1.4021649845409743,0.22718425662456443
0.20003008842468262,-0.006170332431793213,0.001898735761642456,0.008336499333381653,0.01675204373896122,-0.015291878953576088,-0.0009689726866781712,-0.26710467710491376,1.4022572961206143,0.22709386948273397
0.21015191078186035,-0.006255924701690674,-2.1755695343017578e-05,0.008519291877746582,0.01916513405740261,-0.015138747170567513,-0.0018960190936923027,-0.26716573253613257,1.4023189735973707,0.226973646134717
0.22019600868225098,-0.006635904312133789,-0.0013252794742584229,0.008858606219291687,0.02224682830274105,-0.014463058672845364,-0.0013612030306831002,-0.2672358698250821,1.4023279819568035,0.22681323191680486
0.23012995719909668,-0.007395446300506592,-0.0005809366703033447,0.008100271224975586,0.0227203369140625,-0.011470730416476727,0.0001370913814753294,-0.26730256345958714,1.4023199731255633,0.22663249626973472
0.24004912376403809,-0.006424605846405029,-0.001016080379486084,0.009253144264221191,0.02313639037311077,-0.010070530697703362,0.0005565923638641834,-0.267342396686052,1.4023252413063203,0.22644578035431917
0.25019288063049316,-0.006076037883758545,-0.0021302402019500732,0.010617390275001526,0.02108335867524147,-0.008103519678115845,0.0009912203531712294,-0.2674059349507655,1.4023478658567043,0.22626941252314348
0.26013898849487305,-0.005715608596801758,-0.0037853121757507324,0.010083094239234924,0.018585247918963432,-0.007765563670545816,0.001977015985175967,-0.26746077208196656,1.4023776759343727,0.22610514877680735
0.27018284797668457,-0.005835115909576416,-0.004010915756225586,0.011014655232429504,0.01802917942404747,-0.0079535823315382,0.0010832592379301786,-0.26748903138529256,1.4024076180831915,0.22595762112631387
0.2801389694213867,-0.00429987907409668,-0.0026915371417999268,0.012623906135559082,0.016001347452402115,-0.007787579670548439,-0.0005693387356586754,-0.26752914165996633,1.4024143874416126,0.22582707345610006
0.2902190685272217,-0.00423884391784668,-0.003021538257598877,0.012654423713684082,0.012880655936896801,-0.008006490767002106,-0.00046547548845410347,-0.26753903393452827,1.4024299523853392,0.2257171871617105
0.30045008659362793,-0.004155158996582031,-0.004204243421554565,0.012452542781829834,0.0112295625731349,-0.006795018911361694,-0.00047682051081210375,-0.267531287260571,1.4024661382629886,0.22563105813163833
0.31058192253112793,-0.00486147403717041,-0.003142029047012329,0.012721970677375793,0.010920636355876923,-0.003242095932364464,0.0009021642617881298,-0.2675373600173505,1.4025034310215925,0.22555182299726684
0.32050490379333496,-0.004897356033325195,-0.003297775983810425,0.012574627995491028,0.008465451188385487,0.0006510461680591106,0.0016729895723983645,-0.2675248042600447,1.4026108723903516,0.22549698533953255
0.3302600383758545,-0.006613254547119141,-0.005002617835998535,0.01149497926235199,0.007235337048768997,0.003869742387905717,0.0032445210963487625,-0.267488972654466,1.4027851009985948,0.22546641870661888
0.34023404121398926,-0.007425963878631592,-0.00323602557182312,0.010985374450683594,0.003875859547406435,0.0054707457311451435,0.003590838285163045,-0.2674133751257968,1.4029715504776883,0.22545698117866164
0.3502650260925293,-0.006781876087188721,-0.004104554653167725,0.010892972350120544,0.002787692006677389,0.009485194459557533,0.004408428445458412,-0.2673330296371768,1.40320075453036,0.225479629943896
0.36027097702026367,-0.005623579025268555,-0.0037384629249572754,0.013279080390930176,-0.001799669349566102,0.008993664756417274,0.005113847088068724,-0.26726985927443253,1.403486484619588,0.225545428489007
0.37028002738952637,-0.006722569465637207,-0.0034514665603637695,0.011500120162963867,-0.004138990305364132,0.008913769386708736,0.002898363396525383,-0.2672095921606855,1.4037714227621112,0.22562841203706877
0.38042283058166504,-0.005788207054138184,-0.0022357404232025146,0.012502908706665039,-0.007830779999494553,0.006072931457310915,0.003133254125714302,-0.26715146411628965,1.4040353103992342,0.22574011172421962
0.39021801948547363,-0.0022777915000915527,-0.00030106306076049805,0.010007515549659729,-0.007059795316308737,0.0028907202649861574,0.00315163005143404,-0.26712312750817335,1.4042698114773868,0.225863780860757
0.40031886100769043,-0.0014277100563049316,0.0006522238254547119,0.008758872747421265,-0.007819179445505142,0.0012341891415417194,-0.0013738797279074788,-0.2671155775927761,1.4044760363456743,0.2259892450642101
0.4103858470916748,-0.002630472183227539,0.0022263824939727783,0.007773041725158691,-0.004688100889325142,0.0012538968585431576,-0.0039379713125526905,-0.2671130454086823,1.404646265321963,0.22608323980897851
0.42042088508605957,-0.0038788318634033203,0.003156334161758423,0.006462275981903076,-0.00426880270242691,0.0008325404487550259,-0.005660024471580982,-0.26716137219674013,1.4048028666124615,0.2261589444746004
0.43032097816467285,-0.005665838718414307,0.0013131797313690186,0.006925597786903381,-0.0026669111102819443,0.003335645655170083,-0.0040197838097810745,-0.26718969210304305,1.404956126738882,0.22621922244408788
0.4404308795928955,-0.005411922931671143,0.001538395881652832,0.007248774170875549,-0.001559768570587039,0.0012437324039638042,-0.005632753483951092,-0.26722512984910574,1.405144150550619,0.22627250772082808
0.4504730701446533,-0.0034865140914916992,0.001163870096206665,0.005934476852416992,-0.002470303326845169,0.001320964191108942,-0.004758704453706741,-0.2672653957839338,1.4052887804234226,0.2263205750319117
0.460399866104126,-0.0037145018577575684,-0.0005297958850860596,0.007832303643226624,-0.002014386933296919,0.0005751457065343857,-0.005311203189194202,-0.2673128106186759,1.4054570049638047,0.22638009630420186
0.4712388515472412,-0.0031127333641052246,-0.0003476738929748535,0.009640693664550781,-0.004414960276335478,0.00046888599172234535,-0.003726356429979205,-0.2673612896601015,1.4055908750263144,0.22644269571593245
0.4804649353027344,-0.003128945827484131,0.0011341869831085205,0.009170010685920715,-0.004524382762610912,-0.0001505655236542225,-0.0025955247692763805,-0.26742274756386825,1.405697921068198,0.22649736350648786
0.4903900623321533,-0.002554178237915039,0.0007529556751251221,0.007781878113746643,-0.0031685675494372845,-0.002160186879336834,-0.006656845565885305,-0.267517460667412,1.405789407737809,0.22654930194556025
0.5004208087921143,-0.0018344521522521973,-0.0006786584854125977,0.008020877838134766,-0.00031552312429994345,-0.0008192854002118111,-0.005015805829316378,-0.2676254037315033,1.4058540453532586,0.22658449182002935
0.5105068683624268,-0.0022486448287963867,-0.000916212797164917,0.006019160151481628,0.002226464217528701,9.018415585160255e-05,-0.005728733725845814,-0.26771350614466105,1.4059171547974763,0.22658679679180255
0.5211851596832275,-0.003519773483276367,0.0003611743450164795,0.006253182888031006,0.0035465930122882128,0.0015533249825239182,-0.005338314455002546,-0.2677970943490952,1.4059880892981926,0.22656445925494906
0.5304501056671143,-0.004566192626953125,-5.662441253662109e-07,0.00671638548374176,0.00541879516094923,-8.638342842459679e-05,-0.004897028673440218,-0.2678557065914009,1.4060438807029052,0.2265246936149745
0.5405838489532471,-0.0030319690704345703,-0.0008321404457092285,0.0065293461084365845,0.005453350022435188,0.0013669924810528755,-0.0010432216804474592,-0.2678794422986728,1.4061270989098213,0.22648553860143436
0.550544023513794,-0.005458235740661621,-0.0025677084922790527,0.004556313157081604,0.0038791552651673555,0.0022809894289821386,-0.0026456457562744617,-0.26789122812218913,1.4062437699008665,0.22646272837266454
0.5605790615081787,-0.005923867225646973,-0.002846449613571167,0.007991030812263489,0.0046463292092084885,0.0007098577916622162,-0.0011412259191274643,-0.2679270543740441,1.406352835075714,0.2264392567307561
0.5711319446563721,-0.00433272123336792,-0.0032557249069213867,0.0076287537813186646,0.003936596214771271,0.0032779439352452755,0.00020633358508348465,-0.2679400594953999,1.4064443351019382,0.2264172742861992
0.5806758403778076,-0.005495905876159668,-0.002164483070373535,0.008032441139221191,0.00436896039173007,0.0027767368592321873,0.0003660699585452676,-0.2679319471435862,1.4065497149329362,0.226394605180355
0.5906360149383545,-0.005179107189178467,-0.0022928714752197266,0.006295785307884216,0.004389466717839241,0.0021503614261746407,0.0016236145747825503,-0.2679068874907205,1.4066280506521454,0.2263598866058352
0.6006529331207275,-0.004601597785949707,-0.0020580291748046875,0.005996763706207275,0.006288467440754175,0.003341859672218561,0.004685557447373867,-0.2678848592935777,1.406702783619087,0.2263269555489921
0.6107790470123291,-0.00506359338760376,-0.00021651387214660645,0.005555391311645508,0.0077462815679609776,0.003302977653220296,0.0029992437921464443,-0.2678581494487476,1.406782917620918,0.2262787712920351
0.6214950084686279,-0.004934132099151611,-0.0005941390991210938,0.00661797821521759,0.00814928486943245,0.003733255434781313,0.0015547984512522817,-0.26782254105121384,1.4068705781524247,0.22622255326655677
0.6309311389923096,-0.004536092281341553,2.473592758178711e-05,0.0070771723985672,0.009000963531434536,0.0041252728551626205,-0.0007975716725923121,-0.2677978782152473,1.4069183009409292,0.22614048820483423
0.6406149864196777,-0.004400432109832764,0.0022085905075073242,0.005630135536193848,0.010402768850326538,0.002088709268718958,-0.001362374983727932,-0.267780158371525,1.406996627285234,0.22605635373502259
0.6506509780883789,-0.0044918060302734375,0.0011753439903259277,0.005999341607093811,0.010615022853016853,0.0015645991079509258,-0.0011551809730008245,-0.2677597763461756,1.4070585588822366,0.22596877173992508
0.6609008312225342,-0.002315223217010498,0.00169411301612854,0.006017342209815979,0.010860947892069817,0.0006858003325760365,-0.004187456332147121,-0.26777562273100736,1.4071191315152993,0.22586901701322798
0.6723611354827881,-0.0026703476905822754,0.0015008747577667236,0.006539463996887207,0.008280610665678978,0.001040533185005188,-0.0019016650039702654,-0.2677861685821702,1.4071632308561641,0.22577531475175075
0.6808288097381592,-0.003832697868347168,0.00271037220954895,0.007908403873443604,0.008275501430034637,0.0007709772326052189,-0.003671495243906975,-0.267797803601489,1.4071993900546877,0.22569349020509938
0.6964709758758545,-0.004284262657165527,0.0007804930210113525,0.006752684712409973,0.010155693627893925,0.0008375560864806175,-0.0050741820596158504,-0.26783696053119427,1.4072254774049822,0.22561049942414438
0.7044529914855957,-0.004858791828155518,-8.672475814819336e-06,0.006089016795158386,0.010378766804933548,0.0009130118414759636,-0.00550225842744112,-0.2678800523910026,1.4072635748179292,0.22551664687233255
0.710852861404419,-0.004592955112457275,0.0017955899238586426,0.006530240178108215,0.011015528813004494,-0.0008824910037219524,-0.0041509708389639854,-0.2679236018672081,1.4072949715182017,0.22541837295677178
0.7217309474945068,-0.004014372825622559,0.0013819634914398193,0.0063266754150390625,0.007879606448113918,-0.002201865427196026,-0.0045934817753732204,-0.26798861808416957,1.4073135447713125,0.2253300684048934
0.7308428287506104,-0.003404557704925537,-0.00043329596519470215,0.006512343883514404,0.008258840069174767,-0.0017523239366710186,-0.005195888690650463,-0.2680513288233913,1.4073240975420205,0.22525713938612282
0.7466850280761719,-0.002731800079345703,-0.0010997951030731201,0.007728293538093567,0.008784464560449123,-0.0020530391484498978,-0.006597723811864853,-0.2681253914590138,1.4073417412376092,0.22517953806162613
0.754828929901123,-0.0040397047996521,-0.0018344223499298096,0.006616115570068359,0.007275518029928207,-0.0040402901358902454,-0.009004422463476658,-0.26820681630028864,1.4073522983593154,0.22510121579972178
0.7717249393463135,-0.0035721659660339355,-0.0016053318977355957,0.005453929305076599,0.008444579318165779,-0.006148980464786291,-0.006191697902977467,-0.2683015992989398,1.4073506399175726,0.22502353032384106
0.7738380432128906,-0.0012603998184204102,-0.00089302659034729,0.006260097026824951,0.008550573140382767,-0.007458989974111319,-0.0056833005510270596,-0.2683698555612256,1.4073181506348538,0.2249425369750397
0.7819678783416748,-0.002385258674621582,-0.0007288753986358643,0.005455419421195984,0.008790357038378716,-0.006508329883217812,-0.004492761101573706,-0.26842116908619396,1.4072795223236503,0.22485996435537198
0.797187089920044,-0.003922462463378906,-0.001857757568359375,0.00612543523311615,0.0072260163724422455,-0.003178579732775688,-0.004803019110113382,-0.2684842303850061,1.407262009595517,0.22478810355136217
0.806225061416626,-0.004937350749969482,-0.004511058330535889,0.006563887000083923,0.006888877600431442,-0.002896773163229227,-0.0017895458731800318,-0.2685141091479836,1.4072649469803467,0.22472989064127893
0.822005033493042,-0.0055852532386779785,-0.004305511713027954,0.008532747626304626,0.00816639605909586,0.0007299198769032955,0.0011497848900035024,-0.26850662545996534,1.407296835109731,0.2246618426761492
0.8304450511932373,-0.004980683326721191,-0.002494335174560547,0.0075593143701553345,0.011802924796938896,0.002891474636271596,0.002650582930073142,-0.26846388476719024,1.4073596620534576,0.22457798943198864
0.8468868732452393,-0.003958940505981445,-0.0027416348457336426,0.007646486163139343,0.014031457714736462,0.0055349282920360565,0.004906546324491501,-0.2683880907088872,1.4074318388324552,0.2244755827434339
0.8554689884185791,-0.003438889980316162,-0.0014470219612121582,0.005671262741088867,0.014959719963371754,0.0047286562621593475,0.004816904664039612,-0.26831142632587623,1.407490602322605,0.2243537664653457
0.872344970703125,-0.003328680992126465,-0.0004235506057739258,0.005443856120109558,0.011797482147812843,0.003343279706314206,0.0038730804808437824,-0.2682469997978691,1.407556153851892,0.2242407333246079
0.8824899196624756,-0.0009652376174926758,0.0010788440704345703,0.0058779120445251465,0.00976950116455555,0.0027768700383603573,0.0017130968626588583,-0.26820800089016705,1.40759888397327,0.224143665235826
0.8967149257659912,-0.0032051801681518555,0.0008372962474822998,0.006505563855171204,0.007938046008348465,0.0015518160071223974,-0.002211603568866849,-0.26818942620110603,1.4076456756365308,0.22406068991396239
0.9048430919647217,-0.006216645240783691,-0.0011146068572998047,0.00780196487903595,0.009221373125910759,-0.00037378259003162384,-0.004321839194744825,-0.2681881671141022,1.4076784694798745,0.22397871548313464
0.9101078510284424,-0.006134986877441406,-0.0006025433540344238,0.008107200264930725,0.008066360838711262,-0.0020829993300139904,-0.008561058901250362,-0.2682268333605473,1.407708716730998,0.22389502067447595
0.914525032043457,-0.006958484649658203,-0.000818103551864624,0.007333576679229736,0.00836406834423542,-0.0016682567074894905,-0.008252132683992386,-0.2682921840661237,1.4077169629788062,0.22381674018498096
0.9214060306549072,-0.008571863174438477,-0.0017558038234710693,0.005615934729576111,0.006291596218943596,0.00165909668430686,-0.004380695056170225,-0.2683309924671447,1.4077564180588151,0.2237540405482192
0.9259698390960693,-0.007752537727355957,-0.0035428106784820557,0.005055367946624756,0.007092125713825226,0.004481115378439426,-0.00019915937446057796,-0.26834859681462236,1.4078155650033506,0.22369996095800304
0.931743860244751,-0.005358338356018066,-0.0024572014808654785,0.005761623382568359,0.007651655934751034,0.005639856681227684,0.0022000824101269245,-0.26833047913347935,1.407892001065655,0.22364101889781604
0.9461138248443604,-0.0015029311180114746,-0.0015567541122436523,0.005110219120979309,0.00849897414445877,0.0048578642308712006,0.0031545062083750963,-0.26829860272801975,1.4079686545862742,0.22357253480352515
0.9552628993988037,3.1828880310058594e-05,-0.0014124512672424316,0.0038215667009353638,0.008004957810044289,0.004028289578855038,0.0047590602189302444,-0.26825969518300746,1.4080417924549455,0.22350876287323787
0.9610059261322021,7.283687591552734e-05,-0.0006103813648223877,0.0052308589220047,0.004541450180113316,0.0008942815475165844,0.0015165554359555244,-0.26821909660638055,1.4081020251402818,0.22345289430983284
0.9713139533996582,8.70823860168457e-05,0.0007505416870117188,0.0050049275159835815,0.0011914600618183613,-0.004795828368514776,-0.0027223979122936726,-0.2682320010702482,1.4081304040041769,0.2234374211365784
0.9812049865722656,0.0006962418556213379,0.000243455171585083,0.005831241607666016,-0.0024016271345317364,-0.0055685448460280895,-0.005801065359264612,-0.26828312192026804,1.4081256692126851,0.22344839914046602
0.9960720539093018,-5.7816505432128906e-05,-0.00205838680267334,0.004738748073577881,-0.003768627531826496,-0.007222900632768869,-0.006664462387561798,-0.2683599642774524,1.4080997190966364,0.2234827856241602
1.0010550022125244,-0.0020768046379089355,-0.003232032060623169,0.0034965872764587402,-0.002483336254954338,-0.010443950071930885,-0.006254175677895546,-0.2684219269496523,1.4080392848647665,0.22351850481159674
1.011659860610962,-0.004465460777282715,-0.0024863779544830322,0.0015978813171386719,-0.000903815496712923,-0.010054328478872776,-0.0027097745332866907,-0.2684714602900668,1.4079798231173102,0.22354447702656105
1.0216209888458252,-0.0057985782623291016,-0.0018567144870758057,0.0009003281593322754,0.00434922007843852,-0.010364897549152374,-0.00016128923743963242,-0.2684673235868769,1.4079112730062036,0.2235219255649784
1.0328819751739502,-0.008280456066131592,-0.0022151172161102295,-0.00020331144332885742,0.007550073321908712,-0.007201328407973051,0.001877626753412187,-0.26844340570429087,1.4078374229371382,0.22347137355787097
1.0464088916778564,-0.009412407875061035,-0.002807319164276123,-0.00025475025177001953,0.00905768945813179,-0.006598921958357096,0.0016294202068820596,-0.26840870935179545,1.4077968268135956,0.22339812393335734
1.051326036453247,-0.010315656661987305,-0.0024619996547698975,-0.00109003484249115,0.008281644433736801,-0.005849508102983236,0.003405482042580843,-0.2683670436831306,1.4077464452678479,0.22332748101219466
1.0611660480499268,-0.01004493236541748,-0.0017108023166656494,0.0020409375429153442,0.009719501249492168,-0.005610578693449497,0.000629776157438755,-0.2683317494898339,1.4077129507670343,0.22325365556499308
1.0714991092681885,-0.008109509944915771,-0.002739429473876953,0.004381909966468811,0.00970005989074707,-0.006876644678413868,0.0012681358493864536,-0.26829078874739976,1.4076599989854532,0.22316757183823255
1.0812671184539795,-0.004839777946472168,-0.0008760392665863037,0.004844605922698975,0.009138748049736023,-0.00897463969886303,-0.0003268845612183213,-0.2682573437984836,1.4075761052497595,0.22308019589872097
1.0912158489227295,-0.0039103031158447266,0.0014991462230682373,0.004091635346412659,0.00930599495768547,-0.009771190583705902,-0.0018608653917908669,-0.2682468689169413,1.4074698807784647,0.2229871970019356
1.1013500690460205,-0.003462076187133789,0.0013025403022766113,0.007339417934417725,0.010408028028905392,-0.009213125333189964,-0.0029006698168814182,-0.26826086392032883,1.4073594229453885,0.22288768321535182
1.1112568378448486,-0.0028716325759887695,0.0021923482418060303,0.008734539151191711,0.010561692528426647,-0.007657306734472513,-0.0030921511352062225,-0.2682874719205886,1.4072390162819532,0.2227740711136762
1.1212260723114014,-0.0023445487022399902,0.002122551202774048,0.007722869515419006,0.010472126305103302,-0.006109788082540035,-0.004655639640986919,-0.268312442368299,1.4071304864089815,0.22265436693998536
1.131173849105835,-0.0029735565185546875,0.0030184388160705566,0.008728399872779846,0.01106920838356018,-0.00532575324177742,-0.006113453768193722,-0.2683486158879947,1.4070181892705536,0.22252581444399888
1.146522045135498,-0.002536177635192871,0.0010540783405303955,0.00921301543712616,0.011652190238237381,-0.00328288646414876,-0.007216055877506733,-0.26840776749283773,1.4069551725501186,0.2224024532897082
1.1546950340270996,-0.0035900473594665527,-0.00023764371871948242,0.00971938669681549,0.011078013107180595,0.0012596668675541878,-0.0062863463535904884,-0.2684497304593779,1.406934242402996,0.22228223182559526
1.1614789962768555,-0.004361152648925781,-0.001157611608505249,0.008848294615745544,0.011944305151700974,0.003135864157229662,-0.0053609516471624374,-0.26848607835467186,1.40695001736455,0.22216097205265503
1.1713359355926514,-0.0034637451171875,-0.0011180341243743896,0.008088037371635437,0.010823114775121212,0.001254873350262642,-0.005512751638889313,-0.2685399754891992,1.4069608113183631,0.22204453187904163
1.1814730167388916,-0.0033780932426452637,-0.001965731382369995,0.0044065117835998535,0.010339601896703243,0.001670548226684332,-0.006014278158545494,-0.2685961873250002,1.4069947141274652,0.22193912879826613
1.1968369483947754,-0.0058245062828063965,-0.0054659247398376465,0.0039435625076293945,0.008814143016934395,0.0028476654551923275,-0.006003625690937042,-0.26866562354316353,1.4070451413330105,0.22184470282232388
1.2047278881072998,-0.009615540504455566,-0.004908323287963867,0.007571995258331299,0.0038214647211134434,0.0037703176494687796,-0.006824092008173466,-0.2687362131000108,1.4071094215606645,0.22178317380019036
1.211421012878418,-0.010617196559906006,-0.006027042865753174,0.006898090243339539,0.0032464880496263504,0.0030563240870833397,-0.003036544658243656,-0.2688045481954187,1.4071891578047384,0.22175352607298404
1.2213189601898193,-0.008825838565826416,-0.0077513158321380615,0.006547227501869202,0.0012453554663807154,0.006956079974770546,0.0005536630051210523,-0.2688361533980816,1.4072998999202249,0.2217486243835723
1.2314679622650146,-0.007934331893920898,-0.007424473762512207,0.004001393914222717,0.0009444183669984341,0.009779563173651695,0.0015685936668887734,-0.2688295126294836,1.4074420836045127,0.22175319002526195
1.2470648288726807,-0.009358704090118408,-0.007099896669387817,0.001614883542060852,0.002004073467105627,0.011995978653430939,0.004395646043121815,-0.26879356911029756,1.407610559836114,0.2217568982750364
1.256058931350708,-0.007693588733673096,-0.00592881441116333,0.0034291744232177734,0.0005071107298135757,0.01314992643892765,0.005596465431153774,-0.26873428482507694,1.407791300063875,0.22176152437736865
1.2722890377044678,-0.004910886287689209,-0.004299074411392212,0.0038628578186035156,-0.002050122944638133,0.011684389784932137,0.006322602275758982,-0.2686740155854332,1.4079476440746646,0.22178048978684026
1.2743041515350342,-0.0015347599983215332,-0.0032351911067962646,0.0048293620347976685,-0.004902634769678116,0.01062232069671154,0.00739798741415143,-0.2685992679014159,1.4080898614433552,0.22183002703284058
1.2819099426269531,0.0001970529556274414,-0.00036460161209106445,0.0038948655128479004,-0.0055709718726575375,0.00625992938876152,0.006098950281739235,-0.26853395321159695,1.4082250343001304,0.22190215184239323
1.2966930866241455,0.0029897689819335938,0.0014056265354156494,0.0036774426698684692,-0.002525380812585354,0.003186109010130167,0.0065269204787909985,-0.26847040086981283,1.4083120499435433,0.2219569718374067
1.3044588565826416,0.003113389015197754,0.0017139315605163574,0.0026748329401016235,0.0025029003154486418,0.0003399886190891266,0.004803269170224667,-0.2683880697415207,1.40835919923502,0.2219682306004833
1.3162260055541992,0.0022851228713989258,0.003255099058151245,0.0004725605249404907,0.0077738286927342415,-0.0022797626443207264,0.0023395786993205547,-0.26830891056773354,1.408351992398405,0.22192672430889504
1.3241620063781738,-0.0005303621292114258,0.0038930177688598633,0.0006913691759109497,0.01200029905885458,-0.0025681834667921066,0.00033373921178281307,-0.2682486903952256,1.4083011438296285,0.22183003916781138
1.3317029476165771,-0.00440448522567749,0.0034822821617126465,9.870529174804688e-05,0.014002729207277298,-0.0054361410439014435,-0.0015576378209516406,-0.26821575667706216,1.4082359556912465,0.22170183124975382
1.346632957458496,-0.006212294101715088,0.002511829137802124,-0.0016777366399765015,0.015025217086076736,-0.006604203954339027,-0.0018332749605178833,-0.26819356005098227,1.4081474621608336,0.22155513971364232
1.3547451496124268,-0.007850110530853271,0.0017174184322357178,-0.0002949237823486328,0.013816673308610916,-0.009020223282277584,-0.0019145014230161905,-0.2681787389984803,1.4080579304323042,0.22141761080261213
1.3711059093475342,-0.009255528450012207,0.00030875205993652344,0.0010723471641540527,0.012464038096368313,-0.009345084428787231,-0.0009520883322693408,-0.2681679724631657,1.407952525119714,0.22127763093120079
1.372560977935791,-0.009468495845794678,-0.0013693273067474365,0.0005595088005065918,0.010935117490589619,-0.010495303198695183,-0.00172067666426301,-0.2681675241154761,1.407850052776925,0.22116302871327032
1.3843259811401367,-0.009693920612335205,-0.002536773681640625,0.0022321343421936035,0.00867549143731594,-0.01052468828856945,-0.001600514748133719,-0.2681756075306315,1.4077435456008147,0.22106909913566045
1.3915619850158691,-0.00863349437713623,-0.0023252665996551514,0.003958567976951599,0.0077897245064377785,-0.009244238957762718,-0.001966699492186308,-0.26819368280291533,1.4076281790324425,0.22098067384531644
1.4017488956451416,-0.007098138332366943,-0.0016900300979614258,0.004856884479522705,0.006002027541399002,-0.007435820531100035,-0.0036410288885235786,-0.2682311306606726,1.407532354468783,0.22091195564151836
1.411674976348877,-0.006640970706939697,-0.001995295286178589,0.006750538945198059,0.0066542355343699455,-0.005174796562641859,-0.004687651060521603,-0.2682945017816724,1.4074476311425421,0.22083850075520892
1.4219110012054443,-0.006048083305358887,-0.0002658367156982422,0.00812460482120514,0.00743116345256567,-0.003010224085301161,-0.005048349499702454,-0.2683523977081159,1.4073639550324133,0.2207534885286663
1.431839942932129,-0.005107700824737549,0.0008736252784729004,0.009308457374572754,0.007594148628413677,0.0004028836265206337,-0.005707481876015663,-0.2684208635793081,1.4073194020503006,0.2206615822328452
1.4468648433685303,-0.004583477973937988,-0.0008298754692077637,0.01024472713470459,0.0066495249047875404,0.0031095428857952356,-0.007548738270998001,-0.26849431047100286,1.4073103031487797,0.22057338667447132
1.455129861831665,-0.0032843947410583496,-0.0020470619201660156,0.008655369281768799,0.005639121867716312,0.004366288892924786,-0.00826326385140419,-0.2685697533835479,1.4073255097066801,0.22049862170133824
1.4721169471740723,-0.0041016340255737305,-0.003645092248916626,0.009103655815124512,0.002256923820823431,0.007850546389818192,-0.006345681846141815,-0.2686287643617014,1.4073809001466255,0.22044971958092324
1.4742319583892822,-0.0038865208625793457,-0.0044220685958862305,0.009850502014160156,-0.001699201762676239,0.009166414849460125,-0.006305201910436153,-0.26869081916565124,1.4074752329432914,0.22043865701710105
1.4824950695037842,-0.002763032913208008,-0.005129784345626831,0.010598361492156982,-0.00669066421687603,0.010268519632518291,-0.003901112824678421,-0.26874432516167107,1.4076008848623893,0.22047291223766913
1.4968540668487549,-0.0022857189178466797,-0.005454391241073608,0.00983680784702301,-0.012668129988014698,0.011009943671524525,-0.00393972871825099,-0.2687961073131257,1.407757506804224,0.2205684671562359
1.505492925643921,-0.0033644437789916992,-0.007397085428237915,0.009340047836303711,-0.01641771011054516,0.011153798550367355,-0.003881885204464197,-0.2688644397036181,1.4079397669431375,0.22071879259187233
1.5213329792022705,-0.005086541175842285,-0.007923901081085205,0.007601439952850342,-0.019031602889299393,0.010633150115609169,-0.0009430868085473776,-0.26893603936518834,1.408144081343556,0.2209144364893309
1.5260789394378662,-0.005335986614227295,-0.006555229425430298,0.005040466785430908,-0.020626304671168327,0.012961551547050476,-0.0010978165082633495,-0.2689883583551525,1.4083636763063763,0.2211258199335628
1.5342209339141846,-0.005377352237701416,-0.0073826611042022705,0.004060268402099609,-0.020733628422021866,0.012216400355100632,-0.0005667821387760341,-0.26902354828677616,1.408590443340537,0.22134284105530186
1.5462510585784912,-0.00458371639251709,-0.007201433181762695,0.0037536025047302246,-0.02111772447824478,0.012325678020715714,0.0014422533567994833,-0.2690413721096318,1.4088157200472036,0.22156654501765805
1.551698923110962,-0.0041310787200927734,-0.007914066314697266,0.0020325779914855957,-0.021788841113448143,0.009848938323557377,0.0028582559898495674,-0.26903668892572186,1.40903709763687,0.2218002509893706
1.5618698596954346,-0.0032418370246887207,-0.005623817443847656,0.0025039464235305786,-0.021865855902433395,0.008668847382068634,0.006214478053152561,-0.26900350908072757,1.4092487688424675,0.22204547173494088
1.5720889568328857,-0.0026430487632751465,-0.003254622220993042,7.30752944946289e-05,-0.0206900704652071,0.005976391490548849,0.005990772508084774,-0.2689518179416424,1.4094325011509516,0.22228619704440358
1.5820448398590088,-0.002331674098968506,-0.003180861473083496,-0.00017708539962768555,-0.01743968203663826,0.004393586423248053,0.005543841049075127,-0.2688910973929174,1.40958582739245,0.22250600134901116
1.5961589813232422,-0.001416623592376709,-0.0023938119411468506,6.224215030670166e-05,-0.01535868737846613,0.0011357413604855537,0.004789367318153381,-0.26883444080275165,1.409689654240615,0.2226927863542479
1.6019561290740967,-0.0016089081764221191,-0.001672595739364624,-0.00044517219066619873,-0.014591081067919731,-0.00034750625491142273,0.005638915579766035,-0.2687827606052818,1.409760176468377,0.22286399597916565
1.6117849349975586,-0.0014030933380126953,0.0004335641860961914,-0.0011836141347885132,-0.010667446069419384,-0.0008316691964864731,0.004648219794034958,-0.2687189476335806,1.4098014440882038,0.22300272194224513
1.6218740940093994,-0.002016425132751465,0.0007930099964141846,-0.0007600635290145874,-0.00850232969969511,-0.0023238379508256912,0.004481985233724117,-0.2686626875295264,1.4098238829408565,0.22311037132636102
1.631890058517456,-0.0022903084754943848,0.0018122494220733643,-0.0008569955825805664,-0.004975771531462669,-0.003604552708566189,0.0038771815598011017,-0.26860263710401194,1.4098161593901841,0.2231891092871764
1.6468098163604736,-0.0031581521034240723,0.0017354786396026611,-0.00017875432968139648,-0.004125724546611309,-0.004929918330162764,0.006127818953245878,-0.2685397942579429,1.4097957174067173,0.22324366437521614
1.6552419662475586,-0.004060983657836914,0.001208573579788208,0.00072479248046875,-0.003805878572165966,-0.006338997278362513,0.0028923447243869305,-0.26850071401238235,1.409745939122563,0.2232859546151981
1.6713039875030518,-0.004226207733154297,0.0018331408500671387,0.0011423975229263306,-0.0011047841981053352,-0.00859101116657257,0.0022214408963918686,-0.2684701239255474,1.4096772538453868,0.22331327189222006
1.672762155532837,-0.003883957862854004,0.0012464821338653564,0.0018641352653503418,-0.0016605858691036701,-0.008185144513845444,0.0006813348736613989,-0.2684455824010209,1.4095934123835607,0.22333590631696365
1.6819210052490234,-0.004299759864807129,0.0013937652111053467,0.0028363466262817383,-0.0012718643993139267,-0.008842235431075096,-0.00012299302034080029,-0.2684352740672132,1.4095022253517364,0.22334887982589402
1.6919639110565186,-0.006361424922943115,0.0003701448440551758,0.0031313300132751465,0.0009737131185829639,-0.006728218402713537,0.00012468104250729084,-0.2684365914857343,1.4094166692448136,0.22334813130248257
1.7020199298858643,-0.006974637508392334,0.001087099313735962,0.004595354199409485,0.002284055110067129,-0.006976780481636524,0.000996919465251267,-0.26843679522923297,1.4093373299063243,0.22332978168493667
1.711928129196167,-0.005406856536865234,0.0009007453918457031,0.004781544208526611,0.0038023232482373714,-0.004373540170490742,-0.0005389255238696933,-0.2684402133552653,1.409269846527805,0.22329066709109166
1.7219860553741455,-0.006527364253997803,0.0007493197917938232,0.005390271544456482,0.0032461718656122684,-0.0005166172049939632,-0.0015280235093086958,-0.2684548157373388,1.4092388223012913,0.2232546314929912
1.7320940494537354,-0.007376968860626221,0.0005908012390136719,0.006589844822883606,0.0027140723541378975,0.0018456068355590105,-0.0025522750802338123,-0.26847676591434266,1.4092440242511015,0.22321573570544953
1.7461068630218506,-0.0076315999031066895,-3.853440284729004e-05,0.007414773106575012,0.001657047076150775,0.004891952499747276,-0.0022035075817257166,-0.26851229323184644,1.4092734372059739,0.2231911299601254
1.7520790100097656,-0.006929516792297363,-0.00025466084480285645,0.006230294704437256,-3.0864495784044266e-05,0.0048357597552239895,-0.0028376062400639057,-0.2685465114508426,1.4093300558755038,0.22317963309349567
1.762058973312378,-0.005572915077209473,0.00027230381965637207,0.006111398339271545,-0.00022439297754317522,0.00684746727347374,-0.002024649642407894,-0.2685855424114545,1.4094051401054117,0.22317963436320182
1.772132158279419,-0.005298197269439697,-0.0002735257148742676,0.006863072514533997,0.00044752261601388454,0.006360374856740236,-0.0025524883531033993,-0.26862941541281066,1.4094792036107577,0.22317707103462228
1.7821099758148193,-0.005114138126373291,-0.0005199909210205078,0.004360273480415344,-0.0003973819548264146,0.006080787628889084,-0.00351309054531157,-0.26867924798098075,1.4095574688301102,0.2231797335038649
1.7961838245391846,-0.004257500171661377,-0.0009155869483947754,0.004693999886512756,-0.0017140486743301153,0.0035771499387919903,-0.0035519725643098354,-0.26872558584573014,1.4096216388330614,0.22318888789978342
1.8020908832550049,-0.0037354230880737305,-0.00015348196029663086,0.0029404163360595703,-0.0006538943853229284,0.0034692471381276846,-0.004194753244519234,-0.2687739720617772,1.4096823447607727,0.22319768803864337
1.8120949268341064,-0.00369948148727417,-0.001354992389678955,0.0036079883575439453,-0.002711186185479164,0.003279630094766617,-0.005542579106986523,-0.2688332051128782,1.4097478240596515,0.22321679487456744
1.8221030235290527,-0.0033878087997436523,-0.003415703773498535,0.004151880741119385,-0.0023797559551894665,0.0034790122881531715,-0.005014047957956791,-0.26889727529724333,1.4098148396458743,0.22324342565543973
1.8321239948272705,-0.0042681097984313965,-0.00344809889793396,0.0023748427629470825,-0.004050889518111944,0.0011072009801864624,-0.002265133196488023,-0.2689467136678649,1.4098681042227426,0.22326921924816903
1.84614896774292,-0.002813875675201416,-0.003923088312149048,0.001985803246498108,-0.0030399535316973925,0.0018816483207046986,-0.0019631306640803814,-0.26899621134264723,1.4099219234249571,0.2233091422338913
1.853179931640625,-0.002846837043762207,-0.0050938427448272705,0.0023067742586135864,-0.004726799670606852,0.002192439278587699,-0.0005228931549936533,-0.26902354412512053,1.4099843138604036,0.22335614626054612
1.8621528148651123,-0.003190279006958008,-0.005490154027938843,0.001893460750579834,-0.004328656941652298,0.00233216630294919,0.0014086442533880472,-0.26902317026821293,1.4100338052258319,0.22341035324792397
1.8721909523010254,-0.004835665225982666,-0.00443151593208313,0.005029261112213135,-0.004172063432633877,0.005274693015962839,0.0034667348954826593,-0.269017163469825,1.4101061083287154,0.22347028366426078
1.882040023803711,-0.006334424018859863,-0.0048521459102630615,0.0040973275899887085,-0.00440109521150589,0.005660318769514561,0.004157825373113155,-0.26899448622179967,1.4101884819614734,0.2235220144757835
1.8971729278564453,-0.004892528057098389,-0.0043509602546691895,0.004305556416511536,-0.00431134644895792,0.004146577790379524,0.005714708939194679,-0.2689494071714902,1.4102603329578483,0.22358085991202498
1.9055211544036865,-0.0026159286499023438,-0.0041824281215667725,0.0032501965761184692,-0.006291939411312342,0.002740162657573819,0.0054822154343128204,-0.26888539628545244,1.4103299596765173,0.2236499583594711
1.9121811389923096,-0.0012920498847961426,-0.0037695765495300293,0.0016423612833023071,-0.007039755117148161,0.0009129680693149567,0.004496579058468342,-0.2688369790694881,1.410370098435599,0.22373077524797608
1.922130823135376,-0.0018160343170166016,-0.003394007682800293,0.0047849565744400024,-0.00861368328332901,0.0012511895038187504,0.0054649049416184425,-0.26877981506308674,1.4104054611385108,0.22382162319861587
1.9322230815887451,-0.0037750601768493652,-0.003360748291015625,0.0057140737771987915,-0.006619990803301334,0.0024526743218302727,0.003999580163508654,-0.26872946426003497,1.4104575582651648,0.22392037137823878
1.9464499950408936,-0.0053179264068603516,-0.0033675432205200195,0.004989638924598694,-0.004410616122186184,0.0020501376129686832,0.003249527420848608,-0.2686890528021355,1.4104990870340286,0.2239869249906454
1.9532711505889893,-0.004347383975982666,-0.0023548007011413574,0.0022613555192947388,-0.0010638213716447353,0.002173974644392729,0.005479658488184214,-0.268635723773982,1.4105463711147308,0.22402229980189248
1.9623348712921143,-0.0057149529457092285,-0.001105964183807373,0.0008664876222610474,0.0008230449166148901,0.006389359012246132,0.00554053857922554,-0.26857489235432375,1.4106038164740917,0.2240307314048096
1.9723079204559326,-0.0077040791511535645,-0.0026047229766845703,0.0030121207237243652,-0.00037804071325808764,0.010344419628381729,0.006840693298727274,-0.2684992871694293,1.4107095162049665,0.22405295108758597
1.982353925704956,-0.007670938968658447,-0.0028830766677856445,0.0034917593002319336,-0.001450179610401392,0.010176684707403183,0.008579631336033344,-0.2684081579283655,1.4108348287597245,0.22407627032138366
1.9964869022369385,-0.007196485996246338,-0.0030618607997894287,0.005045294761657715,-0.004779397509992123,0.011418250389397144,0.00867417361587286,-0.2683087403873411,1.4109544134509135,0.22412874632051358
2.0034120082855225,-0.0024366378784179688,-0.0008326172828674316,0.006061151623725891,-0.004965219181030989,0.008147800341248512,0.010134438052773476,-0.2682122413334214,1.4110937728665052,0.22420854040848584
2.0122978687286377,-0.0010594725608825684,0.0008711814880371094,0.0038139373064041138,-0.007081633433699608,0.007105172611773014,0.009363720193505287,-0.2681227068034753,1.411214296493044,0.22429282124798186
2.0225131511688232,-0.0005420446395874023,0.00026360154151916504,0.001467883586883545,-0.00758585287258029,0.005320543423295021,0.006175169721245766,-0.2680565211351349,1.411309386102827,0.2243794669063339
2.0324079990386963,-0.00016194581985473633,0.001071542501449585,0.0009889006614685059,-0.005169034004211426,0.00111727649345994,0.0028611321467906237,-0.2680256562097563,1.4113651150447977,0.22445598443551829
2.0463321208953857,-0.0015799403190612793,0.0025719106197357178,0.002381622791290283,-0.006970795802772045,-0.0013100169599056244,-0.0014311909908428788,-0.26803630482236573,1.4113762835312964,0.22452510233214734
2.053122043609619,-0.002511262893676758,0.0011674463748931885,0.0012021809816360474,-0.007379591464996338,-0.00611143046990037,-0.005086113233119249,-0.2680844442018353,1.4113628534625102,0.22459458295504026
2.062523126602173,-0.002813875675201416,-0.0006368160247802734,-0.0001455843448638916,-0.0052379099652171135,-0.005680087022483349,-0.004606318194419146,-0.2681357447243228,1.4113338008311884,0.22465280096348988
2.0726559162139893,-0.004686713218688965,-0.0013695061206817627,-1.4126300811767578e-05,-0.003799004480242729,-0.007665739394724369,-0.00454107066616416,-0.268183555542958,1.4112897857936642,0.22470281575655146
2.0826680660247803,-0.004394710063934326,-0.00010797381401062012,-0.0004713386297225952,-0.0019143350655212998,-0.009542692452669144,-0.001603710581548512,-0.2682202964072641,1.4112394877659626,0.22473419346910542
2.0963690280914307,-0.005663752555847168,-0.0011983215808868408,-0.0002824515104293823,-0.002244034316390753,-0.009427109733223915,0.001462919288314879,-0.26822753373285374,1.4111689789724102,0.22475738795406006
2.1033389568328857,-0.008126258850097656,-0.0018399953842163086,-0.00047385692596435547,0.0016732257790863514,-0.009934663772583008,0.0023554512299597263,-0.2682125512887654,1.4110822008426032,0.224768376051271
2.1124608516693115,-0.009107708930969238,-0.0027937889099121094,-0.00038091838359832764,-5.6230928748846054e-05,-0.009012943133711815,-0.00018200860358774662,-0.26820476345975913,1.4110009348596595,0.2247668612404974
2.1224958896636963,-0.008318781852722168,-0.002568364143371582,0.00032024085521698,0.0009034890681505203,-0.00745743652805686,0.0009312458569183946,-0.2682083803791532,1.4109374610182737,0.2247642681810827
2.1325249671936035,-0.007392525672912598,-0.002037137746810913,0.001831650733947754,0.0015778013039380312,-0.007146912161260843,0.0009333764901384711,-0.26821130994829234,1.4108723387193485,0.2247619786593225
2.1462881565093994,-0.005184471607208252,-0.0007656216621398926,0.003402426838874817,-0.0006004313472658396,-0.006785698235034943,-0.00055160210467875,-0.2682060295003315,1.410793355850827,0.22475532505415594
2.153240919113159,-0.00394827127456665,-0.0006865262985229492,0.003629624843597412,-0.0007703410228714347,-0.007712212391197681,-0.001322054537013173,-0.26821899873187577,1.4107144488201622,0.22475835502691918
2.162590980529785,-0.0041159987449646,-0.0006905794143676758,0.005522742867469788,-0.0011867262655869126,-0.00540919927880168,-0.0022031348198652267,-0.26823899404147755,1.4106483165076302,0.22476638456893608
2.17256498336792,-0.0037660598754882812,7.194280624389648e-05,0.0066866278648376465,-0.0014205517945811152,-0.001314056571573019,-0.001977298641577363,-0.26827107911372516,1.4106104206206636,0.22477488633896
2.1825499534606934,-0.004767179489135742,0.001092374324798584,0.006449699401855469,-0.0008779993513599038,0.0007814965210855007,0.00015727814752608538,-0.2682889003278323,1.4106020624337896,0.22477746967729106
2.1963839530944824,-0.005089700222015381,0.0007541179656982422,0.007592201232910156,0.0009619786869734526,0.002841185312718153,-0.0013687130995094776,-0.26829155068181143,1.4106199585168255,0.22476410513093525
2.203139066696167,-0.0035532116889953613,0.0008694231510162354,0.007063806056976318,0.000559408450499177,0.005505766719579697,-0.0011566723696887493,-0.2682985600813123,1.4106618230242467,0.2247488820131898
2.2125470638275146,-0.0033822059631347656,-0.00028517842292785645,0.006783902645111084,0.0030659756157547235,0.008820602670311928,-0.0005912832566536963,-0.2682933541932888,1.410731649647869,0.2247209009703972
2.2227060794830322,-0.0037287473678588867,0.00015267729759216309,0.007120266556739807,0.0031691899057477713,0.006574271246790886,-0.0002649927046149969,-0.2682981348765436,1.4108108703462232,0.22469130160400466
2.2326338291168213,-0.002164483070373535,0.0003292560577392578,0.005064487457275391,0.002671445021405816,0.0042938063852488995,-0.0021441192366182804,-0.268304960065612,1.410870338374353,0.2246679299634498
2.246335029602051,-0.0031073689460754395,-0.00047281384468078613,0.003398910164833069,-0.0019356738775968552,0.0033940577413886786,-0.00394420325756073,-0.26834550605367063,1.4109190978111588,0.22465998620490352
2.2533438205718994,-0.006031394004821777,-0.0025878548622131348,0.0031101852655410767,-0.004847840406000614,0.002638785168528557,-0.004134618677198887,-0.26840262616556626,1.4109794550656396,0.224689699082131
2.2627108097076416,-0.008483409881591797,-0.004137575626373291,0.003762185573577881,-0.007036658935248852,0.00349339353851974,-0.0032386784441769123,-0.26845904393530134,1.4110453873383684,0.224751400784822
2.2727301120758057,-0.0071138739585876465,-0.006753265857696533,0.004544392228126526,-0.009628180414438248,0.004393808543682098,0.00018454890232533216,-0.2684973601288193,1.411135656419698,0.2248389833800862
2.2826931476593018,-0.004796206951141357,-0.006725907325744629,0.0036709457635879517,-0.007408119738101959,0.007069619372487068,0.004096413031220436,-0.26850058158157175,1.4112516217544575,0.22494147301617218
2.2964351177215576,-0.00590747594833374,-0.006025761365890503,0.0009384751319885254,-0.008618793450295925,0.009571126662194729,0.005316140595823526,-0.2684708194212803,1.4113823793339941,0.22503840472990533
2.3032619953155518,-0.0065795183181762695,-0.00525897741317749,-0.0007372945547103882,-0.005630992818623781,0.009418439120054245,0.00582448486238718,-0.2684351442952177,1.411525414063173,0.22512264009002173
2.3127169609069824,-0.005285024642944336,-0.0032642781734466553,0.0011128932237625122,-0.006668560206890106,0.010147346183657646,0.0038137980736792088,-0.26839204177300025,1.4116674730980359,0.22519593453443945
2.3227689266204834,-0.004912197589874268,-0.003151148557662964,0.0023897886276245117,-0.005817863158881664,0.00809018686413765,0.0020654331892728806,-0.26836965529877305,1.411785704689603,0.22527641251736394
2.3327980041503906,-0.002840757369995117,-0.0034106075763702393,0.003899991512298584,-0.009224578738212585,0.005424895323812962,0.0019692929927259684,-0.2683539232807537,1.4118830169293426,0.22536506017386662
2.3462300300598145,-0.000858306884765625,-0.003117293119430542,0.003219306468963623,-0.008973926305770874,0.0027886764146387577,0.0032674772664904594,-0.2683345600047699,1.4119577790607512,0.22546048593493775
2.35333514213562,-0.0010343194007873535,-0.0028047263622283936,0.0021429061889648438,-0.00811079517006874,0.0020089028403162956,0.006176447961479425,-0.2682794613487036,1.412016980290391,0.22555881789487128
2.362812042236328,-0.0006225705146789551,-0.002891451120376587,-0.0001360177993774414,-0.008368472568690777,0.0031960068736225367,0.008770154789090157,-0.2681953217826062,1.4120743778720106,0.225654326023067
2.372779130935669,-0.0009448528289794922,-0.002829253673553467,0.00040328502655029297,-0.006173495203256607,0.002414901740849018,0.010003730654716492,-0.26809913961300186,1.4121212256135947,0.2257457508114079
2.3828370571136475,-0.0038301944732666016,-0.001568526029586792,-0.000429689884185791,-0.0066177439875900745,0.0019248800817877054,0.01109104510396719,-0.26799434573211717,1.4121512570806514,0.2258203578268938
2.396211862564087,-0.004427492618560791,-0.0014796257019042969,-0.0016740411520004272,-0.0068451776169240475,3.430200740695e-05,0.010229246690869331,-0.26788630549255477,1.4121808737966002,0.225903643648331
2.4032208919525146,-0.005710422992706299,-0.0008424222469329834,-0.00038079917430877686,-0.0029673990793526173,-0.0011365567333996296,0.012473545968532562,-0.2677793721482551,1.4122055349677063,0.22597304479402103
2.412882089614868,-0.00480884313583374,0.0011336207389831543,-0.0006809383630752563,-0.0016390143427997828,-0.002073456533253193,0.008808503858745098,-0.26767652455493474,1.412220751682903,0.22601673660458738
2.4229700565338135,-0.0054402947425842285,0.0013850629329681396,0.0005224347114562988,-0.00047001976054161787,-0.002977155614644289,0.006333521567285061,-0.26758979680060885,1.4122106827291996,0.22603850834936656
2.4329168796539307,-0.005846977233886719,0.0016353726387023926,0.0019389539957046509,-0.0004676228854805231,-0.00391485495492816,0.003744662506505847,-0.267535951932541,1.4121836778192378,0.22605284666521916
2.44621205329895,-0.007327914237976074,0.0022174417972564697,0.0011509507894515991,0.0027522053569555283,-0.005440047476440668,0.0017271582037210464,-0.2675020661956947,1.4121313964881492,0.2260379687015269
2.4532339572906494,-0.00816333293914795,0.0025329887866973877,0.0009143948554992676,0.005792470183223486,-0.006347919348627329,0.00034284708090126514,-0.26747538312651875,1.4120605104915656,0.22598914020474287
2.4629650115966797,-0.006475269794464111,0.0029656291007995605,0.0006328821182250977,0.00605485774576664,-0.00592900300398469,-0.00020608364138752222,-0.26746983308530226,1.4119878272348403,0.22593233753139572
2.472933053970337,-0.006749987602233887,0.004303604364395142,0.002550661563873291,0.009360640309751034,-0.00553964963182807,-0.003341156989336014,-0.2674747957976131,1.4118965619884072,0.22584464639419993
2.482985019683838,-0.0066558122634887695,0.0036017894744873047,0.003566443920135498,0.010567900724709034,-0.007019079755991697,-0.0036104023456573486,-0.2674905571919733,1.4118066040686206,0.2257384396907038
2.4963090419769287,-0.004784286022186279,0.0015809834003448486,0.0046509504318237305,0.011121838353574276,-0.006034243386238813,-0.0057944608852267265,-0.26752907264313125,1.4117075856742078,0.22561788719006162
2.5037248134613037,-0.004834175109863281,0.000688701868057251,0.006249606609344482,0.010156392119824886,-0.004175401292741299,-0.0065477630123496056,-0.2675840356294476,1.4116287022235063,0.2255007433550178
2.5129668712615967,-0.004963576793670654,0.0009779632091522217,0.005463361740112305,0.007724660448729992,-0.0010501816868782043,-0.00591046828776598,-0.267648054782018,1.411586271061061,0.22540307273917448
2.523063898086548,-0.004784047603607178,-0.000889897346496582,0.005885198712348938,0.00627858005464077,-0.0014336323365569115,-0.00881027802824974,-0.2677336160375908,1.4115561259217966,0.22531874868425703
2.5330698490142822,-0.005628764629364014,-0.0008375346660614014,0.006702855229377747,0.00423407182097435,0.0010044914670288563,-0.007589750923216343,-0.2678217425489957,1.4115428635902316,0.22524376656610212
2.546386957168579,-0.006431937217712402,-0.0015191137790679932,0.00796438753604889,0.0026064307894557714,0.0034671612083911896,-0.007070487830787897,-0.2679114274806422,1.4115601395888604,0.22519657441077204
2.5532758235931396,-0.007361471652984619,-0.0038655102252960205,0.006480291485786438,-0.000745423836633563,0.0051164571195840836,-0.006248636171221733,-0.2680028260779106,1.4116083652337281,0.22517833163999593
2.563185930252075,-0.005397379398345947,-0.003519296646118164,0.004897415637969971,-0.0021322816610336304,0.006655808538198471,-0.006261153146624565,-0.2680868330439767,1.4116805797687866,0.22518448447092526
2.573184013366699,-0.005577206611633301,-0.005519658327102661,0.005160391330718994,-0.0055658952333033085,0.005726364906877279,-0.005093889776617289,-0.26815167434632164,1.4117701009847605,0.22522997555477006
2.583224058151245,-0.005274057388305664,-0.007538408041000366,0.005075573921203613,-0.007911041378974915,0.007789161056280136,-0.002584393136203289,-0.2682039198323031,1.4118728993300693,0.22529911617271864
2.5963399410247803,-0.004455208778381348,-0.007047176361083984,0.003611460328102112,-0.010568343102931976,0.0065755583345890045,-0.0028379259165376425,-0.2682482615151329,1.4119823877696012,0.22539150992557722
2.6032631397247314,-0.0034569501876831055,-0.007371723651885986,0.0031449347734451294,-0.011698589660227299,0.006647818721830845,-0.0019153535831719637,-0.26828418767833523,1.4121021782610146,0.2255079710798246
2.6131298542022705,-0.003271758556365967,-0.005959302186965942,0.0021548867225646973,-0.011004836298525333,0.007510150317102671,0.0008985423482954502,-0.2683069163330975,1.4122275118534249,0.22563308424895798
2.6231889724731445,-0.0032602548599243164,-0.0058731138706207275,0.0003631114959716797,-0.011726618744432926,0.008146645501255989,0.0015852651558816433,-0.26831252805955774,1.4123623243112096,0.22575666885703322
2.6331429481506348,-0.004227995872497559,-0.004020988941192627,-0.00020490586757659912,-0.010462682694196701,0.008806843310594559,0.001680073793977499,-0.26830645050177476,1.412494428768199,0.22587806287889098
2.6432998180389404,-0.004952192306518555,-0.002565443515777588,0.001798093318939209,-0.008199761621654034,0.006453852169215679,0.0027610505931079388,-0.26828444731047657,1.4126032527846288,0.22597760016322968
2.6533279418945312,-0.0033603906631469727,-0.003300398588180542,0.00032395124435424805,-0.007621855475008488,0.0046943011693656445,0.003437493462115526,-0.2682396259383292,1.412695113019655,0.22607152778343698
2.6633219718933105,-0.0032924413681030273,-0.0002956092357635498,-0.0022942274808883667,-0.00870632752776146,0.0030324002727866173,0.0029568462632596493,-0.26819335310980635,1.4127705758533688,0.22616483081375077
2.673192024230957,-0.0042244791984558105,-0.002242565155029297,-0.0017233490943908691,-0.00759712141007185,-0.0015538292936980724,0.0008689279202371836,-0.268155325451771,1.4128137448741778,0.2262553347368338
2.6832380294799805,-0.004112720489501953,-0.0023482441902160645,0.00014390051364898682,-0.006701450329273939,-0.002083044033497572,0.0019052705029025674,-0.26812250343116834,1.4128252212038406,0.22633492714099454
2.6963260173797607,-0.0025027990341186523,-0.0011929571628570557,0.0008902698755264282,-0.005407420452684164,-0.0039038476534187794,0.0016501398058608174,-0.26809537949987616,1.4128277556468387,0.22640639451353486
2.7033729553222656,-0.004452228546142578,-0.00043970346450805664,0.0007095485925674438,-0.004420236684381962,-0.0038761943578720093,-0.0004949299618601799,-0.2680896093825731,1.4127934676699319,0.22645931996148222
2.713326930999756,-0.004290461540222168,0.001344531774520874,0.0008722543716430664,-0.0029099578969180584,-0.008172938600182533,0.00039003847632557154,-0.26809074429473195,1.412734746980316,0.22649129433079015
2.7233431339263916,-0.002889573574066162,0.0021471381187438965,0.00031341612339019775,-0.000199492322281003,-0.00644126208499074,-0.002303589368239045,-0.26809702709390465,1.4126643463647353,0.22649831835090856
2.7332680225372314,-0.004586756229400635,0.002047121524810791,0.0013794898986816406,0.0019033397547900677,-0.006346454378217459,-0.0026367506943643093,-0.2681058521440356,1.412602004256138,0.2264828406696854
2.74642014503479,-0.004704535007476807,0.0008635222911834717,0.002162352204322815,0.0022186911664903164,-0.006625819485634565,-0.0025642593391239643,-0.26813064628042677,1.4125158944852383,0.2264459789130621
2.753304958343506,-0.005922377109527588,0.0003623664379119873,0.0032491087913513184,0.0027257567271590233,-0.004711805377155542,-0.005299059674143791,-0.26815982721539866,1.412446976454133,0.2264029255181675
2.76338791847229,-0.004855751991271973,1.633167266845703e-05,0.004465386271476746,0.0024196100421249866,-0.0031122667714953423,-0.0027522784657776356,-0.268186383914074,1.4124023523700882,0.22636930827660384
2.773366928100586,-0.00443267822265625,0.000429004430770874,0.004574403166770935,0.004869718104600906,0.0011029844172298908,-0.003220728598535061,-0.26821733607359827,1.4123826946001588,0.2263242295890774
2.783430814743042,-0.00523453950881958,-0.0010158419609069824,0.004465699195861816,0.005538920871913433,0.0020177357364445925,-0.0030640282202512026,-0.2682440677492804,1.412383513337502,0.22626019811300532
2.7963290214538574,-0.004345238208770752,0.0005799531936645508,0.0038907527923583984,0.005757300183176994,0.003186597255989909,-0.002095436677336693,-0.2682664885536438,1.412393434906014,0.22620818005112733
2.8034260272979736,-0.004358172416687012,-0.00017130374908447266,0.004390522837638855,0.0042962562292814255,0.004439348354935646,-0.0017966830637305975,-0.2682860217981062,1.4124125306366682,0.22615977654771952
2.8134491443634033,-0.00664752721786499,-0.002882659435272217,0.004067406058311462,0.0016863583587110043,0.00634191045537591,-0.00263131782412529,-0.26831279272503994,1.4124622330332695,0.22613396674436995
2.8234331607818604,-0.006921887397766113,-0.003981113433837891,0.0035286545753479004,-0.0008040966931730509,0.0028849495574831963,-0.004662404302507639,-0.2683442893809077,1.4125139008493435,0.22612768899161037
2.833482027053833,-0.005711257457733154,-0.0037048757076263428,0.003102540969848633,-0.001735404133796692,0.003214382566511631,-0.004208069294691086,-0.268390109270388,1.412558742933807,0.22613414702976203
2.8463239669799805,-0.005815565586090088,-0.004016697406768799,0.004075393080711365,-0.002438961062580347,0.002934706397354603,-0.0014889815356582403,-0.26842863758269697,1.4126090188226508,0.22615144482458338
2.853463888168335,-0.005359351634979248,-0.003949373960494995,0.002360701560974121,-0.0015510632656514645,0.0037672105245292187,-0.0005645983037538826,-0.2684537320125091,1.412661979919038,0.22617624182074084
2.863395929336548,-0.005409717559814453,-0.0016359388828277588,0.0014358609914779663,-0.002181766554713249,0.0008715554140508175,-0.00011090224143117666,-0.268459899035944,1.4127035685530467,0.2262034570266231
2.8734819889068604,-0.0035992860794067383,-0.0023640692234039307,0.0018218755722045898,0.0001745983026921749,0.0017437408678233624,0.0019040454644709826,-0.2684554210430917,1.4127310347168307,0.22622036832071948
2.8835270404815674,-0.004797935485839844,-0.0035882890224456787,-0.00042288005352020264,-0.00020022480748593807,0.002115473849698901,0.0011258699232712388,-0.26844323718429425,1.4127654390134803,0.22622680786257043
2.896167039871216,-0.004913628101348877,-0.0026790499687194824,0.0009099394083023071,0.0017007393762469292,0.0028861926402896643,0.0006867145420983434,-0.2684339156686166,1.4128083370889142,0.22621921421415095
2.903481960296631,-0.0036448240280151367,-0.003019779920578003,0.0014687776565551758,0.00099521828815341,0.0038139931857585907,0.003606976941227913,-0.2684075238847524,1.4128475780893361,0.2262117786392821
2.913447141647339,-0.003383636474609375,-0.002459019422531128,0.003307148814201355,-0.0005347677506506443,0.002762310905382037,0.0017140022246167064,-0.268379849740344,1.4128891625459983,0.22622200743985146
2.9235329627990723,-0.0037433505058288574,-0.0014896988868713379,0.002656027674674988,-0.002725733909755945,0.002541846130043268,-0.0005333329318091273,-0.2683715743998438,1.412932320133189,0.22624877084883202
2.9335269927978516,-0.005289018154144287,-0.001851886510848999,0.002482190728187561,-0.0024173397105187178,0.001204672735184431,-0.0002616904675960541,-0.26836727108903785,1.4129548169976685,0.22627195591079763
2.946280002593994,-0.004344463348388672,-0.0021013617515563965,0.0028753429651260376,-0.00241156411357224,0.0003993771970272064,-0.00037503440398722887,-0.26837284288377694,1.4129743710634672,0.22630142337470077
2.953537940979004,-0.004207253456115723,-0.0016663074493408203,0.0025874972343444824,-0.0024368641898036003,0.00018792226910591125,-0.0011324374936521053,-0.2683805889964378,1.4129879198464415,0.22632077521928948
2.9636049270629883,-0.004830718040466309,-0.0022068917751312256,0.0009715110063552856,-0.0024531593080610037,-0.00022562220692634583,-0.000661857018712908,-0.2683873386609726,1.4129860392382443,0.22634203660818836
2.973600149154663,-0.0040490031242370605,-0.002080172300338745,0.0021196752786636353,-0.0031865937635302544,-0.00156013248488307,-0.0004735714755952358,-0.2683983548898869,1.4129816602552028,0.22636354112241103
2.983595132827759,-0.004200160503387451,-0.0023433566093444824,0.0019389539957046509,-0.0033982484601438046,0.0003167749382555485,-0.001164342276751995,-0.2684022650034755,1.4129789736968077,0.2263998313983862
2.9963538646698,-0.00508427619934082,-0.0018823444843292236,0.002625182271003723,-0.004104785155504942,-0.002198047935962677,0.00013181823305785656,-0.26841471468057587,1.412994915715463,0.2264498379281284
3.00370192527771,-0.0048857927322387695,-0.003184080123901367,0.0021294504404067993,-0.006415843032300472,-0.0010749045759439468,0.0010131647577509284,-0.2684196170220932,1.4130025422662422,0.2265035386202866
3.013808012008667,-0.0047820210456848145,-0.0026358366012573242,0.0034058094024658203,-0.006661386229097843,0.0005980930291116238,0.0006480455631390214,-0.2684207544766194,1.413024109154611,0.2265727345787744
3.0237090587615967,-0.0064508914947509766,-0.0027407705783843994,0.004853174090385437,-0.00309612974524498,0.001626916928216815,0.00026795908343046904,-0.26841884640862956,1.4130586125317774,0.2266337506591225
3.0337040424346924,-0.005434215068817139,-0.0013798773288726807,0.00303727388381958,-0.0016359183937311172,0.001006134320050478,0.0009984640637412667,-0.26841589808357075,1.4130908638542177,0.22666837905855503
3.0462658405303955,-0.0035919547080993652,-0.000571906566619873,0.0020304471254348755,-0.002739798743277788,-0.0003131958656013012,0.0005806140834465623,-0.2684007979258017,1.4130912585736308,0.2266935518959286
3.053816080093384,-0.003137052059173584,0.00020954012870788574,0.0002330094575881958,-0.0015978352166712284,0.001766466535627842,-0.0004766607889905572,-0.268397421041144,1.4131042074066342,0.22671248099552754
3.063800096511841,-0.004664063453674316,-0.0011239349842071533,0.0011461526155471802,-0.0017397983465343714,-4.594773054122925e-05,-0.0012667140690609813,-0.268403597960092,1.413122487908004,0.2267241088961651
3.073922872543335,-0.006052255630493164,-0.0012143254280090332,0.0028933733701705933,0.0008573164232075214,0.0021588834933936596,-0.0016075987368822098,-0.26841828695535436,1.4131457691137843,0.22672107465435676
3.083875894546509,-0.007058501243591309,-0.0015785694122314453,0.004675611853599548,0.0017884240951389074,0.0007896632887423038,-0.0035090423189103603,-0.2684320714325376,1.4131643603091018,0.22669926020201178
3.096359968185425,-0.00643002986907959,-0.0011221766471862793,0.0023609548807144165,0.0020243802573531866,0.0021609249524772167,-0.0018336477223783731,-0.26844924847763063,1.4131747066409952,0.22667366689653348
3.103895902633667,-0.007420480251312256,-0.0025646090507507324,0.001687660813331604,0.0008828327991068363,0.004280668217688799,-0.0022268900647759438,-0.26847347495945034,1.413207721904961,0.22664308242990716
3.1138651371002197,-0.007680058479309082,-0.0035751760005950928,0.0042204707860946655,0.0017523549031466246,0.0065773786045610905,-0.0026516644284129143,-0.26850879801706745,1.4132704090523662,0.22662795969832783
3.1238911151885986,-0.008315205574035645,-0.0034691989421844482,0.004498779773712158,-0.0002776395995169878,0.009794564917683601,0.0007804578635841608,-0.26852550072067594,1.4133620355035361,0.2266204403280554
3.1338629722595215,-0.006442546844482422,-0.003588050603866577,0.0036307573318481445,0.0005431466270238161,0.010671811178326607,0.00289554032497108,-0.2685062824845124,1.4134571537825678,0.22662386745177987
3.1463329792022705,-0.0022861361503601074,-0.003599613904953003,0.0023612231016159058,0.003434140933677554,0.00988413579761982,0.00383174791932106,-0.26847086372182405,1.413558062214867,0.22660475420962212
3.1538279056549072,-0.0017325878143310547,-0.00010457634925842285,0.00046181678771972656,0.003970501944422722,0.008584779687225819,0.004030685871839523,-0.2684225309441021,1.4136479685499035,0.22656726574728156
3.163874864578247,-0.0016317963600158691,-0.002283066511154175,2.0563602447509766e-05,0.0029447355773299932,0.006418963894248009,0.0025030970573425293,-0.26838724342666415,1.4137283217008834,0.22653344946820075
3.173875093460083,0.00018978118896484375,-0.0013885498046875,-0.00032770633697509766,-0.0008947438327595592,0.0034002710599452257,-0.00044662028085440397,-0.26837738822894996,1.4137739692407132,0.22652099468171058
3.1839599609375,-0.00013828277587890625,-0.00024020671844482422,0.0012607574462890625,-0.0034817885607481003,-0.0030268686823546886,-0.0038247869815677404,-0.2684049341313319,1.4137711406836961,0.22653787781371823
3.1963930130004883,-0.0010222792625427246,-0.0022326409816741943,0.0007602721452713013,-0.0032474305480718613,-0.0072740777395665646,-0.003810938447713852,-0.2684456902666798,1.4137341360552282,0.22656274967619186
3.2039010524749756,0.00023061037063598633,-0.003678262233734131,-0.0008885115385055542,-0.0014354654122143984,-0.009270517155528069,-0.001954395556822419,-0.2684732213551979,1.4136697274130592,0.22658087991789144
3.213948965072632,-0.0016000866889953613,-0.0034555792808532715,-0.00180797278881073,-0.0006471697706729174,-0.011871358379721642,0.001666970900259912,-0.2684796476213088,1.413577424576103,0.22659063976965255
3.223925828933716,-0.004259824752807617,-0.0034521520137786865,-0.0009911060333251953,0.0026132718194276094,-0.01041940413415432,0.0017238559667021036,-0.26846030461751114,1.4134735997418517,0.2265807229176473
3.2339839935302734,-0.00586932897567749,-0.0030750930309295654,-0.0023602843284606934,0.004063096828758717,-0.007913103327155113,0.002947312081232667,-0.26843321383824736,1.4133743099300542,0.22654967050891162
3.2465879917144775,-0.0070416927337646484,-0.0049408674240112305,-0.0034918487071990967,0.0035602417774498463,-0.008721860125660896,0.001893392764031887,-0.2683900665181994,1.4132825917620788,0.22652444518173917
3.2539470195770264,-0.007416486740112305,-0.005371361970901489,-0.0013731718063354492,0.002299501560628414,-0.009129591286182404,0.0013146880082786083,-0.26836183984787726,1.4131900643334245,0.22649757981512467
3.263936996459961,-0.007286489009857178,-0.003718137741088867,0.0010171085596084595,0.0005827113054692745,-0.008627718314528465,0.001907720579765737,-0.2683405342707738,1.4131004973208878,0.22648418977274679
3.2740519046783447,-0.007061600685119629,-0.0023012757301330566,0.0025754570960998535,-0.0015629976987838745,-0.01190154254436493,-0.0011053798953071237,-0.2683270097048693,1.4130028798964036,0.2264865278183092
3.284090042114258,-0.0054084062576293945,-0.0029027163982391357,0.006294116377830505,-0.0019470587139949203,-0.013083096593618393,-0.0017075205687433481,-0.2683336175828879,1.412879085329775,0.22650473995223752
3.2965970039367676,-0.0035240650177001953,-0.002136796712875366,0.00475233793258667,-0.003929782193154097,-0.012817580252885818,-0.0025759772397577763,-0.2683463128648606,1.4127509911685439,0.22653459634997025
3.3039629459381104,-0.004245340824127197,-9.34600830078125e-05,0.0038858652114868164,-0.004518190864473581,-0.011485777795314789,-0.004274541512131691,-0.2683793277386075,1.4126339554399503,0.22657332273594505
3.3140299320220947,-0.004736900329589844,0.0010051131248474121,0.004571601748466492,-0.0037306942977011204,-0.008159756660461426,-0.005408249329775572,-0.26842692239549876,1.4125366916961342,0.22660429777438212
3.3240621089935303,-0.004885375499725342,0.0005851387977600098,0.007174268364906311,-0.0036385157145559788,-0.0019447370432317257,-0.005693687126040459,-0.26846680364419756,1.412477739622714,0.22663300667763842
3.3340461254119873,-0.005895435810089111,-8.144974708557129e-05,0.006889775395393372,-0.00237378035672009,0.0017282944172620773,-0.004759183619171381,-0.2685093304445686,1.4124701746228885,0.22664494241574482
3.346426010131836,-0.005662024021148682,0.0011175572872161865,0.008166030049324036,-0.0024706029798835516,0.005148281808942556,-0.004240719601511955,-0.26854760256981497,1.4125063058066902,0.2266695648205226
3.354095935821533,-0.0046433210372924805,0.0021218061447143555,0.008938968181610107,-0.005371850915253162,0.007585872896015644,-0.0025261761620640755,-0.2685822465030198,1.4125904117890835,0.22670343825988487
3.364154100418091,-0.0036947131156921387,-5.385279655456543e-05,0.007840991020202637,-0.0033440529368817806,0.010292621329426765,-0.003139715176075697,-0.2686073092307397,1.4127168769437353,0.22674760122494542
3.374279022216797,-0.002621471881866455,-0.00020247697830200195,0.0061591267585754395,-0.0024399098474532366,0.007739448919892311,-0.001890426385216415,-0.26863487988332674,1.4128314201681926,0.2267829397046817
3.3841869831085205,-0.003997147083282471,-0.0009710192680358887,0.00206775963306427,-0.0020865085534751415,0.004728833679109812,-0.004550605081021786,-0.26867232367020644,1.4129120023558082,0.2268002276805382
3.396393060684204,-0.0033819079399108887,-0.0004601776599884033,0.0018668025732040405,-0.003027935978025198,0.004371704068034887,-0.004090410657227039,-0.26872806338761945,1.4129763703075804,0.2268186532759883
3.4041378498077393,-0.004566311836242676,-0.00036966800689697266,0.00208437442779541,-0.0047741541638970375,0.004779300652444363,-0.005488410126417875,-0.26879246011183844,1.413049503856434,0.22685484890263172
3.4141499996185303,-0.007338821887969971,-0.0030655264854431152,0.0021523237228393555,-0.0017056597862392664,0.005487701389938593,-0.004749116953462362,-0.2688506333250607,1.413119891952588,0.22688755453341916
3.424180030822754,-0.006375432014465332,-0.003060460090637207,0.000568091869354248,0.0015844260342419147,0.003328277263790369,-0.0028740917332470417,-0.2688928458484889,1.4131793203278613,0.22688979883473306
3.43422794342041,-0.004420340061187744,-0.0033855438232421875,-0.0029600411653518677,0.005408992059528828,0.002739186165854335,-0.002668495522812009,-0.2689293434919146,1.4132292782715667,0.22686072716647396
3.4464190006256104,-0.005138278007507324,-0.003269493579864502,-0.005783244967460632,0.008460808545351028,-0.00010915333405137062,-0.0014936686493456364,-0.2689355203074514,1.4132453783692387,0.22678653642476201
3.454340934753418,-0.0057479143142700195,-0.004136532545089722,-0.005010947585105896,0.008789442479610443,-0.001126747578382492,-0.001436144462786615,-0.26893272505514915,1.413235696698463,0.22669206208347
3.4642069339752197,-0.004231452941894531,-0.0034524500370025635,-0.002750977873802185,0.007908716797828674,-0.0022336901165544987,-0.0021558902226388454,-0.26893537452005606,1.413201772234897,0.22660259391913248
3.4743599891662598,-0.002450406551361084,-0.003500998020172119,-0.0005350112915039062,0.006298836786299944,-0.007018592208623886,-0.0009007424814626575,-0.26893829280375386,1.4131339441780872,0.22652440461057305
3.4843671321868896,-0.0014902353286743164,-0.00537380576133728,4.9367547035217285e-05,0.005788176320493221,-0.010089660063385963,0.0011603842722252011,-0.26893412803047806,1.4130331622114118,0.2264619221980678
3.4963700771331787,0.002215087413787842,-0.0035173892974853516,2.0429491996765137e-05,0.006422274746000767,-0.012939509004354477,0.002346289809793234,-0.2689078020244839,1.4129044396387942,0.22640769254097734
3.5044150352478027,0.0016443133354187012,-0.0025005042552948,-4.291534423828125e-06,0.006625007838010788,-0.010798327624797821,0.0034273734781891108,-0.26886598178732374,1.412771994365392,0.22634557747051876
3.514335870742798,0.000352323055267334,-0.0007813572883605957,-5.792081356048584e-05,0.008314783684909344,-0.009673407301306725,0.006221828982234001,-0.2688079064855412,1.4126385777486883,0.22627973863039594
3.5243589878082275,-0.002194344997406006,-0.0019412040710449219,0.001782536506652832,0.009809332899749279,-0.00586770661175251,0.0034370142966508865,-0.268744831859171,1.412519284435059,0.22619572004077895
3.5342729091644287,-0.005888164043426514,-0.002176523208618164,0.001839756965637207,0.011613624170422554,-0.004168610088527203,0.0023951856419444084,-0.2686881946040516,1.412429556648322,0.22608792188546545
3.5464818477630615,-0.007647812366485596,-0.0004354119300842285,0.0011404752731323242,0.013777192682027817,-0.0025146538391709328,0.00462361192330718,-0.2686232475900654,1.4123495611786132,0.22596094933441524
3.554518938064575,-0.008084475994110107,0.0009167790412902832,0.0015707015991210938,0.014428602531552315,-0.00188108766451478,0.00406328309327364,-0.2685501650576138,1.4122855291367764,0.22581383408916103
3.564595937728882,-0.007909774780273438,0.00015860795974731445,0.0004883408546447754,0.015587078407406807,-0.0014390028081834316,0.0025372919626533985,-0.26848192503587376,1.4122233616654583,0.22566277576130972
3.574558973312378,-0.010161042213439941,0.0007390677928924561,0.002863287925720215,0.014667488634586334,-0.0020509972237050533,0.003385774791240692,-0.26841796079727376,1.4121677929281666,0.2255160623575896
3.584460973739624,-0.009296596050262451,0.0011674761772155762,0.0037814974784851074,0.012457180768251419,-0.002184199634939432,0.00232365308329463,-0.26836925502122594,1.4121189845725028,0.22538871079954295
3.5964889526367188,-0.008851587772369385,-0.0005058050155639648,0.004732951521873474,0.012498726136982441,-0.0010496927425265312,-0.001940067857503891,-0.268348073035167,1.4120661832448396,0.22526050951430007
3.604390859603882,-0.008172690868377686,-0.00011205673217773438,0.005720674991607666,0.0136470478028059,-0.0007661553099751472,-0.0034580163192003965,-0.2683511579838434,1.4120222342795863,0.22512902343872118
3.614435911178589,-0.006956577301025391,0.0033937692642211914,0.0060750991106033325,0.015557331964373589,0.0002873912453651428,-0.005267101339995861,-0.26837081267545376,1.411985689526116,0.22498079986002725
3.6245229244232178,-0.005642533302307129,0.004021048545837402,0.005280807614326477,0.015570482239127159,0.002160036936402321,-0.007364500779658556,-0.2684165772199449,1.4119524885383052,0.22481393301906366
3.6344590187072754,-0.006876587867736816,0.0028280913829803467,0.004803910851478577,0.01654493249952793,0.005678605288267136,-0.010690256021916866,-0.26848270551209585,1.4119536596300286,0.22464233398482036
3.646322011947632,-0.005973517894744873,0.003129512071609497,0.0055860430002212524,0.015406930819153786,0.009707702323794365,-0.010496963746845722,-0.26856577079832966,1.411977923253859,0.22445889905886912
3.6545908451080322,-0.005923807621002197,0.0006300210952758789,0.007463037967681885,0.013798914849758148,0.010148987174034119,-0.013562528416514397,-0.2686735299427567,1.4120370835014777,0.22429618451556663
3.664447069168091,-0.006802678108215332,-0.0004661977291107178,0.007052674889564514,0.014940844848752022,0.011260414496064186,-0.013757471926510334,-0.26879758944830756,1.4121100591070694,0.22413023080291566
3.6745030879974365,-0.006052136421203613,-0.0016602575778961182,0.00570601224899292,0.014418598264455795,0.01134190708398819,-0.013187289237976074,-0.2689124119602416,1.412189254471884,0.22395828142713967
3.684509038925171,-0.005150496959686279,-0.0006338655948638916,0.005570054054260254,0.013217246159911156,0.011389221996068954,-0.011531921103596687,-0.26901899629824866,1.412263269326628,0.2237885786874391
3.696420907974243,-0.00475388765335083,-0.0029033422470092773,0.002799391746520996,0.012019889429211617,0.010180945508182049,-0.010282632894814014,-0.2691255792696662,1.4123479588104726,0.22364666587782572
3.704508066177368,-0.004116356372833252,-0.005764365196228027,0.002513602375984192,0.009393297135829926,0.00870799645781517,-0.008668278343975544,-0.2692125887688054,1.4124199138842122,0.2235322069579509
3.7145919799804688,-0.003269970417022705,-0.00534406304359436,0.0012949854135513306,0.007812976837158203,0.008276297710835934,-0.005982213653624058,-0.2692831069269289,1.4124948021380874,0.22343509692342559
3.7246620655059814,-0.003680109977722168,-0.005635321140289307,0.0005071163177490234,0.007039311807602644,0.008945771493017673,-0.005130641162395477,-0.26933204007975686,1.4125669008727415,0.2233515063986612
3.7346088886260986,-0.003603816032409668,-0.006635755300521851,-0.001331239938735962,0.008561575785279274,0.00649992423132062,-0.0026677497662603855,-0.2693725560565201,1.412636918233023,0.22326998884918595
3.7464020252227783,-0.003606438636779785,-0.007740974426269531,-0.001050516963005066,0.008845451287925243,0.006020155735313892,-0.0028644511476159096,-0.26939524532376535,1.4126936785738164,0.22317941457417673
3.754581928253174,-0.0029577016830444336,-0.005606889724731445,-0.002031266689300537,0.00804783497005701,0.006093126721680164,-0.0014857325004413724,-0.26939749476864033,1.4127460413041981,0.22309349795257008
3.7646360397338867,-0.0016652941703796387,-0.006036192178726196,-0.0024456381797790527,0.00966360792517662,0.0021997629664838314,-0.0020551164634525776,-0.2693996426297952,1.4127805356010743,0.2230011828946702
3.774799108505249,-9.495019912719727e-05,-0.006526738405227661,-0.0031476616859436035,0.010901179164648056,1.35740265250206e-05,0.00020111375488340855,-0.2693861810465915,1.4127652206131343,0.22289570930142652
3.7845981121063232,0.0003712177276611328,-0.005419611930847168,-0.003259420394897461,0.00938405841588974,-2.0736362785100937e-05,0.001359002897515893,-0.2693456902096907,1.4127401516459155,0.22278945312797377
3.7965738773345947,-0.00030666589736938477,-0.006089836359024048,-0.0026538223028182983,0.01004425622522831,-0.0030743172392249107,0.002894315170124173,-0.26929699272664875,1.4126991820636454,0.22270215266119056
3.804619073867798,-0.0009079575538635254,-0.006535917520523071,-0.002179741859436035,0.008428067900240421,-0.0043560522608459,0.0019637534860521555,-0.26923737485398297,1.4126365745236684,0.22261009086107583
3.8147008419036865,-0.00239485502243042,-0.006716698408126831,-0.0008146762847900391,0.007559078745543957,-0.005245814565569162,0.006013356149196625,-0.26917170193146345,1.4125679440344225,0.2225327527793874
3.8247909545898438,-0.003444969654083252,-0.00536578893661499,-0.0001957416534423828,0.00664321705698967,-0.0025987206026911736,0.006472857668995857,-0.26908407714899685,1.4124987234309279,0.222470801544536
3.834648847579956,-0.005164742469787598,-0.004249691963195801,-0.000278472900390625,0.005768102593719959,-0.005181986838579178,0.006049681454896927,-0.2690026562913486,1.4124289137626582,0.22240408347115334
3.846482038497925,-0.006062626838684082,-0.003665447235107422,-0.0011948347091674805,0.006325318478047848,-0.003056917805224657,0.00622981833294034,-0.26891894724020704,1.4123693220787858,0.22236047710685494
3.8548779487609863,-0.007695019245147705,-0.0031534135341644287,0.0020636320114135742,0.006649957969784737,-0.0022683553397655487,0.005081729497760534,-0.2688310230993716,1.4123163796149851,0.22230304063177847
3.8647148609161377,-0.0060912370681762695,-0.0026492178440093994,0.0013041496276855469,0.007614138536155224,-0.0014778850600123405,0.00546069722622633,-0.2687511720054312,1.4122681809822597,0.22223393820956872
3.8747830390930176,-0.006061673164367676,0.0010495185852050781,0.002795800566673279,0.00830869097262621,-0.001390000805258751,0.00573340430855751,-0.2686657518061956,1.4122277520741597,0.2221610703382327
3.8847720623016357,-0.004352211952209473,0.0018482208251953125,0.0032271891832351685,0.010795251466333866,-0.0018815314397215843,0.003671318991109729,-0.26858112707803894,1.4121790403039636,0.22207611239200498
3.896528959274292,-0.005064189434051514,0.002517879009246826,0.004702150821685791,0.008224502205848694,-0.0011299876496195793,0.0007873820140957832,-0.2685196192674016,1.41213908015469,0.22197989490045647
3.9047539234161377,-0.0054784417152404785,0.0023254752159118652,0.006189599633216858,0.007150299847126007,-0.00019570579752326012,-0.000480548944324255,-0.2684975681131679,1.412116295574391,0.22189439001995742
3.9148030281066895,-0.006920933723449707,0.0032765567302703857,0.0047054290771484375,0.006568664684891701,-0.001838343683630228,-0.004430283326655626,-0.268508213184361,1.4120880056671676,0.221817256995585
3.9248549938201904,-0.006199777126312256,0.005229949951171875,0.0061196088790893555,0.009312586858868599,-0.00217141630128026,-0.006896636448800564,-0.2685554241948112,1.4120430095177654,0.2217272312656986
3.934911012649536,-0.006966352462768555,0.0040795207023620605,0.004294052720069885,0.009255594573915005,-0.002234000712633133,-0.008815976791083813,-0.26862494319211305,1.4119860680277512,0.22161750685883996
3.946367025375366,-0.00655442476272583,0.003332763910293579,0.004601016640663147,0.008571594953536987,-0.0004103570245206356,-0.013125024735927582,-0.26871890053864017,1.4119479791462421,0.2215069993350536
3.9548590183258057,-0.00789099931716919,0.003332465887069702,0.0052122026681900024,0.009570280089974403,-6.148312240839005e-05,-0.01419694721698761,-0.2688458285520671,1.4119254947437585,0.22139475781922396
3.9649100303649902,-0.007613003253936768,0.00252687931060791,0.004362002015113831,0.010875379666686058,0.0017363729421049356,-0.013497600331902504,-0.2689692263970219,1.411915522197614,0.2212705538649507
3.974755048751831,-0.006421267986297607,0.0006526410579681396,0.0035299062728881836,0.010780837386846542,0.0030485123861581087,-0.014706676825881004,-0.2690931782938396,1.4119186073160759,0.22113479281221426
3.984846830368042,-0.007368028163909912,-0.0013973712921142578,0.0030204802751541138,0.010749910958111286,0.0054342602379620075,-0.013006248511373997,-0.26922532955401085,1.4119509733444195,0.22101295803664137
3.996515989303589,-0.006534278392791748,-0.002698570489883423,0.0020983219146728516,0.009576521813869476,0.005214283242821693,-0.012123410589993,-0.269340532206906,1.4119849097967798,0.22089097724624027
4.004926919937134,-0.006114840507507324,-0.003919035196304321,0.0019624680280685425,0.008121920749545097,0.005409359931945801,-0.00904383696615696,-0.26945114889737715,1.412026587628259,0.22079646872669018
4.015676975250244,-0.005687355995178223,-0.006014585494995117,0.0029088258743286133,0.007216178812086582,0.0051606204360723495,-0.008195620030164719,-0.2695355507231517,1.4120706623949284,0.22070839631620193
4.024796962738037,-0.0039044618606567383,-0.006046950817108154,0.0019673556089401245,0.0051394300535321236,0.0072368658147752285,-0.006522302515804768,-0.26961665321140604,1.4121263681362435,0.22063589667746644
4.034996032714844,-0.0034390687942504883,-0.005367100238800049,0.001927495002746582,0.004740754142403603,0.006888790521770716,-0.006035743281245232,-0.2696869624681246,1.4121972183679128,0.22057470638538598
4.046414136886597,-0.0038291215896606445,-0.006177306175231934,0.0020881742238998413,0.005009816959500313,0.009060465730726719,-0.005723887123167515,-0.2697518576227342,1.4122659965214024,0.22051563916534825
4.055243015289307,-0.0035813450813293457,-0.006200224161148071,0.001239001750946045,0.0036204459611326456,0.006976009346544743,-0.005947059951722622,-0.26980724711763077,1.4123380904785348,0.22046309835536437
4.065135955810547,-0.002846956253051758,-0.008165627717971802,0.000596657395362854,0.002458425471559167,0.006846979260444641,-0.004510018043220043,-0.26985166255133597,1.4124018387005555,0.22042181401460484
4.075243949890137,-0.0021026134490966797,-0.0057596564292907715,-0.0001767277717590332,0.004068573005497456,0.00651088822633028,-0.002103319624438882,-0.2698725965687906,1.4124599729119527,0.2203866135958048
4.085147142410278,-0.0017905235290527344,-0.005527466535568237,-0.0016117841005325317,0.0036629564128816128,0.003934413194656372,-0.0006177017348818481,-0.269869216183656,1.412508969826947,0.22034540706740355
4.096516847610474,-0.0023519396781921387,-0.006620615720748901,-0.00038461387157440186,0.004300783388316631,0.0040143076330423355,0.0003072140971198678,-0.2698476149870917,1.4125512463019265,0.2203078787526397
4.104979991912842,-0.0037559866905212402,-0.006794184446334839,-0.0021359771490097046,0.005422407295554876,0.004367087502032518,0.0030275797471404076,-0.26980607096255516,1.412581594639911,0.22026501060395537
4.115173101425171,-0.0037627220153808594,-0.00641670823097229,-0.0023604482412338257,0.007260787766426802,0.0026861003134399652,0.006078763399273157,-0.2697310824013697,1.412596273940725,0.22020171705712005
4.125173807144165,-0.0025818347930908203,-0.005081832408905029,-0.0015892833471298218,0.009252099320292473,0.0027358124498277903,0.005602910183370113,-0.26964428734068546,1.4126075093564063,0.22013007514877747
4.135223150253296,-0.0036582350730895996,-0.0033307671546936035,-0.00019405782222747803,0.01136771496385336,0.0011685420759022236,0.00582368578761816,-0.2695531262420473,1.4126044989399076,0.22003829279420292
4.146471977233887,-0.005278229713439941,-0.00292322039604187,0.0005182772874832153,0.01097759511321783,-0.0020132246427237988,0.004578125663101673,-0.2694627672641704,1.4125654528803384,0.2199309934627587
4.155107021331787,-0.003396153450012207,-0.002223968505859375,-0.0007581561803817749,0.008636143058538437,-0.005618079099804163,0.0038414951413869858,-0.2693863659723587,1.4124991371028701,0.21983994209515362
4.1651270389556885,-0.002482116222381592,-0.0003422200679779053,3.810226917266846e-05,0.005216811317950487,-0.005164455156773329,0.00185280607547611,-0.2693337525847432,1.412418356419941,0.2197725749541059
4.175679922103882,-0.005312860012054443,-0.0008906126022338867,0.0022338777780532837,0.003629833459854126,-0.005596152972429991,-0.0025872159749269485,-0.2693169871408269,1.4123404957222956,0.21972234412947886
4.185119867324829,-0.007511019706726074,-0.001552194356918335,0.0039008408784866333,0.006575888954102993,-0.0080752894282341,-0.002212669001892209,-0.269322653660958,1.4122561401169518,0.2196636268858667
4.196304082870483,-0.006498932838439941,8.302927017211914e-05,0.004310473799705505,0.007500804960727692,-0.00697433901950717,-0.003330397652462125,-0.26933590112800365,1.412145809052346,0.2195807531132607
4.205200910568237,-0.0054465532302856445,-0.0005956590175628662,0.002071186900138855,0.00890437327325344,-0.003273299429565668,-0.002578640589490533,-0.26934345604376486,1.4120614015077677,0.21949237191416154
4.215167999267578,-0.006323099136352539,-0.001270681619644165,0.0020258277654647827,0.008371476083993912,-0.0007640691474080086,-0.0006955193821340799,-0.2693472631077935,1.4120126957724755,0.21940284300748483
4.225154161453247,-0.00589907169342041,-0.0018065571784973145,0.003600776195526123,0.006535441614687443,0.0035629021003842354,-0.0009114483837038279,-0.26933329083829227,1.4120098664115577,0.21932877511606072
4.235227823257446,-0.0047779083251953125,-0.0012301206588745117,0.006959453225135803,0.0015031329821795225,0.0061837187968194485,-0.0014581953873857856,-0.2693209176578212,1.412040667609146,0.2192788871492548
4.246328115463257,-0.0023592710494995117,-0.0013218224048614502,0.007064834237098694,0.0016142367385327816,0.004188611637800932,-0.0008603690657764673,-0.26932108022243945,1.4120902310251138,0.2192611291345003
4.256263971328735,-0.0017814040184020996,-0.0015371739864349365,0.005588233470916748,-0.0012119098100811243,0.004370239097625017,-0.002668655477464199,-0.26933872194962705,1.4121338846217204,0.21925076746705732
4.271453142166138,-0.0004398226737976074,-0.0020049214363098145,0.005109623074531555,-0.004391957074403763,0.0038474607281386852,-0.002539438661187887,-0.26936489516548673,1.412186691013808,0.21927538116751705
4.27632212638855,-0.0007570981979370117,-0.0022968053817749023,0.004526838660240173,-0.009543308988213539,0.0045585245825350285,-0.0037117621395736933,-0.2694144952924209,1.4122517089083009,0.2193476486014843
4.2852818965911865,-0.003057122230529785,-0.004489630460739136,0.005857124924659729,-0.014183418825268745,0.0037712494377046824,-0.0040067872032523155,-0.26947313665279266,1.4123263847728746,0.21946159525300615
4.296350955963135,-0.003946661949157715,-0.005830913782119751,0.004054009914398193,-0.016094235703349113,0.0004652012139558792,-0.005425985902547836,-0.269550766207587,1.4123897804052805,0.21961283803194956
4.305259943008423,-0.004622936248779297,-0.006525576114654541,0.0019531846046447754,-0.01633448712527752,0.001347595825791359,-0.00550747849047184,-0.26962243378121453,1.4124455892168795,0.21978121261055106
4.31522011756897,-0.0037171244621276855,-0.006779611110687256,0.0007001161575317383,-0.01568201184272766,-0.0007102284580469131,-0.0017074140487238765,-0.26968014471241547,1.412509087078043,0.2199536310310289
4.325358152389526,-0.0056418776512146,-0.006488919258117676,-0.0010326504707336426,-0.014628215692937374,-0.002367114182561636,0.0028781231958419085,-0.2696951965325855,1.4125494314014289,0.22011324500726176
4.335752964019775,-0.006951332092285156,-0.006590038537979126,-0.0009976029396057129,-0.013716083019971848,-0.0009353989735245705,0.006113863550126553,-0.2696734667346027,1.4125937745305244,0.2202650066507126
4.346442937850952,-0.008536577224731445,-0.007117092609405518,-0.000784263014793396,-0.014081303030252457,-0.0012809881009161472,0.005117469001561403,-0.26965030734070455,1.4126431539614297,0.22041827707684114
4.355235815048218,-0.007147610187530518,-0.006807923316955566,-0.0015339255332946777,-0.014084765687584877,-0.0015257326886057854,0.006542259827256203,-0.2696145874801429,1.4126788549384526,0.22058049145819697
4.365422010421753,-0.006750285625457764,-0.004164665937423706,-0.0009864121675491333,-0.01347237080335617,-0.0032742763869464397,0.0036861260887235403,-0.26957929271275954,1.4127143702518083,0.22073044727029678
4.375255823135376,-0.004899799823760986,-0.0025001168251037598,0.000648200511932373,-0.011550101451575756,-0.003473214339464903,0.005322372540831566,-0.2695462209705451,1.4127298507914263,0.22086673961379336
4.385411024093628,-0.0034134984016418457,-0.0032531917095184326,0.0013945698738098145,-0.009146365337073803,-0.005255312193185091,0.003026461461558938,-0.26950432962451776,1.4127170839523508,0.22097942928148817
4.396489858627319,-0.0017369389533996582,0.00022038817405700684,0.0024796128273010254,-0.006735938601195812,-0.005621763411909342,0.0017891568131744862,-0.26947831122341936,1.4126843839000671,0.2210709175802439
4.405462026596069,-0.001492321491241455,0.001220703125,0.001791641116142273,-0.006500481627881527,-0.005592202302068472,0.0015055834082886577,-0.2694537170005112,1.4126387942026215,0.22114630125179202
4.415771961212158,-0.001822054386138916,0.0015015602111816406,0.002907678484916687,-0.005094332620501518,-0.005753856617957354,-0.00012080918531864882,-0.26944725604431297,1.4125887218738993,0.22120753773582358
4.425368070602417,-0.0026544928550720215,0.0019854307174682617,0.003339707851409912,-0.00380466366186738,-0.0024776356294751167,-0.001729784533381462,-0.26945182889891084,1.412551405670663,0.22124358941904837
4.435365915298462,-0.0027979612350463867,0.0010983645915985107,0.002908274531364441,-0.00300784595310688,-0.0018920069560408592,-0.0016831791726872325,-0.2694698174409725,1.4125229798512122,0.22127317070386038
4.446666955947876,-0.004133760929107666,0.0012814700603485107,0.0051229000091552734,-0.0020056983921676874,-0.0011758827604353428,-0.0014506852021440864,-0.2694856302751991,1.4125040122469787,0.22129396144328878
4.4553680419921875,-0.0038852691650390625,0.0017957091331481934,0.00427602231502533,-0.0024120965972542763,0.001970642013475299,-0.0004482713993638754,-0.26950617499713814,1.4125111350221522,0.2213241781090771
4.465386152267456,-0.00446707010269165,-0.00023236870765686035,0.004346370697021484,-0.0047420961782336235,0.00278903148137033,-0.0020139438565820456,-0.26952057652654343,1.41254882698812,0.22135808409330662
4.4754369258880615,-0.004026353359222412,-0.0017271637916564941,0.004645019769668579,-0.0023862640373408794,0.001804194413125515,-3.628036938607693e-05,-0.26953579354842694,1.4125871109432895,0.2213918176338308
4.485352993011475,-0.003582298755645752,-0.0028216540813446045,0.0026360899209976196,-0.003438212675973773,-0.0005532358773052692,0.00013655878137797117,-0.26954735328874924,1.4125970972746629,0.22141949459538146
4.496607065200806,-0.004253387451171875,-0.003794252872467041,0.001397743821144104,-0.005955299362540245,0.0009726667776703835,0.0011420616647228599,-0.26955906950957664,1.4126151279202734,0.2214710407300024
4.505553960800171,-0.008047223091125488,-0.003731966018676758,0.001888573169708252,-0.007996628992259502,0.0031414118129760027,0.0032580499537289143,-0.26955782446747434,1.4126766026166226,0.22155359089427779
4.5154688358306885,-0.009490609169006348,-0.0077784061431884766,0.0037188082933425903,-0.008601432666182518,0.0025957301259040833,0.00191155553329736,-0.2695607246447912,1.4127414770018285,0.22163673098525893
4.5254271030426025,-0.007825791835784912,-0.005631953477859497,0.002735629677772522,-0.0069089774042367935,0.0033434126526117325,0.004705104976892471,-0.26955013558523744,1.412813047855598,0.22172499322762598
4.535630941390991,-0.007552921772003174,-0.0036427080631256104,-0.0017756372690200806,-0.005643975920975208,0.005311222281306982,0.004183391574770212,-0.2695285748751637,1.412888488200004,0.22180030734988365
4.546545028686523,-0.00873422622680664,-0.0035630762577056885,-0.003026917576789856,-0.0040064482018351555,0.006133207120001316,0.003705141367390752,-0.26949345099590305,1.4129702869125027,0.22185669693457954
4.5557191371917725,-0.008772969245910645,-0.0025042593479156494,-0.0011109709739685059,-0.0036551770754158497,0.0071113863959908485,0.004717408679425716,-0.26945552360828057,1.4130590527598768,0.22190209861678398
4.565725088119507,-0.007068037986755371,-0.0020283162593841553,-9.06139612197876e-05,-0.00418586190789938,0.0037553152069449425,0.002887497656047344,-0.26942090376687017,1.4131268103786514,0.22194790720012597
4.575783014297485,-0.0029769539833068848,-0.0013450086116790771,0.0004213303327560425,-0.005401594564318657,0.0003629806451499462,0.0038760630413889885,-0.26939266002474055,1.4131673088870975,0.22200883484164466
4.585674047470093,-0.00015091896057128906,-0.0008479654788970947,0.0011314153671264648,-0.005462980829179287,-0.002731168642640114,0.0045771668665111065,-0.26935190393822395,1.4131765299647587,0.2220790519213561
4.596552133560181,0.0007347464561462402,-0.00026151537895202637,0.0014674067497253418,-0.005593475420027971,-0.0008326014503836632,0.007112761959433556,-0.2692975399996274,1.4131785562771624,0.22215108580170154
4.6057679653167725,-8.83340835571289e-05,-0.00011876225471496582,-0.0011572092771530151,-0.003821824211627245,-0.0014552040956914425,0.004244005307555199,-0.2692444098925842,1.4131810613370455,0.22221097328226996
4.621949911117554,-0.0015621185302734375,-0.0005234181880950928,-0.0007655024528503418,-0.000484084477648139,-0.002413942012935877,0.004405925516039133,-0.2692051761989138,1.413172021026307,0.22224673771247752
4.628564119338989,-0.0022063255310058594,0.0015047788619995117,0.000805974006652832,0.0009082660544663668,-0.0021949857473373413,0.0016284084413200617,-0.2691747701407198,1.4131414827559086,0.22224485212259237
4.635739088058472,-0.0035315752029418945,0.0007247328758239746,-0.0010331124067306519,0.005067857448011637,-0.0024410616606473923,2.9180082492530346e-05,-0.2691608572029297,1.4131024354348214,0.22221139898211456
4.646694898605347,-0.005384385585784912,-0.0004634857177734375,-0.0007761120796203613,0.005549356807023287,-0.00548052741214633,-0.0013109225546941161,-0.26915881225315264,1.4130408927441633,0.22215637990692713
4.656080007553101,-0.005885958671569824,0.0013115108013153076,-0.0012807101011276245,0.006796515546739101,-0.007806266192346811,-0.0024640713818371296,-0.2691694713718461,1.4129453863594854,0.2220853847392099
4.665773153305054,-0.004721701145172119,-5.59389591217041e-05,0.00018525123596191406,0.006866023875772953,-0.009510155767202377,-0.003184456378221512,-0.2691792963408784,1.412831589767391,0.22201129741299316
4.675766944885254,-0.005447745323181152,-0.0030146241188049316,0.0005870014429092407,0.005066525656729937,-0.011204458773136139,-0.002633448224514723,-0.2691935351946682,1.4127135205439576,0.22194820388170766
4.685757875442505,-0.006904900074005127,-0.003301262855529785,-0.0002971142530441284,0.0036241745110601187,-0.010577506385743618,-0.0010034872684627771,-0.26920595374524503,1.4125838114524727,0.2218920618935298
4.696757078170776,-0.0063515305519104,-0.0031841397285461426,0.0013412535190582275,0.003439084393903613,-0.010147673077881336,-0.001847442938014865,-0.2692110516561031,1.4124654011783173,0.2218508203951495
4.705877065658569,-0.00610506534576416,-0.004013270139694214,0.0027998238801956177,0.0032711392268538475,-0.008750933222472668,-0.0002522096037864685,-0.2692163831853356,1.412359514474586,0.22180777069940769
4.7157838344573975,-0.005405843257904053,-0.0048954784870147705,0.00164794921875,0.004047983326017857,-0.005326374433934689,0.0007259694393724203,-0.2692135660488421,1.4122713342460018,0.2217654160622733
4.725805997848511,-0.005310356616973877,-0.004410505294799805,0.0021507591009140015,0.004487837664783001,-0.0026702266186475754,0.00018859689589589834,-0.2692011437068945,1.4122245697674738,0.22172879513009944
4.735778093338013,-0.004548609256744385,-0.0032704174518585205,0.0035056620836257935,0.0023053770419210196,0.0005420786328613758,0.001407525734975934,-0.2691897615534082,1.4122123106327413,0.22168963194123337
4.746647119522095,-0.004692137241363525,-0.0040972232818603516,0.00567038357257843,0.0012310079764574766,0.0034105246886610985,0.0011351908324286342,-0.2691768721791035,1.4122310463701138,0.22166998321792844
4.756031036376953,-0.004706025123596191,-0.004289597272872925,0.005635619163513184,-0.0024167238734662533,0.0054987091571092606,0.0017575715901330113,-0.26915482491220877,1.4122845365559218,0.22167404470523744
4.765902042388916,-0.0054495930671691895,-0.0042549967765808105,0.006519332528114319,-0.0037147649563848972,0.007152044214308262,0.0010593440383672714,-0.26915058829495647,1.4123502105068562,0.2217086148825138
4.7758948802948,-0.004408717155456543,-0.005268752574920654,0.006310641765594482,-0.006814418360590935,0.0061349826864898205,0.0018415143713355064,-0.2691575354064374,1.4124409203135526,0.2217668855297199
4.785959959030151,-0.004915356636047363,-0.0041651129722595215,0.005395486950874329,-0.009122163988649845,0.009207249619066715,0.002076458651572466,-0.26915229617185243,1.4125529649041635,0.22185736488230276
4.79671311378479,-0.005026102066040039,-0.004689544439315796,0.0043153315782547,-0.010499817319214344,0.007510815747082233,0.003141456749290228,-0.2691423276944294,1.4126622375250455,0.22196733531597718
4.805940866470337,-0.0057648420333862305,-0.005586475133895874,0.0025191903114318848,-0.011207768693566322,0.00859024003148079,0.003574326867237687,-0.2691230942700725,1.4127706187540405,0.2220830630433656
4.815859079360962,-0.005330860614776611,-0.004740774631500244,0.002179086208343506,-0.01095183938741684,0.007404333911836147,0.004630803130567074,-0.2691005190637897,1.412888453761775,0.22220683659429913
4.825984954833984,-0.005618572235107422,-0.0034222304821014404,0.0020810365676879883,-0.010398266837000847,0.008840044029057026,0.004449814558029175,-0.269062345454277,1.4130091970116192,0.2223233284684683
4.8359620571136475,-0.005773484706878662,-0.004500597715377808,0.0010481923818588257,-0.008543642237782478,0.008556683547794819,0.0074754320085048676,-0.2690097360125933,1.4131347309628581,0.22243145317188867
4.846747159957886,-0.003885209560394287,-0.0028845667839050293,0.0017150640487670898,-0.007977953180670738,0.007920543663203716,0.007919486612081528,-0.26894778981124806,1.4132543597651548,0.22252155736389215
4.855839967727661,-0.0033403635025024414,-0.002089858055114746,0.0013144612312316895,-0.006184847094118595,0.007830262184143066,0.006550888530910015,-0.2688832143154896,1.4133733888312228,0.22261006742801784
4.8662168979644775,-0.002339184284210205,-0.0019101500511169434,0.0003888159990310669,-0.0074469526298344135,0.0073530240915715694,0.00855832640081644,-0.2688075618383693,1.413483506663011,0.22269894775888413
4.875977039337158,-0.0026804208755493164,-0.0016371309757232666,0.0009030848741531372,-0.007381438743323088,0.0068329088389873505,0.008709327317774296,-0.268730097196597,1.4135877922834337,0.22279227600922955
4.886006116867065,-0.0027781128883361816,-0.0006608963012695312,-0.0004803091287612915,-0.005651782266795635,0.0038818600587546825,0.009383267723023891,-0.268635556136477,1.413666606762308,0.22287415662439647
4.896965980529785,-0.003086090087890625,-0.0013089478015899658,0.00032782554626464844,-0.00498572550714016,0.004110093228518963,0.009159029461443424,-0.26854802838080055,1.4137351262148037,0.22294262232937295
4.906090974807739,-0.004240870475769043,-0.0002627074718475342,-0.0009472966194152832,-0.0042464821599423885,0.0024130824021995068,0.007301313802599907,-0.2684757575318602,1.4137793874425013,0.22299893512478447
4.916136980056763,-0.004721224308013916,0.0005706846714019775,-0.0014547854661941528,-0.0023271418176591396,-0.0006452915258705616,0.006793449632823467,-0.26840274939794057,1.413802770512972,0.2230424741662355
4.926129102706909,-0.004964053630828857,0.0016672909259796143,-0.0023545026779174805,-0.0004830360412597656,-0.00446994649246335,0.006341937463730574,-0.2683414872476205,1.413788807349205,0.22306612115036553
4.936167001724243,-0.004895508289337158,0.002069443464279175,-0.0020081400871276855,0.0005942126736044884,-0.005605251993983984,0.005042048171162605,-0.2682883990888439,1.4137478738995932,0.2230823201105492
4.946763038635254,-0.0037769079208374023,0.0027946531772613525,-0.0013119429349899292,0.001895067049190402,-0.009315035305917263,0.0013755146646872163,-0.26826417903986177,1.4136747910966798,0.22307241826025356
4.956154108047485,-0.004969000816345215,0.0025773048400878906,-0.0005052536725997925,0.0034522174391895533,-0.010399209335446358,-0.0002402252284809947,-0.2682522559196262,1.4135653361649063,0.22304545430415948
4.966089963912964,-0.004063129425048828,0.0027475357055664062,0.0014345794916152954,0.007218226790428162,-0.01011398434638977,-0.002355254488065839,-0.26826557537532625,1.4134505391892709,0.22299852543903498
4.976016044616699,-0.004722893238067627,0.0018367767333984375,0.0019096285104751587,0.007318628020584583,-0.01203758455812931,-0.0034428895451128483,-0.2682923146824347,1.4133190427278544,0.22291922757051216
4.986279010772705,-0.005320489406585693,0.0005683600902557373,0.0028530359268188477,0.005329729523509741,-0.008612271398305893,-0.004327218979597092,-0.26832594166778967,1.4131921398320324,0.22284308912144993
4.996686935424805,-0.006163597106933594,0.0008436143398284912,0.0022549033164978027,0.0056186821311712265,-0.006019683554768562,-0.004408178851008415,-0.2683728260191562,1.4130971482133656,0.22277407820282935
5.006184816360474,-0.007638871669769287,-0.0007019937038421631,0.00323544442653656,0.006293077953159809,-0.0038785473443567753,-0.003843429032713175,-0.26840911915038335,1.4130272548686758,0.2227040791342191
5.0161778926849365,-0.00817263126373291,-0.002283811569213867,0.004238426685333252,0.0028570673894137144,0.001072268933057785,-0.0057326750829815865,-0.26845132286266854,1.4129976823630788,0.2226529896102611
5.026122808456421,-0.007641613483428955,-0.003567636013031006,0.005025029182434082,0.002286951057612896,0.002385207684710622,-0.0038217506371438503,-0.26850094448729,1.4130027193119565,0.22261964032869722
5.036397933959961,-0.008721888065338135,-0.0032352805137634277,0.006312862038612366,-0.00011655152775347233,0.005986334290355444,-0.0013274342054501176,-0.2685360295344432,1.4130428677075353,0.22260863366131026
5.047003984451294,-0.006825149059295654,-0.00362473726272583,0.006735458970069885,8.796248584985733e-05,0.008339636027812958,0.00048655131831765175,-0.26854434778519987,1.4131274583116997,0.222612282599816
5.056468963623047,-0.005806624889373779,-0.004891872406005859,0.004276171326637268,-0.0006316235521808267,0.010273623280227184,0.002798174973577261,-0.26852918488333766,1.4132270713015023,0.22262041783262945
5.066395044326782,-0.002701103687286377,-0.00422900915145874,0.0032265186309814453,0.001257789321243763,0.010408557951450348,0.0027232870925217867,-0.26850636504592446,1.4133368640527972,0.22261890039576543
5.076327085494995,-0.0018813610076904297,-0.0029087066650390625,0.0016955137252807617,0.0015858907718211412,0.007557377219200134,0.00263859867118299,-0.2684822544353826,1.4134234005002604,0.22261242085068728
5.086387872695923,-0.002346217632293701,-0.0028885602951049805,0.0014487355947494507,0.0021050074137747288,0.007565987762063742,0.0034697712399065495,-0.2684455728475472,1.4135079124689776,0.22260071236020557
5.096858024597168,-0.0007921457290649414,-0.003587871789932251,-0.00017511844635009766,0.002258937805891037,0.004584312438964844,0.0028985231183469296,-0.268411152270907,1.413564248229474,0.22257767255005387
5.106394052505493,-0.0013117194175720215,-0.0033019185066223145,-0.0007826685905456543,0.0025031331460922956,0.0009755962528288364,0.00348958489485085,-0.2683677953894931,1.4135952173115915,0.22255856875517702
5.116276025772095,-0.002283155918121338,-0.004774361848831177,-0.0014053583145141602,0.0036301829386502504,-0.0014550709165632725,0.004243792034685612,-0.26832822050623556,1.4135938786239277,0.22253627885164254
5.126269102096558,-0.002848803997039795,-0.005075007677078247,-0.0020039230585098267,0.004365731496363878,-0.0021549048833549023,0.008293075487017632,-0.268260218982636,1.4135844735669911,0.2225108669895253
5.136583089828491,-0.00278472900390625,-0.005423992872238159,-0.001955747604370117,0.007905605249106884,5.498621612787247e-05,0.01063346117734909,-0.2681474276413764,1.4135708283290773,0.222466228623961
5.146840810775757,-0.005504906177520752,-0.004447072744369507,-0.0013372749090194702,0.010264916345477104,-0.0008509769104421139,0.012868758291006088,-0.26800457766712527,1.4135524849025527,0.22239292205868005
5.156383991241455,-0.004532516002655029,-0.004607290029525757,-0.0014855116605758667,0.011899564415216446,-7.599685341119766e-05,0.014677843078970909,-0.2678542683626289,1.41352243212845,0.22229969417061907
5.166384935379028,-0.003287672996520996,-0.003227442502975464,-0.0006459206342697144,0.013185621239244938,-0.0027856300584971905,0.014493713155388832,-0.2676892183945635,1.4134811799173492,0.2221951668189537
5.176394939422607,-0.003517746925354004,-0.002055734395980835,-0.0020182132720947266,0.009678238071501255,-0.0035907034762203693,0.012396208010613918,-0.2675344120199308,1.4134227921675218,0.22209721037773936
5.186471939086914,-0.0030683279037475586,-0.0018246173858642578,-0.00042410194873809814,0.009240531362593174,-0.00488602090626955,0.009796430356800556,-0.2674055068838144,1.4133567721626592,0.22201503758929478
5.196882963180542,-0.005998194217681885,-0.0016135573387145996,0.0024381428956985474,0.006519046612083912,-0.007009891793131828,0.0077809495851397514,-0.2672973804893919,1.4132720796199008,0.2219372210298022
5.2064549922943115,-0.006001770496368408,-0.0007341504096984863,0.00400388240814209,0.006367296911776066,-0.00892226304858923,0.003950684797018766,-0.2672241485650983,1.413169383327979,0.22187239036682757
