timestamp,accel_x,accel_y,accel_z,rotation_x,rotation_y,rotation_z, pitch,roll,yaw
0.04478287696838379,0.01636570692062378,-0.028607606887817383,-0.00396418571472168,-0.017465263605117798,-0.010376373305916786,0.02372453175485134,-0.5309940947657643,1.6041901599743484,2.6272700262871456
0.05868887901306152,0.013209104537963867,-0.025200247764587402,-0.0037392377853393555,-0.008575099520385265,-0.011669605039060116,0.021026749163866043,-0.530758722387388,1.6041547101899927,2.6274020160144125
0.07158994674682617,0.010307073593139648,-0.02511000633239746,-0.005010247230529785,-0.0006582869682461023,-0.014721053652465343,0.01969841867685318,-0.5305479544910852,1.6040496413820435,2.627444129361487
0.08052182197570801,0.007692992687225342,-0.022271692752838135,-0.0035144053399562836,-0.001430337317287922,-0.011988918296992779,0.02012985199689865,-0.5303355225826223,1.6039032222888945,2.627438791247147
0.0820770263671875,0.004669070243835449,-0.023935019969940186,-0.004213213920593262,-0.008971943520009518,-0.007955826818943024,0.019467683508992195,-0.5301233615230488,1.6038247270814343,2.6274785218615846
0.08518290519714355,0.00330430269241333,-0.02555292844772339,-0.008557325229048729,-0.012134980410337448,-0.006486826576292515,0.019625341519713402,-0.5299292370023069,1.6038156995757327,2.627583389768454
0.09555602073669434,0.004332304000854492,-0.02494293451309204,-0.00956583023071289,-0.012986525893211365,-0.008574921637773514,0.02163373865187168,-0.5296998604752192,1.6037951963481796,2.627709167120289
0.1027839183807373,0.006543278694152832,-0.02744358777999878,-0.009212370961904526,-0.014201460406184196,-0.007580764126032591,0.019206799566745758,-0.5294856799962332,1.6037881412658734,2.6278688827889467
0.11278080940246582,0.005118429660797119,-0.02914494276046753,-0.010648965835571289,-0.003535632975399494,-0.011001682840287685,0.024744736030697823,-0.5292646883720493,1.6037511570038498,2.6279704529937553
0.12279891967773438,0.0037665367126464844,-0.023028016090393066,-0.007759809494018555,0.012787680141627789,-0.015905629843473434,0.030912885442376137,-0.52898399250831,1.6035805103269556,2.627896418687487
0.13281989097595215,0.004890561103820801,-0.01867079734802246,-0.006340980529785156,0.01899266242980957,-0.016469376161694527,0.03476988524198532,-0.5286560856422597,1.6033092228369739,2.6276890471994863
0.14440512657165527,0.002031385898590088,-0.025990664958953857,-0.00491642951965332,0.021838782355189323,-0.0141388438642025,0.035634614527225494,-0.5282976747360864,1.6030132038077431,2.6274186957280374
0.1530921459197998,0.002142190933227539,-0.03387027978897095,-0.0065958499908447266,0.027982577681541443,-0.01877802610397339,0.044261712580919266,-0.5278983871174685,1.6027064454613569,2.627136081579484
0.16285204887390137,0.004206061363220215,-0.032182514667510986,-0.010312434285879135,0.02670479565858841,-0.019878709688782692,0.05194120109081268,-0.5274108244368632,1.6023364000343001,2.6267931475325272
0.17313194274902344,0.008444428443908691,-0.0289154052734375,-0.008815884590148926,0.02651054970920086,-0.026030611246824265,0.05443855747580528,-0.5268791240452958,1.601936772806508,2.6264546321192093
0.1830461025238037,0.008894741535186768,-0.027062714099884033,-0.00438082218170166,0.030936455354094505,-0.03100406378507614,0.05337941646575928,-0.5263422155351916,1.6014740238667977,2.626097918516509
0.19453096389770508,0.010801255702972412,-0.0264434814453125,-0.005454417318105698,0.03647308424115181,-0.03011425770819187,0.049895308911800385,-0.5258203087320716,1.6009591683435247,2.6256806232276424
0.20311498641967773,0.012003779411315918,-0.02354830503463745,-0.008546948432922363,0.0340738445520401,-0.035965755581855774,0.05034777894616127,-0.5251193318101421,1.600270794321934,2.6251741422721393
0.21322298049926758,0.012665033340454102,-0.022943556308746338,-0.008257746696472168,0.024308931082487106,-0.03248385339975357,0.043227072805166245,-0.5244910757989407,1.5996436331330814,2.624772405476621
0.2234508991241455,0.012030482292175293,-0.02870994806289673,-0.004671093076467514,0.017326921224594116,-0.025108492001891136,0.040292803198099136,-0.5238549465813022,1.5991913597010408,2.6245021202857655
0.23322606086730957,0.010237276554107666,-0.029201209545135498,-0.0026537179946899414,0.018635615706443787,-0.021234435960650444,0.038535330444574356,-0.5231888609591052,1.5987536865448815,2.6242341960715243
0.2452549934387207,0.011956989765167236,-0.023468822240829468,-0.006037712097167969,0.01662093587219715,-0.01519704982638359,0.03332751989364624,-0.5225604949332836,1.598281610153541,2.62392727231999
0.2530689239501953,0.013979196548461914,-0.02420264482498169,-0.008396979421377182,0.017581254243850708,-0.006851102691143751,0.031202955171465874,-0.5219811968160502,1.5979311079026757,2.623659955379463
0.26302599906921387,0.014531314373016357,-0.028697282075881958,-0.009658215567469597,0.025549698621034622,-0.004024424124509096,0.02751314453780651,-0.5214454410714684,1.5977230855567768,2.623390018434789
0.27303385734558105,0.014764726161956787,-0.02615654468536377,-0.011835692450404167,0.02585780993103981,0.0022320072166621685,0.026239728555083275,-0.5209438139372925,1.5974988514901691,2.623047514272037
0.2830929756164551,0.0134507417678833,-0.023801296949386597,-0.007549760863184929,0.021974921226501465,-0.00012702075764536858,0.02615584060549736,-0.5204626656873176,1.5972121007409517,2.622679567936624
0.29566311836242676,0.01521211862564087,-0.028525084257125854,-0.007745862007141113,0.01899479329586029,-0.004388655535876751,0.023432331159710884,-0.5199979755673805,1.5969211359799305,2.622361105306111
0.3029959201812744,0.015121638774871826,-0.03124132752418518,-0.012448074296116829,0.013678591698408127,-0.009953063912689686,0.025427304208278656,-0.5194883142931765,1.596687738716052,2.622130397392297
0.3129589557647705,0.0134202241897583,-0.03189656138420105,-0.015462040901184082,0.006659297272562981,-0.01939130760729313,0.028191400691866875,-0.5189600657807376,1.596460612552358,2.621983323175388
0.32326483726501465,0.014044582843780518,-0.03498312830924988,-0.01399242877960205,0.003944737371057272,-0.03226183354854584,0.03653854504227638,-0.5184203251479392,1.596078093527932,2.621869706537437
0.3331568241119385,0.013040542602539062,-0.036416709423065186,-0.013756752014160156,0.005775127559900284,-0.045483361929655075,0.0415990836918354,-0.5178047565765664,1.59549939493736,2.6217292539175547
0.34544897079467773,0.01180267333984375,-0.03654932975769043,-0.014831067994236946,0.017203550785779953,-0.06025591492652893,0.05257770046591759,-0.5170619077406738,1.5947409370493175,2.6215070733720034
0.3531339168548584,0.009395599365234375,-0.036572039127349854,-0.020062804222106934,0.025356817990541458,-0.06883741915225983,0.062078796327114105,-0.5162456715200157,1.5937447299599459,2.621135380186523
0.36322498321533203,0.004600882530212402,-0.04033857583999634,-0.023616554215550423,0.02588994987308979,-0.07374535501003265,0.07528482377529144,-0.5153483276268535,1.5927840619818843,2.6207729324432387
0.3732619285583496,0.0016558170318603516,-0.04184266924858093,-0.0224688071757555,0.026395851746201515,-0.08237151056528091,0.09086820483207703,-0.5142714246906733,1.5917501099483433,2.620397394170297
0.3833789825439453,0.004135549068450928,-0.04036495089530945,-0.02139568328857422,0.031161576509475708,-0.09394294768571854,0.11280360072851181,-0.5129952707954216,1.590538175769114,2.6199628264576353
0.3954498767852783,0.004573702812194824,-0.04343819618225098,-0.022597433999180794,0.047313299030065536,-0.10978028178215027,0.1407143771648407,-0.5114793887316371,1.5890645172138935,2.619379140089872
0.4033968448638916,-0.0009291172027587891,-0.05657842755317688,-0.03348207473754883,0.07320960611104965,-0.12751826643943787,0.19163934886455536,-0.5095758651524434,1.5873726785509936,2.6185755184323067
0.4133450984954834,-0.009642481803894043,-0.07003191113471985,-0.04813432693481445,0.11886411905288696,-0.18810756504535675,0.2828255891799927,-0.5070027028142823,1.585136198500297,2.6173982037790333
0.4233429431915283,-0.013099193572998047,-0.08956289291381836,-0.06792926788330078,0.22827528417110443,-0.2416863739490509,0.3831807076931,-0.5034975487383019,1.5819076517192254,2.6152871330109893
0.43343091011047363,-0.017059922218322754,-0.1278638243675232,-0.09693467617034912,0.2815956473350525,-0.30293118953704834,0.5181536078453064,-0.4989753357171207,1.5777250855790965,2.6123076019725935
0.453808069229126,-0.02897578477859497,-0.14954349398612976,-0.12296140193939209,0.3999342620372772,-0.3743036389350891,0.6990163326263428,-0.4928305170478316,1.5724659611608456,2.608459272711864
0.4578831195831299,-0.028586745262145996,-0.1693137288093567,-0.1468709111213684,0.4087706506252289,-0.46491584181785583,0.7858172655105591,-0.48535731210257654,1.5659717698892224,2.603760217896191
0.464249849319458,-0.02795088291168213,-0.21925729513168335,-0.14077991247177124,0.438612699508667,-0.5499958395957947,0.9227681756019592,-0.4768216324593254,1.5587765225070735,2.5991754634531903
0.47331881523132324,0.00434952974319458,-0.1778888702392578,-0.11170351505279541,0.48789823055267334,-0.642630934715271,1.0419352054595947,-0.46684947442657637,1.550471317845531,2.594066264060422
0.48342204093933105,0.042510032653808594,-0.09310784935951233,-0.06945544481277466,0.44817930459976196,-0.7145780920982361,1.0834245681762695,-0.45607578468146664,1.5414371660112325,2.589085466619074
0.49524497985839844,0.05004167556762695,-0.013703227043151855,0.013836745172739029,0.3632086515426636,-0.7783266305923462,1.1100988388061523,-0.4449250108170021,1.5321631175186057,2.5849854595703414
0.5036189556121826,0.06623178720474243,0.026207447052001953,0.09130358695983887,0.25085148215293884,-0.7930629849433899,1.0497844219207764,-0.4339219882687841,1.5229887457061961,2.5820264425699677
0.5135281085968018,0.0773770809173584,0.023693501949310303,0.12625569105148315,0.11868149042129517,-0.7627536654472351,0.9551883339881897,-0.4238006123849795,1.514633645596607,2.5806357377754594
0.5235288143157959,0.07020360231399536,0.03655293583869934,0.11728501319885254,0.09098221361637115,-0.7188650369644165,0.8544797897338867,-0.4146500982394993,1.5069610185141955,2.5801288147297345
0.533531904220581,0.05766564607620239,0.012673407793045044,0.07734692096710205,0.05977785959839821,-0.60487300157547,0.6831961870193481,-0.406910376505762,1.50017160602595,2.5798530215768576
0.5447039604187012,0.0293196439743042,-0.03391927480697632,0.03849423676729202,0.053147654980421066,-0.48497432470321655,0.5842304825782776,-0.4006132480005957,1.4947331715202232,2.5797753291183207
0.5535180568695068,0.011519014835357666,-0.015984386205673218,0.021219439804553986,0.05965527147054672,-0.3975968360900879,0.4996402859687805,-0.39512835095362203,1.4902341502762013,2.5796057167721793
0.5637071132659912,0.02059251070022583,0.009646296501159668,0.009996958076953888,0.026879748329520226,-0.2870540916919708,0.4277136027812958,-0.3905080481641926,1.4867870325448875,2.5795234382290304
0.5734870433807373,0.016806840896606445,0.040305525064468384,0.019850842654705048,0.03367530182003975,-0.22941555082798004,0.41372770071029663,-0.3862993223247789,1.4842737297224327,2.5796245110956963
0.5836830139160156,0.014516890048980713,0.0745973289012909,0.03505163639783859,0.014892825856804848,-0.1844312995672226,0.3618011176586151,-0.382376190044397,1.4822122073309572,2.5796526265138624
0.5947458744049072,0.015436351299285889,0.05533552169799805,0.04328273981809616,-0.07503343373537064,-0.14332371950149536,0.29940447211265564,-0.37911110730750636,1.4808368427324607,2.5802831127917605
0.603708028793335,0.012305021286010742,0.036522477865219116,0.05219757556915283,-0.14811989665031433,-0.146583691239357,0.257801353931427,-0.3764504995765051,1.4799560763409527,2.5817938046496463
0.6136391162872314,0.01861351728439331,0.03716695308685303,0.04601753503084183,-0.23388244211673737,-0.16253629326820374,0.19422483444213867,-0.3743308627784541,1.4792092235424674,2.5839932421298
0.6236510276794434,0.025883495807647705,0.022949188947677612,0.03326518088579178,-0.34060966968536377,-0.16644449532032013,0.15105579793453217,-0.37290130074107003,1.4787627704820265,2.5872785497283437
0.6335980892181396,0.019495904445648193,0.018299490213394165,0.03847295045852661,-0.4021424651145935,-0.17926596105098724,0.12524732947349548,-0.3718483667503884,1.4785161832240472,2.5913871348350264
0.645240068435669,0.011335611343383789,0.02560243010520935,0.03411424905061722,-0.4719979763031006,-0.16928230226039886,0.07962550967931747,-0.37121612467483506,1.4784839548868032,2.5961591704595244
0.6538619995117188,-0.006138443946838379,0.03330579400062561,0.02804499864578247,-0.5433787703514099,-0.15028375387191772,0.03166719898581505,-0.3711367970426877,1.4788938274809058,2.601670551905014
0.6640589237213135,-0.020634114742279053,0.038905441761016846,0.03502405434846878,-0.5922368764877319,-0.13057076930999756,-0.02108576148748398,-0.3715792594769656,1.4796940045681921,2.607759025733033
0.6737010478973389,-0.022549986839294434,0.04488155245780945,0.03592915087938309,-0.6389204859733582,-0.09814558923244476,-0.09147082269191742,-0.37268243576783283,1.4809161394179442,2.6142919705149605
0.6839010715484619,-0.019756436347961426,0.053029775619506836,0.03549236059188843,-0.6995729207992554,-0.0650680661201477,-0.16733549535274506,-0.37455082399409206,1.4826546159292997,2.6213294598020407
0.6968889236450195,-0.01797008514404297,0.06534990668296814,0.04275643825531006,-0.7916408777236938,-0.01618899032473564,-0.255130797624588,-0.3772999784334743,1.4850784896124425,2.629065085775183
0.7040131092071533,-0.016486763954162598,0.06781584024429321,0.047852516174316406,-0.9212142825126648,0.03672642260789871,-0.3380610942840576,-0.38096923514179615,1.4884996893071993,2.638018805857134
0.7141001224517822,-0.012000858783721924,0.06220117211341858,0.05721616744995117,-1.0442122220993042,0.08420450240373611,-0.4303011894226074,-0.3855753578142758,1.4929283249353311,2.6482571751097947
0.7239658832550049,-0.006055712699890137,0.0398421585559845,0.06449180096387863,-1.1576920747756958,0.13516809046268463,-0.5230441689491272,-0.39116965242468993,1.4983803848001755,2.6597502317632142
0.7338540554046631,-0.001783132553100586,0.02791959047317505,0.0633578896522522,-1.2389721870422363,0.18280591070652008,-0.5877922177314758,-0.39753853639966136,1.504828683029994,2.672328765310009
0.7460458278656006,0.0005421042442321777,0.041520655155181885,0.048618316650390625,-1.330512523651123,0.21634496748447418,-0.6311575174331665,-0.4044603693317418,1.5121011764895556,2.685820261376269
0.7539739608764648,-0.0009089112281799316,0.044749170541763306,0.03915882110595703,-1.3158572912216187,0.23695296049118042,-0.590104877948761,-0.4113157366657791,1.5200119004182242,2.7000243514069555
0.7641749382019043,0.0002105236053466797,0.02353695034980774,0.010971251875162125,-1.2751988172531128,0.25523316860198975,-0.6067419052124023,-0.4178702314407399,1.5280263504475553,2.7138448390446355
0.7740538120269775,0.0018905997276306152,-0.026329636573791504,-0.020789802074432373,-1.1799488067626953,0.27369990944862366,-0.6130695939064026,-0.4244755830469391,1.5361189405480156,2.727064337508419
0.7840468883514404,-0.002852022647857666,0.003269702196121216,-0.005536023527383804,-1.0765897035598755,0.22825759649276733,-0.590988278388977,-0.4308508936144876,1.5437354328956827,2.739241859208625
0.7957360744476318,0.016252219676971436,0.06907999515533447,0.02120596170425415,-1.048579216003418,0.1915254145860672,-0.5854314565658569,-0.43693959993698767,1.5506404509472231,2.750750433187728
0.803987979888916,0.037813425064086914,0.08670759201049805,0.05870211124420166,-1.1363036632537842,0.20546120405197144,-0.6480472087860107,-0.44324335632333767,1.557669881528479,2.762634374129146
0.8139660358428955,0.024154067039489746,0.0781548023223877,0.08162999153137207,-1.2687287330627441,0.23168405890464783,-0.7181509137153625,-0.4502058338175003,1.5655984729911911,2.7759308942013745
0.8239219188690186,-0.0011908411979675293,0.08602404594421387,0.10028541088104248,-1.384160041809082,0.3055471181869507,-0.7790608406066895,-0.4576640574921003,1.5747373103758766,2.7906875588274644
0.8339619636535645,0.004011034965515137,0.09145247936248779,0.09422588348388672,-1.532944679260254,0.398089200258255,-0.9038699269294739,-0.4659174854230209,1.5855502307007805,2.8071005607243613
0.845322847366333,0.007752895355224609,0.08346042037010193,0.10013163089752197,-1.6432347297668457,0.5014278292655945,-1.0289186239242554,-0.47526091692322076,1.5982529263858953,2.8251842272875254
0.8541090488433838,0.014790654182434082,0.10105887055397034,0.1098107099533081,-1.7357738018035889,0.6210594773292542,-1.1354445219039917,-0.4854930148962972,1.6128777604329645,2.84468648347761
0.8639659881591797,0.028684556484222412,0.13180741667747498,0.11119507998228073,-1.8061915636062622,0.7408846616744995,-1.257207989692688,-0.4965472588725734,1.6295013536104404,2.8654707438420037
0.8738949298858643,0.03680950403213501,0.13473588228225708,0.11017847061157227,-1.8625918626785278,0.8569121360778809,-1.3713421821594238,-0.5084230695689781,1.6480891620373976,2.887425144747324
0.8840680122375488,0.053243935108184814,0.12034758925437927,0.10193097591400146,-1.8903909921646118,0.976893424987793,-1.4818111658096313,-0.52099135855444,1.6685724542313165,2.9103532077667547
0.8952469825744629,0.0732240080833435,0.11831903457641602,0.09623397886753082,-1.9123421907424927,1.0940494537353516,-1.60498046875,-0.5342712387325255,1.6909586943549455,2.9342255333148426
0.9042708873748779,0.08847296237945557,0.13696330785751343,0.10790454596281052,-1.9565911293029785,1.2071053981781006,-1.7020742893218994,-0.5481242420513103,1.7153475253943904,2.959136200960539
0.9139609336853027,0.10554879903793335,0.1538042426109314,0.12818682193756104,-2.0781753063201904,1.3047292232513428,-1.804760217666626,-0.5622432172617016,1.7420117142965568,2.985835907439252
0.9246518611907959,0.1275131106376648,0.14261627197265625,0.1351822465658188,-2.1920554637908936,1.403854250907898,-1.9095052480697632,-0.5765597990662735,1.7712694909584696,3.0149143119436674
0.9341349601745605,0.1509498953819275,0.11504960060119629,0.11748360097408295,-2.2616591453552246,1.4890141487121582,-2.0050854682922363,-0.5909079537954643,1.8029535365746392,3.0460822528392835
0.9458458423614502,0.172346830368042,0.12282103300094604,0.08317588269710541,-2.2993550300598145,1.5725065469741821,-2.0793161392211914,-0.605100320579148,1.8367987513265043,3.0790075128064927
0.9540588855743408,0.19168353080749512,0.15921080112457275,0.06920447945594788,-2.3625998497009277,1.6643738746643066,-2.137345790863037,-0.6188426776633725,1.8728372302107528,3.1135549891052903
0.9645650386810303,0.2094535231590271,0.1593930721282959,0.08417946100234985,-2.437297821044922,1.7881144285202026,-2.200361728668213,-0.6318484553577247,1.9115239707562237,-3.1330733204365333
0.9740340709686279,0.21263432502746582,0.13887089490890503,0.1030346155166626,-2.4755666255950928,1.915987253189087,-2.2320632934570312,-0.6439276104524243,1.952971597006347,-3.0946060682294547
0.9843659400939941,0.2216823697090149,0.13559448719024658,0.08983206748962402,-2.50931715965271,2.0512139797210693,-2.265104055404663,-0.6548041753916268,1.9969561727104765,-3.0547099899931274
0.9960010051727295,0.24856895208358765,0.14639371633529663,0.08811914920806885,-2.5433034896850586,2.2240209579467773,-2.2971715927124023,-0.6643865253786339,2.043729279683181,-3.013291929507726
1.0042979717254639,0.2702658772468567,0.16988182067871094,0.12034052610397339,-2.5387163162231445,2.425945281982422,-2.3155477046966553,-0.6725272950722363,2.0933953156207465,-2.9707341029976875
1.0141561031341553,0.2969697117805481,0.20345574617385864,0.16156834363937378,-2.4904625415802,2.6429262161254883,-2.3455073833465576,-0.6792690635251497,2.1457918152614353,-2.9275291606950953
1.0242440700531006,0.3342127203941345,0.24261784553527832,0.2131991982460022,-2.3304505348205566,2.859158754348755,-2.371549367904663,-0.6850184426159049,2.2004492501353234,-2.88456741633959
1.0341651439666748,0.37634509801864624,0.28270095586776733,0.25471779704093933,-2.0860249996185303,3.0638182163238525,-2.387390613555908,-0.6903523376699218,2.2564623382673052,-2.843069072702146
1.045931100845337,0.41956543922424316,0.2993871569633484,0.2644045948982239,-1.831141710281372,3.2586464881896973,-2.4243905544281006,-0.6957165819996747,2.313515175532137,-2.803307457476663
1.0541119575500488,0.4473087787628174,0.28523343801498413,0.25828468799591064,-1.558212399482727,3.4692232608795166,-2.430636167526245,-0.7013270357667883,2.3716861585282887,-2.765221951441116
1.0644118785858154,0.46047601103782654,0.26799964904785156,0.253001868724823,-1.2881755828857422,3.6512603759765625,-2.4249298572540283,-0.7072226712774019,2.430695396384809,-2.7291729341291
1.0741441249847412,0.461039662361145,0.26311302185058594,0.2439572811126709,-1.0783047676086426,3.792555332183838,-2.440033197402954,-0.7133660302865824,2.490737463116828,-2.6942762224903984
1.0843660831451416,0.4412986636161804,0.24582797288894653,0.267910897731781,-0.8060424327850342,3.907278299331665,-2.3676509857177734,-0.7196952450854844,2.5511377047883723,-2.6610360320500925
1.0954921245574951,0.4274219274520874,0.2112409472465515,0.21648186445236206,-0.6264627575874329,4.000078201293945,-2.367417335510254,-0.7262416231129314,2.6117697393841715,-2.6292263078032536
1.1043198108673096,0.4076167047023773,0.1673089861869812,0.10176098346710205,-0.48356950283050537,4.077286243438721,-2.3504292964935303,-0.732691225985268,2.6731636935449465,-2.5978423215400346
1.1143810749053955,0.3656632900238037,0.15587329864501953,0.03451460599899292,-0.3866446316242218,4.13101863861084,-2.3164963722229004,-0.7386485315159234,2.7350802339049793,-2.5668206123528794
1.1246459484100342,0.3281339704990387,0.13652199506759644,0.019154727458953857,-0.2931045591831207,4.1732659339904785,-2.2964534759521484,-0.743969769272601,2.7974870747742373,-2.535991337319824
1.134925127029419,0.29944342374801636,0.08324790000915527,0.07264178991317749,-0.18649449944496155,4.198798179626465,-2.275991916656494,-0.7486744774974557,2.860237349751292,-2.505315408854828
1.1460399627685547,0.26819753646850586,0.06301748752593994,0.10552453994750977,-0.020679697394371033,4.221230506896973,-2.2714805603027344,-0.753304414548238,2.923175659893202,-2.4748282633263146
1.1543171405792236,0.24446368217468262,0.08624595403671265,0.08531612157821655,0.1332513391971588,4.222412586212158,-2.2487828731536865,-0.7580571919178802,2.986426687716138,-2.444317555793208
1.164376974105835,0.23841044306755066,0.10368245840072632,0.07993131875991821,0.23229430615901947,4.1640849113464355,-2.198570728302002,-0.76271717715096,3.0491323190773425,-2.4142687310103366
1.1743779182434082,0.2528539001941681,0.0674542784690857,-0.007081925868988037,0.2937582731246948,4.10312032699585,-2.2348954677581787,-0.7666342745540509,3.1116538992178224,-2.3837177654219706
1.1845581531524658,0.2556338906288147,-0.0279618501663208,-0.05279749631881714,0.410383939743042,4.041578769683838,-2.199169158935547,-0.7701613861350228,-3.1093130097360335,-2.3528944085892265
1.1950528621673584,0.23660100996494293,-0.07578080892562866,-0.09693986177444458,0.4845394194126129,3.995969295501709,-2.246955156326294,-0.7732453163292532,-3.0472347670087023,-2.3215974822471557
1.2043941020965576,0.234666645526886,-0.08393299579620361,-0.19193947315216064,0.48667898774147034,3.9269142150878906,-2.2855796813964844,-0.7752356841361474,-2.9848915672293392,-2.289172573371333
1.2144200801849365,0.26153185963630676,-0.09542030096054077,-0.1907472014427185,0.46171313524246216,3.8705801963806152,-2.269951343536377,-0.7757026393245626,-2.9230114651235364,-2.256552237526381
1.2244629859924316,0.32316821813583374,-0.060224711894989014,-0.14114290475845337,0.4677923321723938,3.808138132095337,-2.204653263092041,-0.7746218646665353,-2.8621632958486476,-2.224545521182802
1.2344191074371338,0.3677542805671692,-0.02521723508834839,-0.10321581363677979,0.5189874172210693,3.7120819091796875,-2.216022491455078,-0.7726541037653092,-2.8024887591800374,-2.193089108661671
1.2465178966522217,0.3824319541454315,-0.048605144023895264,-0.10295838117599487,0.5505112409591675,3.5571353435516357,-2.2060282230377197,-0.7696060818360715,-2.7440519962601404,-2.1614729470512217
1.2544910907745361,0.3906245827674866,-0.07563799619674683,-0.02654498815536499,0.4927015006542206,3.374577760696411,-2.171173334121704,-0.7654422299788443,-2.6879927300996926,-2.1307209447615025
1.26450514793396,0.4206426739692688,-0.08504575490951538,-0.03789341449737549,0.1706257164478302,3.234825849533081,-2.244493007659912,-0.7583466082588471,-2.6347202291282046,-2.1014291101017855
1.2743299007415771,0.4417865574359894,-0.1216590404510498,-0.03862130641937256,-0.18356378376483917,3.1300132274627686,-2.1846508979797363,-0.7469215414114949,-2.5849375598547666,-2.075269045372437
1.2844629287719727,0.4487794041633606,-0.14278215169906616,-0.023589730262756348,-0.4536743760108948,2.9679415225982666,-2.1298701763153076,-0.7324476833451221,-2.5395784528892658,-2.0532580108269296
1.2954390048980713,0.4738391637802124,-0.16022169589996338,-0.07443392276763916,-0.6999860405921936,2.8548789024353027,-2.119483232498169,-0.7152373864477896,-2.4982137127017157,-2.034755553986972
1.3046600818634033,0.48804497718811035,-0.11306649446487427,-0.06245237588882446,-0.7901843786239624,2.788102626800537,-2.117650032043457,-0.6962846486452503,-2.4596207516388415,-2.018819875425339
1.3144381046295166,0.4820149540901184,-0.0054512619972229,-0.03935140371322632,-0.7232140302658081,2.7208738327026367,-1.976667046546936,-0.6771317860288331,-2.423285506520272,-2.004989143600097
1.324509859085083,0.4555526375770569,0.03257787227630615,-0.06725674867630005,-0.6735119819641113,2.6747214794158936,-2.0047171115875244,-0.658701638828843,-2.3883406667266627,-1.9920922669962489
1.3345191478729248,0.4404117465019226,-0.004201948642730713,-0.14740324020385742,-0.504241943359375,2.685683250427246,-1.8850524425506592,-0.6406960409962007,-2.354032986443214,-1.9797915691779218
1.3455049991607666,0.4162098169326782,0.003714323043823242,-0.13917922973632812,-0.1924358606338501,2.6597824096679688,-1.8141897916793823,-0.6250122222687723,-2.3197249789368657,-1.9670554117130048
1.3545200824737549,0.3903999328613281,0.011534392833709717,-0.19052457809448242,0.07790577411651611,2.6010921001434326,-1.7309352159500122,-0.6112784130256508,-2.2852108229164516,-1.9529486464366475
1.3645308017730713,0.35234498977661133,0.024668097496032715,-0.11995488405227661,0.3978249132633209,2.536766290664673,-1.5877869129180908,-0.6001652278655044,-2.250803523584066,-1.9377530656617186
1.374561071395874,0.3229823708534241,0.04116523265838623,-0.13066726922988892,0.5410831570625305,2.4455316066741943,-1.4964264631271362,-0.5909464511429354,-2.2168541394645938,-1.921714894350254
1.3846180438995361,0.2926156520843506,-0.01073765754699707,-0.13837677240371704,0.6396996974945068,2.2821171283721924,-1.400815486907959,-0.5826547673462442,-2.1843167484374817,-1.9057318473011409
1.3951270580291748,0.28380805253982544,-0.06584542989730835,-0.12003102898597717,0.7522711753845215,2.1193413734436035,-1.2918848991394043,-0.575499844514325,-2.1535664314590717,-1.8897589885453892
1.4045698642730713,0.28180748224258423,-0.1439206600189209,-0.25025230646133423,0.7149235606193542,1.967343807220459,-1.230060338973999,-0.5688704343135712,-2.1246778897763132,-1.8742509647694952
1.4146430492401123,0.2840842008590698,-0.22034764289855957,-0.3566301167011261,0.5739547610282898,1.6898425817489624,-1.1161812543869019,-0.5620522937287851,-2.098920307905263,-1.8604780686160536
1.4246580600738525,0.30159902572631836,-0.23191016912460327,-0.29702872037887573,0.36983996629714966,1.366860032081604,-0.9491280317306519,-0.5555153663658687,-2.077768712341935,-1.8494838834690146
1.4347379207611084,0.30681246519088745,-0.24278444051742554,-0.2493320107460022,0.043188828974962234,1.0784965753555298,-0.8183672428131104,-0.5487528643196488,-2.0619068858484844,-1.8424397069578162
1.4460318088531494,0.2860204577445984,-0.2897353768348694,-0.2766462564468384,-0.17076660692691803,0.8415613174438477,-0.7166733741760254,-0.5415961810374933,-2.050498938475878,-1.8389873810106734
1.4547200202941895,0.26277846097946167,-0.3394349217414856,-0.37194234132766724,-0.23413445055484772,0.5721278190612793,-0.5884861350059509,-0.5348448930579595,-2.0427704613617763,-1.8377024044324166
1.4650790691375732,0.2553044557571411,-0.3273049592971802,-0.4039921164512634,-0.2066386491060257,0.283717542886734,-0.4695597290992737,-0.5291094007165079,-2.0382653931010055,-1.8372396346349729
1.4746978282928467,0.24057048559188843,-0.2621800899505615,-0.3493114709854126,-0.17893566191196442,0.07711587846279144,-0.317605197429657,-0.5248543468823944,-2.0366117937198247,-1.8372169378653647
1.4861648082733154,0.21240776777267456,-0.228261798620224,-0.32467812299728394,-0.25303545594215393,-0.10585207492113113,-0.21400637924671173,-0.521597711130684,-2.0371581519869166,-1.8380353910236968
1.4954841136932373,0.19720590114593506,-0.24939203262329102,-0.3140568435192108,-0.3403240442276001,-0.32127845287323,-0.11596807092428207,-0.5187803742233346,-2.040439331208514,-1.840265008761646
1.504699945449829,0.19491171836853027,-0.2625454068183899,-0.24291649460792542,-0.47635990381240845,-0.4683491289615631,-0.03474218398332596,-0.5162875640097172,-2.046314828774021,-1.844036903595261
1.514880895614624,0.16420871019363403,-0.2476942539215088,-0.1850111484527588,-0.5765978097915649,-0.5549667477607727,0.02611493319272995,-0.513827899178772,-2.054130210566984,-1.849424670259054
1.5249440670013428,0.11617368459701538,-0.20715001225471497,-0.1288529932498932,-0.6691769957542419,-0.6047505140304565,0.09053599834442139,-0.5114098580071994,-2.063232276614077,-1.8560863958424485
1.5347168445587158,0.07658004760742188,-0.16657507419586182,-0.07539808750152588,-0.6893795728683472,-0.609112024307251,0.12027280777692795,-0.5090994844078076,-2.0730114144009315,-1.8635733443158264
1.5451748371124268,0.047747254371643066,-0.13208311796188354,-0.05303993821144104,-0.6729161739349365,-0.5998362302780151,0.14860643446445465,-0.5069259350187539,-2.0827626669291344,-1.8711774097573721
1.554772138595581,0.02454906702041626,-0.09346294403076172,-0.018507301807403564,-0.5840356349945068,-0.5751725435256958,0.1712440550327301,-0.5052332969421998,-2.0921591425616204,-1.8783567050052965
1.5648260116577148,0.010345160961151123,-0.029836714267730713,0.029101788997650146,-0.530826210975647,-0.5136838555335999,0.14770729839801788,-0.503842297695515,-2.100738962712664,-1.8847641044358658
1.5747289657592773,-0.016386687755584717,0.003397136926651001,0.04100930690765381,-0.49427250027656555,-0.4483368992805481,0.14600400626659393,-0.5024835633014685,-2.1084025979446204,-1.890676422259722
1.5851209163665771,-0.03858816623687744,0.02087673544883728,0.06347376108169556,-0.4866713285446167,-0.37427863478660583,0.12500791251659393,-0.5011686961026567,-2.1152130668931557,-1.8962460775390741
1.5952088832855225,-0.047240257263183594,0.039869725704193115,0.06413388252258301,-0.48930883407592773,-0.3053182065486908,0.10540501028299332,-0.49959085522297353,-2.121240179150875,-1.9017301761347074
1.6049158573150635,-0.05333292484283447,0.05090808868408203,0.04901781678199768,-0.44549477100372314,-0.2538292109966278,0.08560014516115189,-0.4979502960447164,-2.1265010616329874,-1.90685790176673
1.6149230003356934,-0.05566304922103882,0.060313522815704346,0.0342441201210022,-0.3846517503261566,-0.19835320115089417,0.06800602376461029,-0.49638104324913024,-2.1309055788905145,-1.911336761890849
1.624804973602295,-0.06172233819961548,0.08193150162696838,0.03185999393463135,-0.2765601873397827,-0.15708938241004944,0.07242687046527863,-0.4952230387568883,-2.134411128801507,-1.9149883445696079
1.6350159645080566,-0.05935710668563843,0.1000453531742096,0.02288895845413208,-0.15936756134033203,-0.12353147566318512,0.06385134160518646,-0.49463167694659915,-2.1370197244530362,-1.9174984491331795
1.645232915878296,-0.0462496280670166,0.09695252776145935,-0.01743018627166748,-0.05002668499946594,-0.12806417047977448,0.06479010730981827,-0.49459159711812706,-2.138924997115821,-1.918900440328137
1.654811143875122,-0.02770066261291504,0.10303673148155212,-0.02141118049621582,0.04760528355836868,-0.1431163102388382,0.08001513034105301,-0.4952205718968358,-2.1404982683511564,-1.9193230745616057
1.6656270027160645,-0.011769473552703857,0.10773980617523193,-0.018865346908569336,0.08350735157728195,-0.13793937861919403,0.08305246382951736,-0.4962747878560535,-2.141856468844999,-1.9191825467450634
1.6749389171600342,-0.0032078027725219727,0.08171853423118591,-0.060306698083877563,0.11320086568593979,-0.1569730043411255,0.10614591091871262,-0.4975996790828224,-2.143142399971304,-1.9188167314391718
1.685960054397583,0.010853052139282227,0.03551730513572693,-0.09118726849555969,0.1312035769224167,-0.22052907943725586,0.12357203662395477,-0.49924734221031386,-2.1448126576807303,-1.9183716845662533
1.6951639652252197,0.03805726766586304,0.010489106178283691,-0.09276142716407776,0.15126897394657135,-0.2810008227825165,0.1576671451330185,-0.5011992854642873,-2.1471035431119865,-1.917868986825146
1.7052218914031982,0.0546688437461853,0.0044158995151519775,-0.09517139196395874,0.13204334676265717,-0.343766987323761,0.19667980074882507,-0.5034801560452727,-2.1501014489819013,-1.9176111738850965
1.7151358127593994,0.06755173206329346,-0.01756635308265686,-0.11484485864639282,0.08013767004013062,-0.443013072013855,0.23273645341396332,-0.5058618785644082,-2.154184869113416,-1.9179382680817454
1.7253129482269287,0.08935093879699707,-0.05387577414512634,-0.11276715993881226,0.022920990362763405,-0.5520687103271484,0.28040993213653564,-0.5082808148429306,-2.1597461280010815,-1.9190883970027988
1.735342025756836,0.10639351606369019,-0.07898351550102234,-0.12099811434745789,-0.011588665656745434,-0.6447984576225281,0.3346422016620636,-0.5108581995035584,-2.1666874523698656,-1.921015704939472
1.7476320266723633,0.1120036244392395,-0.09504649043083191,-0.15158319473266602,-0.029806552454829216,-0.7527289390563965,0.37833961844444275,-0.5136890560525351,-2.1749122346737084,-1.9235386785371393
1.7549819946289062,0.11766862869262695,-0.09987708926200867,-0.15001344680786133,-0.0524386428296566,-0.8758372664451599,0.42642560601234436,-0.516785555648231,-2.1845605000458885,-1.9265561149686958
1.7651870250701904,0.12115752696990967,-0.08934518694877625,-0.11593496799468994,-0.1276756078004837,-0.9625162482261658,0.4591004550457001,-0.5198906629170815,-2.1956741208703936,-1.9303351346604822
1.7749688625335693,0.1110391616821289,-0.0918441116809845,-0.10097169876098633,-0.19179598987102509,-1.0228631496429443,0.499349445104599,-0.5228077785847185,-2.207999450579154,-1.9351197410836687
1.785041093826294,0.1003071665763855,-0.10489815473556519,-0.1242266297340393,-0.26838555932044983,-1.124629259109497,0.4740526080131531,-0.5253722128542015,-2.2214762267007706,-1.9406156630329934
1.7966721057891846,0.10540109872817993,-0.09563738107681274,-0.10589045286178589,-0.3277529776096344,-1.2327631711959839,0.4861772656440735,-0.5273150709372059,-2.236409203227253,-1.9467615466614683
1.8052260875701904,0.10165756940841675,-0.03731215000152588,0.003635883331298828,-0.3902059495449066,-1.241960883140564,0.4956464171409607,-0.5289332776733727,-2.2522851450863497,-1.9535562969459837
1.8152379989624023,0.06949198246002197,-0.013323307037353516,-0.01891624927520752,-0.3991504907608032,-1.2184014320373535,0.5159481763839722,-0.5302567171673311,-2.268299847946034,-1.9609082692142583
1.8257629871368408,0.04872786998748779,-0.05229419469833374,-0.12001252174377441,-0.2492574155330658,-1.2367796897888184,0.5582551956176758,-0.5321859872457358,-2.284106031716672,-1.9678913379857432
1.8350629806518555,0.07262349128723145,-0.07598048448562622,-0.22194421291351318,0.02102472074329853,-1.29897141456604,0.5868967771530151,-0.5357363984615136,-2.2995731472475938,-1.9733434639219996
1.8458168506622314,0.10088109970092773,-0.04839611053466797,-0.270388662815094,0.3031719923019409,-1.365770697593689,0.665229082107544,-0.5414286178824712,-2.314695559310009,-1.9768082210432885
1.8552849292755127,0.10057443380355835,-0.011052548885345459,-0.20214945077896118,0.5432318449020386,-1.4144415855407715,0.7527415156364441,-0.5495975904569651,-2.329681187148439,-1.978818733180608
1.867008924484253,0.08265149593353271,-0.02782130241394043,-0.17150837182998657,0.6258692145347595,-1.4415658712387085,0.8225911855697632,-0.5593783234715921,-2.344703368717539,-1.9802012392249955
1.8752410411834717,0.06661218404769897,-0.10174775123596191,-0.1684301495552063,0.553682267665863,-1.5130012035369873,0.8552215099334717,-0.5696705464817678,-2.3605220355188954,-1.9821948473588062
1.8851311206817627,0.08153986930847168,-0.1317042112350464,-0.0974729061126709,0.28271710872650146,-1.6093474626541138,0.8830305337905884,-0.5787247229650302,-2.3782505150765045,-1.9860272088687942
1.8955471515655518,0.08851677179336548,-0.10407441854476929,0.07219266891479492,-0.034086719155311584,-1.632323145866394,0.9337614178657532,-0.5859096048618199,-2.3983543767383657,-1.992963971664959
1.9057049751281738,0.06983864307403564,-0.09312951564788818,0.09524863958358765,-0.32902008295059204,-1.6030371189117432,0.9448990225791931,-0.5907836356749275,-2.420076603666309,-2.0029081066534395
1.9152381420135498,0.04910683631896973,-0.14629340171813965,-0.027398884296417236,-0.3500971794128418,-1.6176660060882568,0.9777652025222778,-0.5942997947627047,-2.44265827237278,-2.014530946926474
1.925225019454956,0.06870448589324951,-0.14887303113937378,-0.1371973752975464,-0.06999709457159042,-1.67221999168396,1.0273492336273193,-0.5989488651698626,-2.4653582747463476,-2.0256433272997696
1.9352390766143799,0.10258358716964722,-0.08036112785339355,-0.22832995653152466,0.2765577733516693,-1.7282660007476807,1.0589401721954346,-0.6062091694006324,-2.487585275852832,-2.0348150257718642
1.945518970489502,0.1118381917476654,-0.004785716533660889,-0.22177565097808838,0.5778278708457947,-1.7730693817138672,1.1607810258865356,-0.6163284603678651,-2.509525168078817,-2.0424698296639368
1.9552149772644043,0.10293051600456238,0.00804358720779419,-0.16372936964035034,0.7026469707489014,-1.7760580778121948,1.2589586973190308,-0.6287478281818514,-2.5316651967372197,-2.049947520504687
1.9651579856872559,0.08824491500854492,-0.07025206089019775,-0.18185073137283325,0.6417045593261719,-1.7942030429840088,1.3048624992370605,-0.641565443273634,-2.5544874119608436,-2.0583540301374845
1.9753010272979736,0.08336758613586426,-0.14785051345825195,-0.1178928017616272,0.5818202495574951,-1.873538851737976,1.4027752876281738,-0.6540896299160721,-2.5789161115645,-2.0684358443643647
1.9859950542449951,0.10108232498168945,-0.14801985025405884,-0.04114812612533569,0.4451172351837158,-1.9292702674865723,1.442531704902649,-0.6659901979211296,-2.6053344981883924,-2.080413120670375
1.9968879222869873,0.1124834418296814,-0.1213449239730835,-0.06356674432754517,0.2921215891838074,-1.9659357070922852,1.471481204032898,-0.6764118416395828,-2.633437606230594,-2.0942507269506216
2.0051870346069336,0.10160797834396362,-0.10472553968429565,-0.05411970615386963,0.1022413969039917,-2.0134968757629395,1.4331036806106567,-0.6851662051957456,-2.662996347640905,-2.109516082165591
2.0153191089630127,0.09953117370605469,-0.10232257843017578,-0.024479389190673828,-0.15862254798412323,-2.040287494659424,1.4456826448440552,-0.6912612001278464,-2.693973008668445,-2.126314936602506
2.0252809524536133,0.10468029975891113,-0.05023127794265747,0.067660391330719,-0.2794983983039856,-2.0644519329071045,1.4403108358383179,-0.6952712458343755,-2.7262823081252363,-2.144701008867995
2.035324811935425,0.11561134457588196,0.011281132698059082,0.06227391958236694,-0.24955272674560547,-2.04667592048645,1.429433822631836,-0.6982502924063434,-2.758822763614108,-2.1632982735438953
2.0472028255462646,0.10765144228935242,0.026705622673034668,0.008027195930480957,0.030029384419322014,-1.996407151222229,1.4689021110534668,-0.7023039297421069,-2.7908733562678223,-2.181606277884553
2.055864095687866,0.10470207035541534,0.05624568462371826,-0.08926790952682495,0.5173859596252441,-1.9349324703216553,1.5124727487564087,-0.7096841935588596,-2.821814021303812,-2.198972692468998
2.065778970718384,0.10318927466869354,0.06896710395812988,-0.20548421144485474,1.1425994634628296,-1.8840858936309814,1.5937385559082031,-0.7222091655466395,-2.8516779673282113,-2.2153343297955206
2.075387954711914,0.10085107386112213,0.06217372417449951,-0.27761977910995483,1.7600836753845215,-1.8337509632110596,1.744381308555603,-0.7407700640672829,-2.881135041633386,-2.231565954144764
2.085334062576294,0.10240420699119568,0.04144930839538574,-0.3206093907356262,2.2289087772369385,-1.8113044500350952,1.930194616317749,-0.7647348296628196,-2.9115179588378095,-2.2493591653077343
2.096125841140747,0.10664539039134979,-0.0013297796249389648,-0.3408363461494446,2.509763240814209,-1.8095382452011108,2.106415271759033,-0.7923318112275392,-2.9441054321113005,-2.2699933498198774
2.105360984802246,0.11020375788211823,-0.1071283221244812,-0.31916552782058716,2.3863742351531982,-1.792346477508545,2.2047054767608643,-0.820702204704555,-2.9797886916136465,-2.2943974226819486
2.1171748638153076,0.11402186006307602,-0.229092538356781,-0.22157055139541626,1.6443959474563599,-1.8088314533233643,2.1945366859436035,-0.844098792870123,-3.0184698125521865,-2.322382014614479
2.1253669261932373,0.12338033318519592,-0.2581098675727844,0.0805625319480896,0.6843631267547607,-1.9440561532974243,2.3648812770843506,-0.8580032776143595,-3.0616176742937538,-2.354851177769234
2.135488986968994,0.15618202090263367,-0.2353551983833313,0.3867146372795105,-0.1686566025018692,-2.1119065284729004,2.4843955039978027,-0.8617858448920961,-3.1101235569262524,-2.392002906716763
2.1458470821380615,0.20163984596729279,-0.2611050009727478,0.39928239583969116,-0.6653180122375488,-2.2180087566375732,2.44289493560791,-0.8574966408642388,3.122624961642021,-2.429882654733282
2.1554629802703857,0.192330002784729,-0.2586716413497925,0.2857487201690674,-0.6245821118354797,-2.2993409633636475,2.449295997619629,-0.8495698746964124,3.0723625116566042,-2.466560034800976
2.165701150894165,0.1602211594581604,-0.08404827117919922,0.15532797574996948,-0.04205344617366791,-2.3472743034362793,2.5218820571899414,-0.8436714302837588,3.02146142652175,-2.5034305619512716
2.17545485496521,0.1481959968805313,0.14637458324432373,0.0009669661521911621,0.8121421933174133,-2.3904693126678467,2.5759317874908447,-0.8436252803790969,2.9687671585775486,-2.5422881094799203
2.1855809688568115,0.13777610659599304,0.27285927534103394,-0.14914411306381226,1.6743640899658203,-2.4309699535369873,2.6578307151794434,-0.8507400188108137,2.91272429994387,-2.584819502488473
2.1961100101470947,0.11827045679092407,0.235795795917511,-0.22476273775100708,2.3373217582702637,-2.4316952228546143,2.7942864894866943,-0.8632083207869966,2.8519389281698535,-2.63300691399492
2.205561876296997,0.09097720682621002,0.07152014970779419,-0.23419207334518433,2.5914268493652344,-2.329867362976074,2.7475738525390625,-0.8782469178528362,2.787029545922423,-2.6865695326900676
2.215749979019165,0.0658852756023407,-0.15671873092651367,-0.20988452434539795,1.9958045482635498,-2.143907070159912,2.477170705795288,-0.8901099434682612,2.7243351211990134,-2.7387178512303025
2.2260358333587646,0.05267536640167236,-0.2598996162414551,-0.07275450229644775,0.9816287755966187,-2.078310251235962,2.455430507659912,-0.8930997847297856,2.6679789372899654,-2.7840833501498565
2.235758066177368,0.09333595633506775,-0.17129546403884888,0.20639848709106445,0.09164533019065857,-2.136072874069214,2.637972831726074,-0.8854272420179338,2.616229790819543,-2.8235728402095526
2.249683141708374,0.1679946780204773,-0.07251042127609253,0.373910129070282,-0.44551265239715576,-2.2063307762145996,2.6307287216186523,-0.8698810792424337,2.56845350541406,-2.8573405320400616
2.257582902908325,0.17798122763633728,-0.05402344465255737,0.3507804870605469,-0.5934978723526001,-2.1796579360961914,2.5149691104888916,-0.8509155468924595,2.5252080042524656,-2.8853488237311065
2.2667689323425293,0.13717815279960632,0.018692195415496826,0.23429149389266968,-0.29693809151649475,-2.1382782459259033,2.460529327392578,-0.8323300634331174,2.484381004839843,-2.911148115927887
2.275700807571411,0.12230342626571655,0.1822497844696045,0.10765296220779419,0.287314772605896,-2.145751953125,2.451477527618408,-0.816800426060229,2.442376368658561,-2.9392042686271305
2.285653829574585,0.15058526396751404,0.31962597370147705,0.03603518009185791,0.9160692691802979,-2.1888365745544434,2.4901137351989746,-0.8050137107606705,2.3969318346665016,-2.971961253255531
2.2959678173065186,0.1820632517337799,0.36588847637176514,0.016105830669403076,1.405178427696228,-2.18060564994812,2.5467922687530518,-0.7959017319452916,2.3478850463642544,-3.0097036013979697
2.3057799339294434,0.18970239162445068,0.31484609842300415,0.029528915882110596,1.6390104293823242,-2.094560384750366,2.598296642303467,-0.7876079914259272,2.2972551487938877,-3.0507978913823792
2.3173699378967285,0.17536360025405884,0.22001224756240845,0.08524084091186523,1.6382076740264893,-2.051621198654175,2.615281105041504,-0.7783092117325543,2.2471629504900603,-3.0924032629292784
2.325698137283325,0.14825111627578735,0.14986789226531982,0.17148810625076294,1.421531319618225,-1.984470009803772,2.5813024044036865,-0.7669934040950679,2.1995119299375605,-3.131661612996854
2.3357620239257812,0.1314936876296997,0.11200916767120361,0.25324660539627075,1.0821592807769775,-1.8630058765411377,2.531586170196533,-0.7531428625079684,2.156570308078269,3.1171946119885185
2.3461358547210693,0.12681692838668823,0.13572698831558228,0.3442843556404114,0.8126322031021118,-1.7348071336746216,2.513843059539795,-0.7368813827914387,2.1187181785336513,3.087928588801424
2.355694055557251,0.13411325216293335,0.19017839431762695,0.3837941884994507,0.6852056980133057,-1.6185733079910278,2.4645488262176514,-0.7191080444182525,2.084988557395778,3.062464278558319
2.3657491207122803,0.14864367246627808,0.24305713176727295,0.3565007150173187,0.7822003960609436,-1.5080361366271973,2.412421703338623,-0.7011088244919718,2.0538710211026774,3.038746860320185
2.375762939453125,0.16372567415237427,0.2690284848213196,0.293119341135025,1.0425246953964233,-1.3928362131118774,2.3411591053009033,-0.6839186912319988,2.0236869963940944,3.0142275937811163
2.3861138820648193,0.17605990171432495,0.24902456998825073,0.20347750186920166,1.3115971088409424,-1.2838863134384155,2.190992593765259,-0.6683267153752565,1.9939519745439913,2.9881335165422658
2.3959269523620605,0.17818576097488403,0.20255881547927856,0.13225817680358887,1.4871604442596436,-1.1547164916992188,2.002814769744873,-0.6546392025980877,1.9651937381369111,2.9611738997155927
2.4058048725128174,0.17552274465560913,0.1619197130203247,0.07908737659454346,1.6197755336761475,-1.0411025285720825,1.842800259590149,-0.6425636034647433,1.9378448127899495,2.9341007609407277
2.4158718585968018,0.16870546340942383,0.14246666431427002,0.05360579490661621,1.744543194770813,-0.9338497519493103,1.724518060684204,-0.6316650082139164,1.9116503482219356,2.9067120408157248
2.425884962081909,0.14821606874465942,0.13353538513183594,0.04116973280906677,1.7844797372817993,-0.8017186522483826,1.595507025718689,-0.6216302149802967,1.886903228903205,2.879358834353782
2.4359569549560547,0.11307728290557861,0.13734322786331177,0.03279983997344971,1.719963550567627,-0.6637825965881348,1.4677232503890991,-0.6122848051196687,1.8644110116187003,2.853143153040463
2.446057081222534,0.08430004119873047,0.1303246021270752,0.04218938946723938,1.5798897743225098,-0.552440881729126,1.3781224489212036,-0.6032508759770896,1.8445271437699637,2.8289301833335534
2.4558908939361572,0.0756380558013916,0.11758971214294434,0.06557200849056244,1.3746590614318848,-0.4848557114601135,1.3120197057724,-0.5941367415374477,1.8271938741205969,2.8073388516274713
2.4657061100006104,0.07525056600570679,0.12133228778839111,0.084981769323349,1.1652791500091553,-0.43567031621932983,1.2439777851104736,-0.5848614190519452,1.8122248534017373,2.7887180810713126
2.475850820541382,0.06362664699554443,0.11837989091873169,0.08641491830348969,0.9792051911354065,-0.3811614215373993,1.1892338991165161,-0.575510984879196,1.799446267495307,2.7728820814086372
2.4858500957489014,0.0438159704208374,0.09991425275802612,0.06237412989139557,0.8766734600067139,-0.33173874020576477,1.1439998149871826,-0.5661569221422942,1.7884421804346644,2.7591172767163017
2.497028112411499,0.02411329746246338,0.0885155200958252,0.030724525451660156,0.8447717428207397,-0.3091871738433838,1.1128039360046387,-0.5569094464959399,1.7784661334179028,2.7463663593454775
2.5059099197387695,0.013388752937316895,0.08271336555480957,0.0002903938293457031,0.83316570520401,-0.3196784257888794,1.0905146598815918,-0.5477904859901972,1.7688835281919557,2.7341050837761083
2.5159659385681152,0.004948854446411133,0.07143574953079224,-0.01814591884613037,0.8524364233016968,-0.343290239572525,1.0870428085327148,-0.5387013042824924,1.7593311780264786,2.722036696735928
2.5259830951690674,-0.0029205679893493652,0.044074177742004395,-0.027820587158203125,0.8943516612052917,-0.36620035767555237,1.0587248802185059,-0.5296980276273664,1.7494889835240106,2.7097233833144085
2.5359950065612793,-0.020000576972961426,0.01609942317008972,-0.027980566024780273,0.7978072166442871,-0.3801048696041107,0.9873245358467102,-0.5210618612189655,1.7398256136866177,2.6979275963426907
2.546205997467041,-0.03303498029708862,0.027623027563095093,-0.013189449906349182,0.6680670976638794,-0.37585553526878357,0.9271913766860962,-0.5128260353318073,1.731034534554403,2.6878067134976726
2.55594801902771,-0.028693675994873047,0.05711778998374939,0.016218051314353943,0.5301812887191772,-0.37117987871170044,0.9055618047714233,-0.5046848552210025,1.7232041488562546,2.679393050869926
2.5660409927368164,-0.011830151081085205,0.07749104499816895,0.05156111717224121,0.4353051781654358,-0.38601741194725037,0.8722084164619446,-0.4965764422951472,1.7160974103136308,2.6724791419135436
2.5759730339050293,0.0024662017822265625,0.1018785834312439,0.08859407156705856,0.36680135130882263,-0.4075300395488739,0.8239126801490784,-0.48872669306859357,1.7093376174925285,2.6665938872913175
2.5860159397125244,0.008366703987121582,0.1172429621219635,0.11790060997009277,0.30924272537231445,-0.44125792384147644,0.7533839344978333,-0.4813286317671744,1.7027729179272058,2.661626526018159
2.5964739322662354,0.008190453052520752,0.12188449501991272,0.13263273239135742,0.25646698474884033,-0.45488497614860535,0.6668445467948914,-0.4746233388438951,1.6963365446549208,2.65743133096341
2.6061959266662598,0.006760597229003906,0.10578298568725586,0.12812590599060059,0.23454861342906952,-0.45536649227142334,0.5729902386665344,-0.46875190695761265,1.6901407668943964,2.6538828114550292
2.616381883621216,0.0013027787208557129,0.08154410123825073,0.10172617435455322,0.22804276645183563,-0.4244573414325714,0.4748464822769165,-0.4637727834691302,1.6842605717930381,2.650589387010917
2.6259639263153076,-0.005135774612426758,0.06901437044143677,0.06928455084562302,0.21386702358722687,-0.3785814642906189,0.3804243803024292,-0.45976998041392614,1.6788958241177065,2.6476278233373347
2.636197805404663,-0.008087158203125,0.07593968510627747,0.04983914643526077,0.19293460249900818,-0.32788407802581787,0.3258393406867981,-0.4564719508132657,1.6741616227410367,2.644925720565575
2.646260976791382,-0.004540085792541504,0.08931276202201843,0.03790830820798874,0.12301436811685562,-0.2914555072784424,0.2725273668766022,-0.4536278436739161,1.6701252644318183,2.6427938948363066
2.6561081409454346,0.0012952089309692383,0.092629075050354,0.03767942637205124,0.029671020805835724,-0.24187102913856506,0.22340776026248932,-0.45122993526745303,1.6669595741076522,2.6416892396009586
2.6661131381988525,0.0026198625564575195,0.08157852292060852,0.04736923426389694,-0.04701336845755577,-0.17904625833034515,0.18099719285964966,-0.4491828365183627,1.664804761188305,2.641581509371762
2.676079034805298,-0.0027436017990112305,0.07393017411231995,0.04784618318080902,-0.07447055727243423,-0.13462179899215698,0.15679225325584412,-0.4474428709221063,1.6634805187938886,2.6421421508245806
2.686084032058716,-0.009332418441772461,0.07555040717124939,0.03866814821958542,-0.04748794436454773,-0.10554727166891098,0.13076943159103394,-0.44590022596883705,1.662503103557187,2.642647450989725
2.696294069290161,-0.01619809865951538,0.06439414620399475,0.01174115389585495,-0.05784301459789276,-0.06848539412021637,0.09117372334003448,-0.44475278552948544,1.6618193298508206,2.643123637940103
2.7061989307403564,-0.023715317249298096,0.04759424924850464,0.006372086703777313,-0.036736663430929184,-0.051795363426208496,0.08282497525215149,-0.44384017474923887,1.66143817200494,2.6435743144914103
2.7162930965423584,-0.022704005241394043,0.04495197534561157,0.014693744480609894,-0.01483094785362482,-0.05943441763520241,0.06663508713245392,-0.44304912211931746,1.660956810877242,2.643787814650413
2.726209878921509,-0.01604539155960083,0.04808014631271362,0.029414884746074677,-0.0026789437979459763,-0.05980725958943367,0.0484590120613575,-0.4424578587556776,1.660375972112356,2.6438213047842045
2.7361629009246826,-0.014650225639343262,0.05758044123649597,0.047579772770404816,0.02072133682668209,-0.06059453636407852,0.04354468360543251,-0.44199178383591153,1.6597044937094572,2.6436856284635555
2.7462518215179443,-0.0161779522895813,0.06642192602157593,0.0630805492401123,0.052089642733335495,-0.05156455561518669,0.02597207948565483,-0.4416636660987673,1.6589475122361095,2.6432423072057594
2.756389856338501,-0.018880367279052734,0.07089614868164062,0.07046806067228317,0.051975496113300323,-0.056692831218242645,0.0034508993849158287,-0.44155860295630367,1.6581442816454612,2.642647431588872
2.7663350105285645,-0.020767688751220703,0.06673455238342285,0.06634235382080078,0.05571084842085838,-0.05889180302619934,-0.019767869263887405,-0.44165540845634454,1.6572907034614863,2.642019252076008
2.776196002960205,-0.019217848777770996,0.035682618618011475,0.04801500588655472,0.00717173982411623,-0.03416328504681587,-0.06792405247688293,-0.4425167754025691,1.6568023901429916,2.641754410490696
2.78620982170105,-0.020337164402008057,0.0010699033737182617,0.03427528589963913,-0.040070075541734695,0.002926559653133154,-0.09277374297380447,-0.4437053774093496,1.6568754728799948,2.642068816040498
2.7963640689849854,-0.021310150623321533,-0.001216977834701538,0.027129754424095154,-0.0722275897860527,0.021119190379977226,-0.11110076308250427,-0.4450720989503369,1.657632347966811,2.6429336331895255
2.8064568042755127,-0.013048648834228516,0.005661278963088989,0.020223982632160187,-0.09307801723480225,0.038923487067222595,-0.12624403834342957,-0.4465135583963092,1.6589588387195517,2.644220712424041
2.8162548542022705,-0.005467236042022705,0.007354021072387695,0.024303309619426727,-0.11204180121421814,0.057568591088056564,-0.14213629066944122,-0.4481223048260647,1.6609420243475805,2.645899691904473
2.8262598514556885,-0.0043860673904418945,0.0045618414878845215,0.0300663560628891,-0.13443899154663086,0.07743097841739655,-0.16784511506557465,-0.44995136107112293,1.6635455487618456,2.6479656077082376
2.836416006088257,-0.0036391615867614746,-0.001208275556564331,0.036192893981933594,-0.13669255375862122,0.09598273038864136,-0.18233099579811096,-0.452005404796488,1.6665258412638058,2.6502653968586776
2.846419095993042,-0.0007361769676208496,-0.005206435918807983,0.0341789647936821,-0.11340054869651794,0.10796242952346802,-0.17898260056972504,-0.45411017890042427,1.6695243678594214,2.6524190049657332
2.8564040660858154,0.005359828472137451,-0.007549196481704712,0.02371000498533249,-0.07066904008388519,0.12842531502246857,-0.18296904861927032,-0.4560048713335822,1.6721115432958786,2.6540328328290608
2.869826078414917,0.005765318870544434,-0.01146736741065979,0.009809836745262146,-0.032179176807403564,0.14959904551506042,-0.18009522557258606,-0.45766731243252784,1.6743997859856707,2.6550522578258717
2.87992000579834,0.004524171352386475,-0.00913703441619873,0.004452571272850037,0.015466105192899704,0.15544308722019196,-0.16211488842964172,-0.45927159177479476,1.676417945060938,2.65551967083908
2.8884308338165283,0.007930517196655273,-0.005377262830734253,0.005966655910015106,0.04380000755190849,0.15503083169460297,-0.15613237023353577,-0.4608315307170576,1.6780379294524277,2.655418302807995
2.8977949619293213,0.009882032871246338,-0.014188796281814575,0.006557092070579529,0.05646679922938347,0.1654568314552307,-0.15487243235111237,-0.4623562842591886,1.6797197243226551,2.6551578381267293
2.9062299728393555,0.006522834300994873,-0.02664005756378174,0.009019613265991211,0.050962578505277634,0.1738729625940323,-0.153480663895607,-0.4637891048069143,1.6817654149374004,2.654980117746166
2.9163968563079834,0.005790829658508301,-0.034243881702423096,0.005738601088523865,0.039360783994197845,0.17129288613796234,-0.15493634343147278,-0.46509162212072924,1.6842093576165755,2.6550500564306927
2.9264118671417236,0.0077849626541137695,-0.03910455107688904,-0.0013216808438301086,0.03525365889072418,0.16890136897563934,-0.14419367909431458,-0.46627936697628436,1.686593646386286,2.6551721804242954
2.936483144760132,0.012015342712402344,-0.048638343811035156,-0.013617515563964844,0.020847804844379425,0.16476623713970184,-0.14217831194400787,-0.46738678618096685,1.688617417332333,2.6552359688694627
2.9464128017425537,0.012459993362426758,-0.053593456745147705,-0.021932587027549744,0.015300173312425613,0.16574521362781525,-0.13223594427108765,-0.4684423582012337,1.6902293876113499,2.655208576435261
2.9564268589019775,0.009397566318511963,-0.05002015829086304,-0.025868043303489685,0.00839118380099535,0.16168412566184998,-0.1255534142255783,-0.4694656043993827,1.6916861116786739,2.655145954926796
2.9666011333465576,0.010138630867004395,-0.046162545680999756,-0.026297196745872498,0.01035286858677864,0.15272924304008484,-0.11862068623304367,-0.47046144159013314,1.693129457281489,2.655134255795805
2.9766359329223633,0.01158517599105835,-0.041797131299972534,-0.018040060997009277,0.016686031594872475,0.13798987865447998,-0.10687645524740219,-0.47124741206075094,1.6944703515260415,2.6550825954138237
2.9867618083953857,0.015019118785858154,-0.036228448152542114,-0.010373353958129883,0.02194763906300068,0.12384983152151108,-0.10205826908349991,-0.47181350188689797,1.6957588909296974,2.655010667699198
2.997563123703003,0.015983223915100098,-0.03674328327178955,-0.0094221830368042,0.029213307425379753,0.12027985602617264,-0.10146353393793106,-0.4722887496097158,1.6968715416320674,2.6548522662572824
3.0067009925842285,0.01476973295211792,-0.04782599210739136,-0.01448119431734085,0.044390663504600525,0.12348204106092453,-0.0967516079545021,-0.47272256691524245,1.6977729254082277,2.6545063086480174
3.0171868801116943,0.011868655681610107,-0.04872608184814453,-0.020799756050109863,0.0684889554977417,0.12225286662578583,-0.08767560124397278,-0.47303090515539975,1.6982785637590787,2.653771041664968
3.026628017425537,0.011549055576324463,-0.03898081183433533,-0.032719388604164124,0.06960748881101608,0.1099940687417984,-0.08314742892980576,-0.4732594039166486,1.698452007523348,2.6527908806804383
3.0365710258483887,0.011982858180999756,-0.035565465688705444,-0.03872905671596527,0.06152750924229622,0.10712145268917084,-0.072159543633461,-0.47350248058145855,1.6984826648789786,2.651816042234677
3.0465481281280518,0.012767016887664795,-0.04473435878753662,-0.036302350461483,0.044532276690006256,0.11071618646383286,-0.06676983833312988,-0.4736890982740289,1.6985979399640245,2.65097834855498
3.0568249225616455,0.010335683822631836,-0.048930853605270386,-0.03404390811920166,0.03378179669380188,0.11167296767234802,-0.06093277782201767,-0.4738610411085279,1.6990759647020595,2.650417321485327
3.0665647983551025,0.00961226224899292,-0.04173150658607483,-0.03219306468963623,0.033632926642894745,0.10144563019275665,-0.05027427524328232,-0.4739842330560443,1.6997361685040422,2.649995659617684
3.0767080783843994,0.014409422874450684,-0.03931829333305359,-0.03162646293640137,0.024232065305113792,0.08972950279712677,-0.05132052302360535,-0.4740502071463512,1.700326251928366,2.649632911743152
3.086740016937256,0.017626643180847168,-0.043894946575164795,-0.026945970952510834,0.01561008207499981,0.08191205561161041,-0.0477185994386673,-0.4739975735422497,1.7007769122050844,2.6493298464808417
3.09663987159729,0.017081081867218018,-0.04147329926490784,-0.022014982998371124,0.02209361456334591,0.0708092451095581,-0.04405936226248741,-0.4739169299109883,1.7009935262742413,2.648971154286831
3.106581926345825,0.016434907913208008,-0.03138023614883423,-0.023377425968647003,0.023144762963056564,0.06363149732351303,-0.04211125895380974,-0.473960510787028,1.700776603568664,2.648406694927068
3.1166419982910156,0.016940951347351074,-0.03007030487060547,-0.02545475959777832,0.020052900537848473,0.06025958061218262,-0.03847732022404671,-0.4740317460315363,1.700386021146256,2.6478145413182865
3.128164052963257,0.01419377326965332,-0.03229314088821411,-0.022729992866516113,0.017245929688215256,0.058496035635471344,-0.030719002708792686,-0.47394046120735295,1.7000760786313283,2.647271182306966
3.136665105819702,0.012816905975341797,-0.031775712966918945,-0.02112865447998047,0.027236195281147957,0.05123727768659592,-0.02126307599246502,-0.47373620366620867,1.6997867830008715,2.6467351111349746
3.1466968059539795,0.014275610446929932,-0.0275743305683136,-0.024063467979431152,0.0319710299372673,0.04529896005988121,-0.0136237982660532,-0.47354172452469473,1.6994338352913845,2.646106862597562
3.156696081161499,0.012198805809020996,-0.027931123971939087,-0.02721010148525238,0.03715137764811516,0.0480063334107399,-0.007687132339924574,-0.4732912164283757,1.6990753353226289,2.645441542662858
3.16670298576355,0.007528185844421387,-0.028737545013427734,-0.024266943335533142,0.044298235327005386,0.046957314014434814,0.0002722569042816758,-0.4729115165515328,1.698827583236557,2.644744671860884
3.176647901535034,0.008489668369293213,-0.02386733889579773,-0.0196152925491333,0.048210933804512024,0.034437213093042374,0.0033323888201266527,-0.47249714502284074,1.698595556949103,2.6440310541589302
3.187321901321411,0.01065361499786377,-0.017972499132156372,-0.016069188714027405,0.04480448737740517,0.02473878115415573,0.004819231107831001,-0.47218309474970216,1.698205443548456,2.6433011508977837
3.19679594039917,0.011635959148406982,-0.022108495235443115,-0.011652365326881409,0.03195769339799881,0.017007535323500633,0.004176344722509384,-0.4718757087866325,1.697728226657121,2.6426478382582475
3.2068350315093994,0.01020359992980957,-0.02446383237838745,-0.01098082959651947,0.029821841046214104,0.01639740541577339,0.0008101088460534811,-0.4715736581636465,1.6973285760403785,2.642116357809382
3.2168710231781006,0.006597399711608887,-0.027660459280014038,-0.0185701921582222,0.014931690879166126,0.014151783660054207,-0.0029790899716317654,-0.4713079740910843,1.6969898988238563,2.641693199714457
3.228621006011963,0.0036629438400268555,-0.028417646884918213,-0.023311257362365723,0.00188939250074327,0.01326388493180275,0.0008990050991997123,-0.4710789287819628,1.6966420378135652,2.6413987067197238
3.2367818355560303,0.0036357641220092773,-0.02250102162361145,-0.021429285407066345,-0.0042779892683029175,0.005022467579692602,0.003987952135503292,-0.47080929231416857,1.6962563995096551,2.6411861280365936
3.2469329833984375,0.004343569278717041,-0.019932150840759277,-0.01740790158510208,-0.004137373995035887,-0.004691412206739187,0.005582387093454599,-0.4705120837377803,1.6958656468558433,2.6410485859677255
3.256775140762329,0.004342377185821533,-0.01933741569519043,-0.010648131370544434,0.0059743160381913185,-0.013258091174066067,0.0076372819021344185,-0.47023864816136995,1.6954512526847327,2.640886540396066
3.266822099685669,0.003036201000213623,-0.01688501238822937,-0.009738311171531677,0.02123396284878254,-0.022490736097097397,0.010135061107575893,-0.47000386170077824,1.6949425554709106,2.640607614359538
3.2792279720306396,0.003499746322631836,-0.013499975204467773,-0.011874541640281677,0.031137308105826378,-0.029712388291954994,0.016324512660503387,-0.4696814027607257,1.6943702806869798,2.6402110997677175
3.286979913711548,0.002611696720123291,-0.011845439672470093,-0.01193249225616455,0.020358163863420486,-0.03312362730503082,0.01850084774196148,-0.4693146499863759,1.693757684127322,2.6398239481910437
3.2968571186065674,0.002239525318145752,-0.01773691177368164,-0.01043844223022461,0.011921320110559464,-0.030992791056632996,0.025550128892064095,-0.4688887496661304,1.693077539086653,2.6395016165441905
3.306810140609741,0.0009799599647521973,-0.0217323899269104,-0.008678197860717773,0.0007714643143117428,-0.02806597575545311,0.02606784738600254,-0.4684243936202423,1.692387788972962,2.639243036248494
3.317016839981079,0.0006172657012939453,-0.018301337957382202,-0.0054482221603393555,-0.0037312088534235954,-0.02862408570945263,0.026996172964572906,-0.46799935868835263,1.691781386732363,2.6390792096792635
3.32924485206604,0.0013446807861328125,-0.012517541646957397,-0.000495418906211853,-0.0035266780760139227,-0.03238074481487274,0.02774292416870594,-0.46757122469482004,1.6912456645727205,2.6389793857594745
3.3407528400421143,0.004056215286254883,-0.007513523101806641,0.0014551803469657898,-0.00026357313618063927,-0.03735952079296112,0.025589916855096817,-0.46716188769623707,1.690775896093991,2.638917166258182
3.3496620655059814,0.0029122233390808105,-0.004910469055175781,0.0009536668658256531,-0.006530257873237133,-0.03295598551630974,0.017649967223405838,-0.466827059775347,1.6903229944599143,2.638867845922145
3.3568661212921143,0.0013426542282104492,-0.002699345350265503,0.0009133815765380859,-0.015059812925755978,-0.031372956931591034,0.01064755953848362,-0.46658946000081414,1.6899066254160162,2.638912204716005
3.366919994354248,-0.0001728534698486328,-0.0029619932174682617,0.0007263422012329102,-0.026158004999160767,-0.029345493763685226,0.003330258186906576,-0.46642223086886164,1.689556955734623,2.6390732974722804
3.378156900405884,-0.0006506443023681641,-0.006294757127761841,0.002132892608642578,-0.03418022766709328,-0.021814119070768356,-0.0033958747517317533,-0.4662585346738864,1.6893375425799189,2.6393662614985245
3.387026071548462,-0.002444028854370117,-0.008585870265960693,0.0016089826822280884,-0.03185528889298439,-0.013813716359436512,-0.0072188423946499825,-0.4661245136343161,1.6892493015949328,2.6397140015347063
