timestamp,accel_x,accel_y,accel_z,rotation_x,rotation_y,rotation_z, pitch,roll,yaw
0.04461216926574707,0.009854912757873535,-4.826486110687256e-05,0.010574042797088623,-2.9597897082567215e-05,0.003979520872235298,0.0005070832557976246,0.09978760336805703,0.16890726505073075,-0.008454487528514647
0.05837106704711914,0.012106582522392273,0.0021723657846450806,0.012622654438018799,0.004059153608977795,0.006873577833175659,0.0007907099789008498,0.09981108867935473,0.16896109886605024,-0.008447580771125741
0.05966591835021973,0.011259928345680237,0.00401519238948822,0.013382256031036377,0.004002228379249573,0.009454003535211086,0.008305883966386318,0.0998535953355836,0.16904716668570396,-0.008400776607627619
0.06451916694641113,0.010979488492012024,0.0056729912757873535,0.010307729244232178,0.010498477146029472,0.007295511197298765,0.006018761545419693,0.09994016173040506,0.1691323403425404,-0.008347729212519287
0.0724630355834961,0.012935012578964233,0.007943801581859589,0.006626129150390625,0.012334376573562622,0.0013528894633054733,0.0019897185266017914,0.10006008343388843,0.1691785991883473,-0.008329876982030866
0.08220696449279785,0.013005957007408142,0.009587779641151428,0.00620579719543457,0.0037177191115915775,-0.0037292209453880787,-0.0050114658661186695,0.10013276919659359,0.1691853157289378,-0.00836606217828221
0.09226107597351074,0.013060018420219421,0.008700966835021973,0.009148001670837402,-0.007685936521738768,-0.008832370862364769,-0.01050024013966322,0.10010029113388308,0.16912964087007668,-0.00842906499182575
0.10312604904174805,0.01271851360797882,0.007723100483417511,0.013187229633331299,-0.014827469363808632,-0.00877298228442669,-0.014413222670555115,0.09996096255606028,0.1690553954864526,-0.00854699362468653
0.11224913597106934,0.01158154010772705,0.009035676717758179,0.011661112308502197,-0.016762254759669304,-0.01015729270875454,-0.020672718062996864,0.09977725636817462,0.16898243747359118,-0.00869179898528869
0.12234711647033691,0.013514518737792969,0.009749598801136017,0.007404506206512451,-0.01283196173608303,-0.008852876722812653,-0.022050105035305023,0.09958996503635485,0.1689064290189322,-0.008884650435205603
0.1322791576385498,0.013216406106948853,0.010544009506702423,0.0066002607345581055,-0.002664279891178012,-0.006331129465252161,-0.01907402276992798,0.09948358388227031,0.16885075588640852,-0.009081340941698293
0.14252114295959473,0.012556076049804688,0.010339178144931793,0.005584597587585449,0.005156491883099079,-0.003060944378376007,-0.015312733128666878,0.09946175631710803,0.16882357126244235,-0.00924913645583591
0.1526038646697998,0.011279776692390442,0.010685525834560394,0.004512190818786621,0.004179228097200394,0.002119835466146469,-0.015361415222287178,0.09948779718207988,0.16883401960693953,-0.009405273801821825
0.16256213188171387,0.011057183146476746,0.00483781099319458,0.00729292631149292,-0.0004120611120015383,0.009725557640194893,-0.0134729677811265,0.09948418707678762,0.1689053260651628,-0.009547800376521814
0.17274808883666992,0.009861141443252563,0.001783117651939392,0.011408567428588867,-0.0042521897703409195,0.016965404152870178,-0.009889098815619946,0.0994352298342086,0.16905047168009055,-0.009661347717604137
0.1828460693359375,0.00947849452495575,0.001239188015460968,0.009683370590209961,0.004489104263484478,0.02028077468276024,-0.008526625111699104,0.0994099750042291,0.16925345288515645,-0.009756453965742868
0.1926281452178955,0.0097741037607193,0.001171983778476715,0.009869575500488281,0.014044776558876038,0.017669323831796646,-0.008587558753788471,0.09948045626680375,0.16946666893180595,-0.00985928207861607
0.20268702507019043,0.01113748550415039,0.0016662776470184326,0.008207440376281738,0.015052249655127525,0.009464922361075878,-0.0073880706913769245,0.09940981858528275,0.1698645175213131,-0.009974373791473859
0.2124788761138916,0.013523310422897339,0.004022754728794098,0.007249057292938232,0.013666990213096142,0.0042091296054422855,-0.009248076006770134,0.09932447610368189,0.1701686769424928,-0.010114323700918164
0.22257685661315918,0.014740511775016785,0.0014121457934379578,0.0050506591796875,0.006827991455793381,0.0019726071041077375,-0.008365238085389137,0.09921577273921521,0.17041933066441825,-0.010235034528196773
0.23270916938781738,0.011516973376274109,-0.00020789355039596558,0.0024100542068481445,0.0007056177128106356,0.0016031377017498016,-0.008021903224289417,0.09902914459329999,0.17062242543897843,-0.010333546372219506
0.24254107475280762,0.010948464274406433,0.0001493319869041443,0.00263059139251709,0.002089662477374077,-3.763614222407341e-05,-0.01276099868118763,0.09894343217386917,0.1708116766984242,-0.010456651414642597
0.25264406204223633,0.009932756423950195,-3.742426633834839e-05,-0.0006501078605651855,0.009020705707371235,-0.0018864022567868233,-0.013683410361409187,0.09897044328206742,0.17097654840348392,-0.010614786326430968
0.2627270221710205,0.007924705743789673,0.0007976144552230835,-0.0018107295036315918,0.013970457017421722,-0.004003082402050495,-0.01505360659211874,0.09905823112849553,0.171111875930598,-0.010796175983582153
0.2726449966430664,0.008387118577957153,0.001909889280796051,-0.000626683235168457,0.01852068305015564,-0.0040537272579967976,-0.015212224796414375,0.0991946055895349,0.17124952863228926,-0.01098880370774773
0.28261685371398926,0.007368817925453186,0.002695046365261078,0.0005080103874206543,0.018359828740358353,-0.003675558138638735,-0.011486196890473366,0.09933960543036859,0.17140352999380423,-0.011178752311295764
0.2927858829498291,0.0066661834716796875,0.0017338469624519348,0.0006999373435974121,0.01642758771777153,-0.004732344299554825,-0.011402307078242302,0.09941638172470167,0.17157680243100287,-0.011349586205285641
0.30284714698791504,0.007577031850814819,-0.0017661377787590027,-8.946657180786133e-05,0.015608667396008968,-0.006332105956971645,-0.011377539485692978,0.09953331834952424,0.17175478592965884,-0.01151531912506024
0.3128020763397217,0.009316831827163696,-0.0022153258323669434,-0.0009898543357849121,0.017944226041436195,-0.009683605283498764,-0.008223025128245354,0.09967994546808655,0.171850409885079,-0.011654556783487384
0.3227498531341553,0.01045343279838562,0.00216587632894516,0.0010008811950683594,0.017157260328531265,-0.011185362003743649,-0.008610514923930168,0.09981991011163217,0.17190749687497903,-0.01178561598185249
0.3327670097351074,0.008415192365646362,0.0009770989418029785,0.0006605982780456543,0.020054131746292114,-0.012529769912362099,-0.006067195907235146,0.09997467012207012,0.1719347565518802,-0.011910216462457365
0.34282398223876953,0.008888915181159973,0.0014295727014541626,0.0031225085258483887,0.02453596517443657,-0.01656472496688366,-0.009866195730865002,0.10015337437115995,0.1718904503006702,-0.012029973918945143
0.35301995277404785,0.009801611304283142,0.005002468824386597,0.004885196685791016,0.023543689399957657,-0.018263157457113266,-0.011538234539330006,0.10032442704218568,0.17183407713964857,-0.01218469402741175
0.36289501190185547,0.009548693895339966,0.005321413278579712,0.006442070007324219,0.019606471061706543,-0.02130208909511566,-0.011317191645503044,0.10046094286836578,0.1717520267991823,-0.012341286981983625
0.37285804748535156,0.010108113288879395,0.004764750599861145,0.007439792156219482,0.018241483718156815,-0.020910294726490974,-0.012438596226274967,0.10057624767253241,0.17165034815951263,-0.012510618198088281
0.38281989097595215,0.00903862714767456,0.005989484488964081,0.008353352546691895,0.019221261143684387,-0.020845046266913414,-0.009333616122603416,0.10074900701219341,0.17156137346025363,-0.01265606453332152
0.3928549289703369,0.008916527032852173,0.008287176489830017,0.007551312446594238,0.027962323278188705,-0.024868283420801163,-0.001491352915763855,0.10098798513376558,0.1714722087909212,-0.012761012276870518
0.4031829833984375,0.011653751134872437,0.010119639337062836,0.00885307788848877,0.03922216594219208,-0.025443261489272118,0.0108462730422616,0.10128080963409662,0.17136237386894376,-0.012793530767207108
0.41286706924438477,0.01130610704421997,0.010799810290336609,0.01425081491470337,0.04690749943256378,-0.024176795035600662,0.01445230096578598,0.10170374534759619,0.17122634070764592,-0.01275071943353884
0.4230611324310303,0.008596926927566528,0.012548759579658508,0.01560521125793457,0.05047187581658363,-0.015960942953824997,0.011329211294651031,0.102173385447581,0.17114981646527247,-0.012726239101812732
0.4329659938812256,0.006959930062294006,0.009151838719844818,0.016034483909606934,0.04591314122080803,-0.005853890907019377,0.00795099139213562,0.10256268400250577,0.17117668607370562,-0.012728866765309751
0.44287705421447754,0.006572559475898743,0.006218947470188141,0.01733720302581787,0.0370783731341362,0.002868760609999299,0.0020829823333770037,0.10288160332455804,0.17131293780477996,-0.01276195847075576
0.45332908630371094,0.006475016474723816,0.006084255874156952,0.016980290412902832,0.02572784759104252,0.00023311935365200043,0.003010135143995285,0.10311436196335629,0.17147888969722594,-0.01280842332791299
0.46297502517700195,0.011075779795646667,0.0034405142068862915,0.0198783278465271,0.017260592430830002,0.0034238523803651333,-0.0035934392362833023,0.1032024037874325,0.17161256102902744,-0.01286528764963961
0.47300219535827637,0.01432923972606659,0.0030129030346870422,0.021870791912078857,0.015304717235267162,0.011369170621037483,0.0033125635236501694,0.103232726190745,0.17181209729273858,-0.012908624345101302
0.48294520378112793,0.012033194303512573,0.004527091979980469,0.01478874683380127,0.012832771055400372,0.015429159626364708,0.0012840338749811053,0.10322096278152963,0.17209952976783055,-0.012913923940572093
0.49307990074157715,0.012820586562156677,0.007268153131008148,0.01147615909576416,0.016643105074763298,0.009989963844418526,-0.0012091642711311579,0.10323076465670272,0.1723705902151702,-0.012955982155254137
0.5032379627227783,0.017592132091522217,0.0071564242243766785,0.01211482286453247,0.017335793003439903,0.00420850794762373,-0.005621223244816065,0.1032565011364769,0.17254689827710876,-0.013034946554629348
0.512984037399292,0.01783980429172516,0.010482028126716614,0.014952778816223145,0.012354333885014057,0.009736031293869019,-0.00779585400596261,0.10330170815620196,0.17269982045148344,-0.013136481663447183
0.5230391025543213,0.01484653353691101,0.009715288877487183,0.017155826091766357,0.0011344363447278738,0.019422214478254318,-0.00850372202694416,0.10329787927948081,0.1729359508521643,-0.013237124118664574
0.5332660675048828,0.011600285768508911,0.006013073027133942,0.011949896812438965,0.00544804148375988,0.024444980546832085,-0.007892047055065632,0.10325755462832785,0.1732427215377155,-0.013336709082571683
0.5431270599365234,0.014786824584007263,0.00867675244808197,0.0054746270179748535,0.014765110798180103,0.017943939194083214,-0.008952517993748188,0.10332762474673625,0.17358922057355508,-0.013448285841715105
0.553380012512207,0.017133578658103943,0.013424009084701538,0.0027781128883361816,0.024026203900575638,0.012720459140837193,-0.007799635641276836,0.10349815096370997,0.17390700250963573,-0.013588572800784446
0.56308913230896,0.018211498856544495,0.013569951057434082,0.0031340718269348145,0.02096995897591114,0.0033559859730303288,-0.0007052410510368645,0.10369088836172216,0.17411857569377992,-0.013687852392944977
0.5730941295623779,0.018999949097633362,0.00921214371919632,0.002966165542602539,0.007990412414073944,-0.0003364873118698597,-0.0006010047509334981,0.1037431569921124,0.17426485005704082,-0.013726127339855752
0.5832359790802002,0.016548454761505127,0.0023050829768180847,0.0037832260131835938,-0.007485217414796352,-0.002849978394806385,0.00018968782387673855,0.1036563166340208,0.1744448915559303,-0.013744820770265778
0.5935409069061279,0.01529712975025177,-0.0028480738401412964,0.00411832332611084,-0.012539996765553951,-0.011189756914973259,-0.0006969318492338061,0.10343054046119986,0.1745810695409813,-0.013746540851114144
0.6041049957275391,0.014498472213745117,-0.0018337368965148926,0.004702627658843994,-0.011394305154681206,-0.019584838300943375,-0.0021936283446848392,0.10320773178447365,0.17459788256504502,-0.013757797827014554
0.6131279468536377,0.013343974947929382,0.0011398568749427795,0.006393790245056152,-0.007508669979870319,-0.020206108689308167,-0.0009185601957142353,0.10305243879329742,0.17452744815199114,-0.013778697786575311
0.6233220100402832,0.007257118821144104,-0.0006077587604522705,0.007575929164886475,-0.005394386127591133,-0.016174616292119026,0.0005238078301772475,0.1028908767168605,0.17449193910680308,-0.013787918917821485
0.6331741809844971,0.002562299370765686,-0.002602696418762207,0.0071329474449157715,-0.005788866896182299,-0.011613510549068451,0.000581864733248949,0.10268011582809745,0.17452983542907924,-0.013795454425565097
0.6431970596313477,0.0005725175142288208,-0.0029652565717697144,0.008202552795410156,-0.0014524416765198112,-0.007028078194707632,0.0015914690447971225,0.10249970726071442,0.1746262871289455,-0.013794325931282833
0.6534080505371094,0.000705912709236145,-0.0020060837268829346,0.008565664291381836,0.008689507842063904,-0.0012819534167647362,0.00666058249771595,0.10243621555773152,0.17476933591397853,-0.01377790406990829
0.6632211208343506,0.0012693703174591064,-7.475912570953369e-05,0.008434891700744629,0.013355632312595844,-0.0003900607116520405,0.011161059141159058,0.10255234541723696,0.17492835187680325,-0.013725426337380251
0.6732320785522461,0.0005291402339935303,0.002866022288799286,0.00880199670791626,0.0149061419069767,-0.002993078902363777,0.011474460363388062,0.1027629091067927,0.17506478971754025,-0.013649035568708992
0.683272123336792,0.004289001226425171,0.0044274479150772095,0.005244016647338867,0.010830439627170563,-0.006404587998986244,0.007879991084337234,0.10293671719814222,0.17515510041337265,-0.013587112177691096
0.693356990814209,0.007657691836357117,0.003948986530303955,0.004047036170959473,0.008924981579184532,-0.005870979279279709,0.004859700333327055,0.1030386296359306,0.17522285572838128,-0.013563063828689357
0.7034299373626709,0.005759701132774353,0.0026340261101722717,0.006215929985046387,0.005639972165226936,-0.004414496943354607,0.0019312883960083127,0.10312794358789934,0.17524609473618416,-0.013552751970574336
0.7132010459899902,0.0048548877239227295,0.005937665700912476,0.006625354290008545,0.003141794353723526,-0.006437789183109999,-0.0033264304511249065,0.10319707844957282,0.17522082855555715,-0.013562600099494606
0.7233800888061523,0.006332695484161377,0.007685840129852295,0.004084467887878418,0.003374288324266672,-0.010956639423966408,-0.009387251920998096,0.10325182479019303,0.17514628607795688,-0.013637978454774515
0.7332918643951416,0.007346346974372864,0.00682433694601059,0.002679169178009033,-0.001401641988195479,-0.01160525344312191,-0.013864558190107346,0.10326011256024652,0.1750618419076498,-0.013754882927264612
0.7436859607696533,0.006341218948364258,0.004940204322338104,0.0037361979484558105,-0.004391306545585394,-0.013277985155582428,-0.017064346000552177,0.10320675558170501,0.17498098026592532,-0.01390501438162808
0.7534589767456055,0.0048325806856155396,0.003628760576248169,0.005585074424743652,-0.005864234175533056,-0.020119646564126015,-0.016959844157099724,0.10310018769948769,0.17485238664868638,-0.014063249508284472
0.7633521556854248,0.005378499627113342,0.004402637481689453,0.007375121116638184,0.0019265769515186548,-0.02110927738249302,-0.020277876406908035,0.10298846680462137,0.17471361785671488,-0.014251558275202457
0.7733719348907471,0.005706310272216797,0.002764463424682617,0.008388221263885498,0.0039045733865350485,-0.018638040870428085,-0.01598352938890457,0.1029522719271497,0.1746119626085387,-0.014442068570970561
0.7834341526031494,0.003997310996055603,0.0011960044503211975,0.008820295333862305,0.004149584099650383,-0.019406627863645554,-0.01335419062525034,0.10294014327255532,0.17450271648227145,-0.01460218838026918
0.7934219837188721,0.004131719470024109,0.0016794726252555847,0.010593891143798828,0.012986918911337852,-0.018269015476107597,-0.01238005980849266,0.10293530716629017,0.17439657687949298,-0.014744611973143898
0.8034288883209229,0.006130144000053406,0.0006091520190238953,0.01075369119644165,0.013955509290099144,-0.013019924983382225,-0.0054595693945884705,0.10299443634251547,0.17432024897828213,-0.014856112547968293
0.8133971691131592,0.0031896978616714478,-0.0009449571371078491,0.00994497537612915,0.006180627271533012,-0.00692701106891036,-0.0006421240977942944,0.10302743159648604,0.17430070080701007,-0.014912221254969495
0.8235759735107422,0.004334568977355957,-0.0028549134731292725,0.011192262172698975,0.005349454469978809,-0.004381562117487192,0.002697479911148548,0.10304014665386996,0.17431602218100126,-0.014918339276127228
0.8334009647369385,0.006084263324737549,-0.001899130642414093,0.01148134469985962,0.004665820859372616,-0.007968485355377197,0.006106645334511995,0.10306527928221924,0.17430608798924851,-0.014886900284287094
0.8434150218963623,0.006731897592544556,-0.0008974373340606689,0.013224184513092041,-0.0035020937211811543,-0.0048882728442549706,0.0061268857680261135,0.10304452790364016,0.17429879762090553,-0.014834028057840244
0.8536279201507568,0.00805547833442688,-0.0014707371592521667,0.01280677318572998,-0.01239011064171791,-0.006287985946983099,0.0028433145489543676,0.10294371226660622,0.17430096919045723,-0.014777839824809463
0.8635470867156982,0.009531393647193909,0.002839989960193634,0.008867919445037842,-0.02266724966466427,-0.012652941048145294,-0.0012417080579325557,0.10276741921204822,0.17423972751976557,-0.014744244050037731
0.8743679523468018,0.012072503566741943,0.004214450716972351,0.01039975881576538,-0.026552952826023102,-0.009198244661092758,-0.009216010570526123,0.10250782406824979,0.17417998836564436,-0.01475939302049112
0.8834500312805176,0.0087050199508667,0.005980826914310455,0.011110842227935791,-0.027186252176761627,-0.002819441258907318,-0.013025396503508091,0.10222806904712037,0.17420128235605295,-0.014825710155797107
0.8935081958770752,0.00458875298500061,0.008486449718475342,0.008447229862213135,-0.02408599853515625,-0.0030991612002253532,-0.021799394860863686,0.10197050338365483,0.1742240957234885,-0.014961277153049925
0.9036262035369873,0.005016446113586426,0.009396374225616455,0.007268667221069336,-0.016039790585637093,-0.0030022216960787773,-0.025956323370337486,0.10178081507721644,0.1742669504597148,-0.015171693565959021
0.9134318828582764,0.008016258478164673,0.008285917341709137,0.008748173713684082,-0.010594723746180534,0.001719917170703411,-0.025223953649401665,0.10164621215750894,0.17434868231025863,-0.015418100065941643
0.9236071109771729,0.0043014585971832275,0.006386213004589081,0.008865177631378174,-0.01827448233962059,0.0004868735559284687,-0.025341665372252464,0.10150052738339448,0.17446215963608203,-0.015655419162767036
0.9336230754852295,0.004886642098426819,0.0017764121294021606,0.00801616907119751,-0.021111730486154556,-0.003674004226922989,-0.02563333325088024,0.10129948209478862,0.17454652720215574,-0.015882637614609122
0.943763017654419,0.007350802421569824,-0.004214532673358917,0.013967394828796387,-0.024232689291238785,-0.004503047093749046,-0.021262820810079575,0.10102919422825539,0.17461191940303036,-0.016084371001654704
0.9536540508270264,0.0063753873109817505,-0.0069052353501319885,0.01654791831970215,-0.026858283206820488,-0.004406063351780176,-0.011623668484389782,0.10073262200450149,0.17468332384721516,-0.01621207252681257
0.9635741710662842,0.004961371421813965,-0.006238386034965515,0.014450371265411377,-0.026183437556028366,-0.0019519603811204433,-0.007093898020684719,0.10040600754537587,0.1747346406864678,-0.016259612317776416
0.9739940166473389,0.007658183574676514,-0.006489865481853485,0.010281205177307129,-0.022725973278284073,-0.0037700561806559563,-0.0007549888687208295,0.10010724569534,0.17474897708171455,-0.016265669922577268
0.9836280345916748,0.00664094090461731,-0.008070245385169983,0.009937822818756104,-0.01963803730905056,0.0006209635175764561,0.004475992172956467,0.0998377764379008,0.17477013598141175,-0.016223171099998993
0.9935860633850098,0.004935398697853088,-0.003688715398311615,0.01035994291305542,-0.019721027463674545,0.0011705518700182438,0.010340113192796707,0.09961001125895187,0.17484048624271137,-0.016127833253408923
1.0036470890045166,0.0043334513902664185,-0.0023336261510849,0.009401440620422363,-0.021897628903388977,-0.001571971457451582,0.009206405840814114,0.09939237220409415,0.174859209075536,-0.01599642769657976
1.0136568546295166,0.004218176007270813,-0.0033308789134025574,0.013967692852020264,-0.02353052794933319,-0.004668473266065121,0.009071383625268936,0.09918756842834335,0.17486423072091797,-0.015871574774972797
1.0236930847167969,0.0038796663284301758,-0.0017632991075515747,0.0144881010055542,-0.027471210807561874,-0.007864266633987427,0.008567779324948788,0.0990147968623024,0.1748640692205389,-0.015742031445677415
1.0339128971099854,0.005436062812805176,-8.516013622283936e-05,0.013777971267700195,-0.027996717020869255,-0.010380864143371582,0.006601781118661165,0.09884579475140058,0.17482997501598868,-0.015613201061479986
1.0437450408935547,0.005495697259902954,-0.00011067837476730347,0.012846648693084717,-0.02954214997589588,-0.01139286532998085,0.007953334599733353,0.09865149387196669,0.17476571671538788,-0.015496832675033304
1.0536859035491943,0.005848810076713562,0.0008908286690711975,0.013428747653961182,-0.029789723455905914,-0.015726450830698013,0.009669848717749119,0.09846188793398689,0.17468235997321557,-0.015367581362681272
1.0636999607086182,0.00772462785243988,0.003393694758415222,0.01322019100189209,-0.03480125963687897,-0.029337333515286446,0.011167610995471478,0.09824765477867814,0.1745083889500599,-0.015215363513523997
1.0738599300384521,0.01017819344997406,0.0018070787191390991,0.015872716903686523,-0.04126433655619621,-0.04284200444817543,0.014863812364637852,0.09794129736131808,0.17416372843691577,-0.015021963786801512
1.083847999572754,0.012497007846832275,-0.0007901117205619812,0.020869970321655273,-0.046454038470983505,-0.052367329597473145,0.018475323915481567,0.09757012046598072,0.1737064259841092,-0.014788275438214487
1.0938429832458496,0.012350082397460938,-0.0011824369430541992,0.022427022457122803,-0.05851869285106659,-0.06198471039533615,0.02403286285698414,0.09712994558052437,0.17314834133581813,-0.014491156130353039
1.1038110256195068,0.011715799570083618,-0.00010214745998382568,0.018380403518676758,-0.06994312256574631,-0.06899282336235046,0.026073375716805458,0.09657494485544436,0.1724941797029295,-0.014128034127021323
1.113765001296997,0.014597848057746887,-0.0072043538093566895,0.01478874683380127,-0.07697910070419312,-0.0686553567647934,0.030933856964111328,0.09592419382665258,0.17181607001561097,-0.013735819752071153
1.1238200664520264,0.011479735374450684,-0.011194400489330292,0.0110396146774292,-0.10380645841360092,-0.07135286927223206,0.037230368703603745,0.09515022484510027,0.17113971131357866,-0.013257138998191802
1.1338770389556885,0.006095260381698608,-0.012849226593971252,0.012034237384796143,-0.14330445230007172,-0.05579473078250885,0.037484437227249146,0.09399375993288926,0.17049673310243904,-0.012685913778148811
1.1439058780670166,0.004076153039932251,-0.023522570729255676,0.016813933849334717,-0.1880735158920288,-0.05786107853055,0.046267807483673096,0.09243842029938132,0.1699636289767766,-0.011978864220890789
1.153874158859253,0.002623632550239563,-0.03013637661933899,0.011636078357696533,-0.20853492617607117,-0.05217868834733963,0.022160233929753304,0.09059290021641311,0.16944012448804888,-0.01132838072201403
1.1639468669891357,0.004955500364303589,-0.026674076914787292,0.010667979717254639,-0.22499965131282806,-0.07053399831056595,0.053943198174238205,0.08858449682879022,0.1688991912528482,-0.010578916254153893
1.1739280223846436,0.006505623459815979,-0.023855037987232208,0.00781339406967163,-0.32377520203590393,-0.10971987992525101,0.016736600548028946,0.08614520163859582,0.16806129969112735,-0.00972911947694928
1.1839630603790283,0.014391139149665833,-0.03474963456392288,0.01456218957901001,-0.5649926066398621,-0.11117289960384369,-0.022669395431876183,0.08184249436228136,0.1669628445774525,-0.009079794818900849
1.1939561367034912,0.00969482958316803,-0.06184092164039612,0.024745464324951172,-0.9292178153991699,-0.12549249827861786,-0.04552756994962692,0.07467248641086684,0.165840641229778,-0.008163141413400962
1.2042181491851807,0.012472271919250488,-0.11077650636434555,0.017822742462158203,-1.3214654922485352,-0.10194455832242966,-0.12952978909015656,0.06364383328313336,0.1647204226487546,-0.007193056911510282
1.2140491008758545,0.007451444864273071,-0.12760330736637115,0.017418742179870605,-1.6374008655548096,-0.028048411011695862,-0.14675384759902954,0.048960379438395187,0.16405709398130064,-0.0062065343207190265
1.224168062210083,0.001953795552253723,-0.11363114416599274,0.01144564151763916,-1.8557393550872803,-0.0631219744682312,-0.16569477319717407,0.031271356457354224,0.16361921413657865,-0.0048895053904294454
1.236199140548706,0.012157589197158813,-0.0574367418885231,0.009421885013580322,-2.001098394393921,-0.1387447863817215,-0.19386181235313416,0.01196046737870681,0.16254946887216395,-0.0035068446613974683
1.2441389560699463,0.029655754566192627,-0.07626505196094513,-0.0030818581581115723,-2.134758710861206,-0.16637055575847626,-0.24683047831058502,-0.00891292731323759,0.16098637516335587,-0.0023335058570168998
1.2544050216674805,0.040653809905052185,-0.07945983111858368,-0.015085875988006592,-2.155632972717285,-0.17622233927249908,-0.2765353322029114,-0.030575480886619214,0.15926564764535173,-0.0015072167054935573
1.2641329765319824,0.03149747848510742,-0.04703408107161522,-0.022336900234222412,-2.118272304534912,-0.23342092335224152,-0.28057026863098145,-0.05220004021079601,0.15725986024431454,-0.0008814647219375423
1.2744970321655273,0.018875926733016968,0.004626370966434479,-0.01857781410217285,-2.109872341156006,-0.3034096658229828,-0.2790708839893341,-0.0734579077371589,0.15462480455317482,-0.00036939056453858676
1.287916898727417,0.016615182161331177,-0.014329135417938232,-0.006727933883666992,-2.1956870555877686,-0.3865700662136078,-0.2816501557826996,-0.09506924328725638,0.15126737786744,0.00015379343488273597
1.294903039932251,0.026913970708847046,-0.05671951174736023,-0.004898130893707275,-2.268348217010498,-0.44754016399383545,-0.4019707143306732,-0.1179056191197405,0.14701040912031493,5.8207258409873124e-05
1.3041009902954102,0.02759537100791931,-0.05419813096523285,-0.00664597749710083,-2.239696979522705,-0.4294738173484802,-0.36189040541648865,-0.14075253041656655,0.1424725873653143,-0.0005411214781864219
1.3140308856964111,0.0003670305013656616,-0.047913819551467896,-0.025829017162322998,-2.16800594329834,-0.4090737998485565,-0.317880779504776,-0.16310753061815816,0.1382389452619411,-0.0007862005233844694
1.324207067489624,-0.0004078894853591919,0.00033126771450042725,-0.04344367980957031,-2.0972695350646973,-0.37436801195144653,-0.30062857270240784,-0.1846922001862262,0.134235967848147,-0.0009669385056185191
1.3361330032348633,-0.01014697551727295,-0.027189180254936218,-0.018867969512939453,-2.0820794105529785,-0.34964028000831604,-0.21869157254695892,-0.20573088832980208,0.13062001432242457,-0.0008096733686086294
1.3441879749298096,-0.02915818989276886,-0.04331113398075104,-0.000674903392791748,-2.0970771312713623,-0.32583242654800415,-0.1799316704273224,-0.22661167453734937,0.12741692083251865,-5.033231294804015e-05
1.3541090488433838,-0.02202697843313217,-0.061486706137657166,0.010708630084991455,-2.194566249847412,-0.31677305698394775,-0.19013039767742157,-0.24813785688414747,0.12439915391433501,0.0008189666935121746
1.3640849590301514,-0.011230289936065674,-0.09323197603225708,0.03650856018066406,-2.32696270942688,-0.3153040409088135,-0.19953615963459015,-0.2707844341763161,0.12147396317220924,0.001703110640219926
1.3741271495819092,-0.006586700677871704,-0.10176798701286316,0.052137017250061035,-2.331843852996826,-0.28519681096076965,-0.22878043353557587,-0.29432291575497127,0.1186601301909356,0.0024005729295989127
1.3855350017547607,-0.0050076693296432495,-0.09931376576423645,0.05926799774169922,-2.2280728816986084,-0.3061947524547577,-0.22027669847011566,-0.31728768787673195,0.11588113717549692,0.002819562384886068
1.3941361904144287,-0.012043587863445282,-0.05624696612358093,0.05568277835845947,-2.0685935020446777,-0.39531853795051575,-0.17676153779029846,-0.33889623432576765,0.11257308977962699,0.0033321538435709193
1.4041399955749512,0.00764252245426178,0.00996929407119751,0.06434893608093262,-2.065229654312134,-0.5129911303520203,-0.1447647362947464,-0.3594458458731509,0.10831893317591125,0.004026184963572412
1.4140279293060303,0.023815669119358063,0.006159096956253052,0.06982171535491943,-2.1296119689941406,-0.5282436609268188,-0.06523028016090393,-0.38089913203187376,0.10312984190386562,0.005243827415432685
1.424220085144043,0.035368479788303375,-0.005848348140716553,0.07397818565368652,-1.9759724140167236,-0.5317561030387878,-0.01719590649008751,-0.4012321221593727,0.09875100360588622,0.00711611950527541
1.4355909824371338,0.0012541040778160095,-0.015013903379440308,0.05809098482131958,-1.9800039529800415,-0.6561377048492432,0.0561036579310894,-0.42091867412511197,0.09355355324630868,0.00928025369180182
1.4443271160125732,-0.036989957094192505,-0.005290329456329346,0.1205626130104065,-2.188652515411377,-0.769726037979126,0.023653307929635048,-0.4415578467373608,0.08757425268654662,0.012039444252978584
1.4543859958648682,0.01986314356327057,-0.08929064869880676,0.10507047176361084,-2.4069855213165283,-0.6502627730369568,-0.08275611698627472,-0.4646741878516945,0.0810150455006456,0.013714873765216606
1.464245080947876,-0.019798099994659424,-0.16157647967338562,0.11629092693328857,-2.479872465133667,-0.5979145765304565,-0.04525374621152878,-0.4890169062144284,0.07568354623536713,0.015182196588648332
1.4743049144744873,-0.0559568777680397,-0.07652679085731506,0.07465207576751709,-2.589717149734497,-0.6994542479515076,-0.08481814712285995,-0.5144827332254741,0.0697678994708612,0.01651269957621824
1.4855048656463623,0.00894249975681305,0.007485687732696533,0.07995283603668213,-2.7280619144439697,-0.6788983345031738,-0.09200149029493332,-0.541049992743061,0.0633251511443305,0.017576318397983903
1.494243860244751,0.05873478204011917,-0.05297720432281494,0.054860830307006836,-2.9148495197296143,-0.6514148712158203,-0.165716290473938,-0.5693220731689232,0.05692966061427214,0.018038492424617723
1.5043389797210693,0.03139247000217438,-0.06494837999343872,0.006746649742126465,-3.0461549758911133,-0.624380350112915,-0.14769814908504486,-0.5993539008712291,0.0504834856761542,0.017999936741007635
1.5142982006072998,0.014131039381027222,-0.026176750659942627,-0.022980213165283203,-2.956831932067871,-0.6295693516731262,-0.07475683838129044,-0.6294397539030382,0.04454205665604706,0.01843617003869421
1.5243890285491943,0.006265388801693916,0.053394615650177,-0.055733323097229004,-2.9234328269958496,-0.7271433472633362,-0.06307753920555115,-0.6588706206225217,0.03820788530254422,0.01912199195095111
1.5360009670257568,0.01851707324385643,0.07589983940124512,-0.09659445285797119,-2.8356165885925293,-0.7744647264480591,-0.05208741873502731,-0.6876819417371047,0.031016625924506228,0.019725118481630506
1.5445880889892578,0.05080779269337654,-0.021549224853515625,-0.11139857769012451,-2.733055353164673,-0.7435249090194702,-0.11808773875236511,-0.7155801548663819,0.02333883770582078,0.019627351151562132
1.554326057434082,0.0318109355866909,-0.04614543914794922,-0.10834908485412598,-2.5478017330169678,-0.7276206016540527,-0.14052893221378326,-0.7420899642844949,0.015200868825162774,0.01849933032514818
1.5642979145050049,0.002543974667787552,0.01778852939605713,-0.07382118701934814,-2.347675323486328,-0.6967407464981079,-0.12130436301231384,-0.76656860619237,0.007144861907496688,0.017084981524666278
1.574375867843628,-0.008816718123853207,0.04260563850402832,-0.04830402135848999,-2.2255477905273438,-0.6757836937904358,-0.10257578641176224,-0.7893949929506848,-0.0007408249677204397,0.01559678164153827
1.585500955581665,-0.018113408237695694,0.04093247652053833,-0.031136274337768555,-2.2597076892852783,-0.7057304382324219,-0.10035471618175507,-0.8117845409001028,-0.008778519279035195,0.014025929501471851
1.5943920612335205,-0.013457870110869408,0.016139864921569824,-0.009418129920959473,-2.4259510040283203,-0.6650646924972534,-0.1514977365732193,-0.8350601700495909,-0.017326279842421067,0.011788000547315306
1.604499101638794,-0.007136251777410507,-0.06286513805389404,-0.0015009641647338867,-2.6847078800201416,-0.6127951145172119,-0.19470112025737762,-0.8606773822839162,-0.02636557554894735,0.008210040646084195
1.6144049167633057,-0.021615004166960716,-0.08182251453399658,0.009225130081176758,-2.850278377532959,-0.6316749453544617,-0.20219872891902924,-0.8884050081976101,-0.03597273154440091,0.003801586126670549
1.6244959831237793,-0.0196100864559412,-0.03747403621673584,0.013356983661651611,-3.001080274581909,-0.6217879056930542,-0.2691042721271515,-0.9175442084656786,-0.04678570076634191,-0.0019370581160318388
1.6362650394439697,-0.0005519166588783264,-0.06951713562011719,-0.007411062717437744,-3.069658041000366,-0.5949163436889648,-0.29072144627571106,-0.9477965245312185,-0.05887079857271437,-0.009414976489364998
1.6454150676727295,-0.003865480422973633,-0.05294913053512573,-0.029844462871551514,-2.9986655712127686,-0.5711180567741394,-0.2895219624042511,-0.9779919677106854,-0.07171876979502871,-0.01791197900809646
1.6561989784240723,-0.003976456820964813,-0.008479595184326172,-0.055477797985076904,-2.8735337257385254,-0.5608798861503601,-0.30762752890586853,-1.0071303649877021,-0.08550734692173885,-0.02762856653284786
1.664597988128662,0.004512354731559753,0.01607537269592285,-0.0714992880821228,-2.8310413360595703,-0.5880012512207031,-0.31448808312416077,-1.0351357316747407,-0.10054929550891083,-0.03855446966917803
1.674626111984253,0.013014886528253555,0.025233983993530273,-0.05391371250152588,-2.9237618446350098,-0.5959838032722473,-0.3664315938949585,-1.0632735102698898,-0.1177850003491862,-0.051538565540960944
1.6855571269989014,0.010864898562431335,-0.02635335922241211,-0.010901778936386108,-3.0742626190185547,-0.5743485689163208,-0.43755078315734863,-1.0926163915316538,-0.13825231023954854,-0.06815039550869145
1.6946041584014893,-0.006364181637763977,-0.05044156312942505,0.007878601551055908,-3.1304264068603516,-0.563291609287262,-0.4137446880340576,-1.1227303662063035,-0.16169874769291603,-0.08803684576913691
1.704693078994751,-0.005127236247062683,0.01014554500579834,-0.0008140504360198975,-3.1391842365264893,-0.5772995948791504,-0.43393492698669434,-1.1528927972170473,-0.18823226069494117,-0.11094533324311523
1.714543104171753,0.024606667459011078,0.03169882297515869,-0.011569947004318237,-3.040623188018799,-0.5040092468261719,-0.42626309394836426,-1.1823940607945336,-0.21836360516071976,-0.1377619593670756
1.7245361804962158,0.029639974236488342,0.010102927684783936,-0.021262407302856445,-2.8760807514190674,-0.4473726153373718,-0.4192488491535187,-1.210274875294781,-0.25110975175833117,-0.1678077226643834
1.7360270023345947,0.006546348333358765,0.036439359188079834,-0.046637922525405884,-2.6637589931488037,-0.40493473410606384,-0.40980541706085205,-1.2358438691457365,-0.2865956489075218,-0.20105662291994486
1.7447102069854736,0.005569465458393097,0.03964579105377197,-0.047366321086883545,-2.5538477897644043,-0.35924848914146423,-0.4233550429344177,-1.2594801807186857,-0.32589687934253175,-0.2384263005387068
1.754601001739502,0.0050118789076805115,0.010324537754058838,-0.02447497844696045,-2.516582727432251,-0.3293236792087555,-0.4376194477081299,-1.2818062518725084,-0.37026829803386835,-0.2813149249575593
1.764549970626831,-0.00027317553758621216,-0.023217856884002686,0.009948864579200745,-2.5048396587371826,-0.3265899419784546,-0.4440017342567444,-1.3033193777091905,-0.42178758532935845,-0.33142569254132714
1.7746610641479492,0.007027044892311096,-0.04600340127944946,0.03136512637138367,-2.4986376762390137,-0.2899361848831177,-0.44955652952194214,-1.3239127424281167,-0.48181293617051135,-0.390297103250288
1.786391019821167,0.008212275803089142,-0.0574529767036438,0.007639288902282715,-2.395496129989624,-0.26773956418037415,-0.4354516565799713,-1.3431528345228985,-0.5508330789535028,-0.4584536109069593
1.794692039489746,0.013239644467830658,-0.0331609845161438,-0.0178336501121521,-2.261150360107422,-0.2492201179265976,-0.40540480613708496,-1.3601381657558769,-0.6274894023067191,-0.5343078648804894
1.8046901226043701,0.020813554525375366,-0.0017453432083129883,-0.025614961981773376,-2.069401979446411,-0.22260954976081848,-0.3331921100616455,-1.374887246003597,-0.708817439111111,-0.6149122416051103
1.8146631717681885,0.0329999178647995,0.03564828634262085,-0.04562467336654663,-1.952415943145752,-0.16615119576454163,-0.2882419526576996,-1.3874656250574,-0.7946157788454433,-0.7002572577811028
1.824709177017212,0.02915462851524353,0.016577422618865967,-0.05681401491165161,-1.8778204917907715,-0.14087726175785065,-0.2799248993396759,-1.3981373845624048,-0.8854236434407696,-0.7910004525172256
1.8356258869171143,0.018273472785949707,-0.011045396327972412,-0.04521602392196655,-1.8411575555801392,-0.12583400309085846,-0.26894691586494446,-1.4070036775098844,-0.9844799012684874,-0.8900614588223162
1.844675064086914,0.026845455169677734,-0.035527586936950684,-0.027164995670318604,-1.9073562622070312,-0.10924943536520004,-0.2813170254230499,-1.4141251703301727,-1.0946799731492083,-1.0004816974801165
1.8547379970550537,0.020001307129859924,-0.04910463094711304,-0.011694848537445068,-1.9410755634307861,-0.10775136202573776,-0.2513834238052368,-1.4194756261355246,-1.2165853178115846,-1.1227391714069257
1.8646759986877441,0.018976658582687378,-0.0322226881980896,0.004219178110361099,-1.7572418451309204,-0.13667115569114685,-0.21878792345523834,-1.42260763988466,-1.3409476902401802,-1.2473093455359043
1.8748340606689453,0.035614967346191406,0.004060804843902588,0.001655280590057373,-1.4419143199920654,-0.18284140527248383,-0.2218323051929474,-1.4232422750784282,-1.4511040088078833,-1.3570239188794602
1.8855469226837158,0.04506513476371765,0.03646939992904663,-0.02037525177001953,-1.225130558013916,-0.17341914772987366,-0.19858130812644958,-1.4221114611839578,-1.5426007934927792,-1.4476992069795085
1.8951029777526855,0.031893134117126465,0.0633501410484314,-0.03903377056121826,-1.1236326694488525,-0.15970386564731598,-0.1664915531873703,-1.420202337595735,-1.621887931460495,-1.5262425086931501
1.9048049449920654,0.01754949986934662,0.04628247022628784,-0.03429138660430908,-1.1120405197143555,-0.14681309461593628,-0.2128920704126358,-1.4173355724336816,-1.6945250796611884,-1.5981590564223325
1.9146580696105957,0.015825510025024414,-0.015056610107421875,-0.01436614990234375,-1.108113169670105,-0.14205633103847504,-0.18665651977062225,-1.4135800376354186,-1.764433019178592,-1.6674722069624908
1.9248921871185303,0.01926465332508087,-0.018214881420135498,-0.011829257011413574,-0.9947879314422607,-0.1338023990392685,-0.10956919193267822,-1.4097265893309632,-1.8283617021828136,-1.7308344900415618
1.9363000392913818,0.028622224926948547,0.05389606952667236,-0.030634157359600067,-0.7618206739425659,-0.1527729481458664,-0.09306185692548752,-1.4063500937240874,-1.8794039568026422,-1.7810705292368285
1.9448580741882324,0.029637381434440613,0.08656901121139526,-0.06113553047180176,-0.625386655330658,-0.11930926144123077,-0.08440259099006653,-1.403278311094026,-1.9179413592549657,-1.8187644127290947
1.9550268650054932,0.010463893413543701,0.035386502742767334,-0.06388247758150101,-0.5612779855728149,-0.10178059339523315,-0.05894889310002327,-1.4004911883124824,-1.950089844430282,-1.8502592142393302
1.9646940231323242,0.0015053898096084595,0.02787768840789795,-0.02958022803068161,-0.5246797800064087,-0.08518244326114655,-0.0565459206700325,-1.3979094597299457,-1.9785409697897864,-1.8781780203499445
1.9748220443725586,0.0035457760095596313,0.01061999797821045,-0.00026261061429977417,-0.46486571431159973,-0.06870333850383759,-0.053025756031274796,-1.395355868927889,-2.0039454173942564,-1.9032097116417788
1.9856178760528564,-0.003112107515335083,-0.014845609664916992,0.016411438584327698,-0.3746817708015442,-0.07818631827831268,-0.04588449001312256,-1.3930902775044356,-2.024864638647138,-1.9236936101182003
1.9948010444641113,-0.0010069459676742554,0.011131703853607178,0.011412739753723145,-0.33025383949279785,-0.055834412574768066,-0.03721696510910988,-1.3911616399350244,-2.0416658349879313,-1.940062208733992
2.0048680305480957,0.0009372532367706299,0.010811328887939453,-0.0009300634264945984,-0.35807129740715027,-0.0414905808866024,-0.02791491709649563,-1.3892925394449906,-2.0581670865238006,-1.956394073150068
2.0150229930877686,-0.006787031888961792,-0.0027144551277160645,0.016259431838989258,-0.405121386051178,-0.013759084045886993,-0.05995972082018852,-1.3871427788147541,-2.075133116101154,-1.9733211639279866
2.026669979095459,-0.01667143404483795,-0.035957515239715576,0.033588774502277374,-0.46744734048843384,0.01108394656330347,-0.056314386427402496,-1.384457244679969,-2.094114207087283,-1.9927062272765432
2.0362610816955566,-0.02054448425769806,-0.040213942527770996,0.02173079550266266,-0.4657968282699585,-0.0016091223806142807,-0.08195700496435165,-1.3815111901512378,-2.113447059951481,-2.0124090867418714
2.044995069503784,-0.008758589625358582,-0.014949500560760498,0.016857996582984924,-0.49371102452278137,0.005620028357952833,-0.10499441623687744,-1.378156346714909,-2.1320612789501974,-2.03138932204185
2.0552330017089844,-0.008599415421485901,-0.03419095277786255,0.002101317048072815,-0.4174385964870453,-0.002090888563543558,-0.10713820904493332,-1.3747591021331418,-2.1489778261027,-2.048662360694988
2.0649490356445312,-0.00700165331363678,-0.016562998294830322,-0.012136824429035187,-0.16880320012569427,-0.014894035644829273,-0.05768783390522003,-1.3723238121204064,-2.159419024239197,-2.059210619942121
2.0753939151763916,0.002048000693321228,0.044669389724731445,-0.028000809252262115,0.22216887772083282,-0.032549817115068436,0.014222628436982632,-1.3723311712581907,-2.158106081682532,-2.057651592389152
2.087001085281372,0.015615582466125488,0.1201333999633789,-0.07302604615688324,0.42618435621261597,-0.039948876947164536,0.048697516322135925,-1.3744619603633383,-2.1452549917839163,-2.0441145511702388
2.0953590869903564,0.002117544412612915,0.12108099460601807,-0.06515312194824219,0.30325886607170105,-0.024965845048427582,0.03703441470861435,-1.3768928209786608,-2.13041998414198,-2.028675978615467
2.1055591106414795,-0.012501731514930725,0.00572282075881958,-0.0016728490591049194,0.11177600175142288,-0.019746314734220505,0.023819809779524803,-1.3782531561797602,-2.1225540218813754,-2.0204243060566736
2.1149771213531494,-0.009909957647323608,-0.07357931137084961,0.031136155128479004,-0.032228779047727585,-0.001848807092756033,-0.0009323019767180085,-1.37850361369729,-2.1215494776963832,-2.019275271601916
2.1250720024108887,-0.01019984483718872,-0.07930481433868408,0.020899415016174316,-0.024893634021282196,0.009080539457499981,-0.0024172805715352297,-1.3782825870085527,-2.1230885235589185,-2.0208962383570612
2.135728120803833,-0.012310042977333069,-0.03490787744522095,0.014576077461242676,0.056531764566898346,-0.004198469687253237,0.0037699351087212563,-1.3783940234838896,-2.1223550542186955,-2.0201827077609646
2.145047903060913,-0.0052848756313323975,0.021110236644744873,0.00961005687713623,0.05438046529889107,-0.016825316473841667,-0.009752531535923481,-1.3786973970447467,-2.1196041867879276,-2.0172678796003436
2.1553261280059814,0.0031132400035858154,0.012624680995941162,0.019015073776245117,-0.013611153699457645,-0.006087583024054766,0.011844426393508911,-1.378786065718179,-2.119100757937319,-2.0166077151492217
2.165107011795044,0.007834181189537048,-0.026491940021514893,0.02343165874481201,0.017601095139980316,-0.003671563696116209,0.00030361779499799013,-1.378910000972002,-2.119073304879229,-2.016561246898732
2.1753079891204834,0.00653250515460968,-0.025167882442474365,0.010280482470989227,0.08463040739297867,-0.0040750764310359955,0.02394886687397957,-1.3793282602706645,-2.116811579085743,-2.0142292600885603
2.1857011318206787,0.0032969266176223755,0.0015957355499267578,0.010268092155456543,0.11153579503297806,-0.0014081872068345547,0.021878259256482124,-1.3800530389222734,-2.1129567115208534,-2.010271539605955
2.195255994796753,0.006721124053001404,0.008123695850372314,0.015017382800579071,0.09163584560155869,0.0003909114748239517,0.018586430698633194,-1.3807122993145151,-2.109064148685347,-2.0062964947787045
2.205245018005371,0.006644979119300842,-0.018476903438568115,0.02805318683385849,0.070757195353508,-0.002676251344382763,0.016906775534152985,-1.3812231992445094,-2.106188895960719,-2.003352942788177
2.215472936630249,0.007136806845664978,-0.02771294116973877,0.0340895801782608,0.03721306473016739,-0.00032747630029916763,0.028539303690195084,-1.3816517512559816,-2.104442532551748,-2.0015487067539683
2.225586175918579,0.005896627902984619,-0.025341808795928955,0.025864720344543457,0.000595129793509841,0.010081222280859947,0.033967357128858566,-1.3820252753783675,-2.1043726783477545,-2.001516450259258
2.236063003540039,0.0029831677675247192,-0.02927476167678833,0.010593175888061523,0.005644150078296661,0.021899089217185974,0.041886214166879654,-1.3823303901617678,-2.1054928729007205,-2.002835140236554
2.2451419830322266,0.005126774311065674,-0.03166455030441284,0.0020328760147094727,0.07131051272153854,0.02349059283733368,0.05479269102215767,-1.3828699074730273,-2.1052750394979314,-2.0028403071707133
2.255290985107422,0.009234219789505005,-0.014297008514404297,0.004818320274353027,0.17957723140716553,0.029766865074634552,0.06742549687623978,-1.3840006054330383,-2.1014165425423794,-1.999167116898279
2.2652008533477783,0.010342732071876526,0.006149232387542725,0.009370207786560059,0.2455330789089203,0.029714133590459824,0.07318485528230667,-1.3856539619341457,-2.0934179670870083,-1.9913113560082496
2.2753169536590576,0.004962697625160217,0.006217837333679199,0.017203815281391144,0.2826134264469147,0.03119857981801033,0.08477669209241867,-1.387613089314817,-2.083643137126797,-1.9816403639300932
2.2860019207000732,0.009184837341308594,-0.0011643171310424805,0.02264774590730667,0.2602732181549072,0.05249907448887825,0.08885052800178528,-1.3895327101818076,-2.07433527493503,-1.9725362238251716
2.2952589988708496,0.01051640510559082,-0.00445711612701416,0.015755653381347656,0.17103873193264008,0.0773405060172081,0.0827716514468193,-1.3911300799646933,-2.067659304145534,-1.9663371819547377
2.305290937423706,0.006063669919967651,-0.0010040998458862305,0.009837515652179718,-0.02263193018734455,0.09718398749828339,0.05647852644324303,-1.3918751141467764,-2.067048220233511,-1.9665235409128217
2.3153350353240967,0.00930061936378479,-0.021964728832244873,0.018289200961589813,-0.17342354357242584,0.11946630477905273,0.027960065752267838,-1.3915893411358247,-2.0731296258958247,-1.9737843520869327
2.325472116470337,0.013240590691566467,-0.0339430570602417,0.021852731704711914,-0.16773955523967743,0.11936537176370621,0.01900438778102398,-1.3908223065586858,-2.0817694612504645,-1.9837766535848462
2.3371551036834717,0.010369852185249329,0.006086945533752441,0.016168586909770966,-0.0569181814789772,0.09958114475011826,0.007788698188960552,-1.3903614947252245,-2.0871387165317166,-1.9903274477775814
2.345844030380249,0.011961132287979126,0.05425506830215454,0.005174517631530762,0.03239971399307251,0.09133999049663544,0.01231553964316845,-1.3903832215851686,-2.087743971197534,-1.9918889631065526
2.3553810119628906,0.009897366166114807,0.05746561288833618,0.0013077259063720703,0.07489591091871262,0.0817679688334465,0.003661757567897439,-1.3906890796688671,-2.084823392776434,-1.9897818906219482
2.365319013595581,0.005631774663925171,0.03697097301483154,0.0005692243576049805,0.12026818841695786,0.06386460363864899,0.010493830777704716,-1.3912126257138506,-2.0803157028433437,-1.985916746635234
2.3753740787506104,0.009026288986206055,0.027322888374328613,0.002810366451740265,0.15489979088306427,0.0534786731004715,-0.0008982134750112891,-1.3919235952766964,-2.0736927429795258,-1.9797514688359328
2.3857481479644775,0.002764090895652771,0.01186072826385498,0.004361756145954132,0.1961260586977005,0.030187200754880905,-0.010853641666471958,-1.3927253503620274,-2.0646953705655346,-1.9710434922934439
2.3953311443328857,-0.0007102340459823608,0.0009303092956542969,0.010911226272583008,0.1716364324092865,0.023582695052027702,-0.021342609077692032,-1.3934441919967473,-2.055462954732144,-1.9618934946716082
2.4054269790649414,0.0028107911348342896,-0.005021810531616211,0.005269996821880341,0.06964083015918732,0.028287168592214584,-0.027508892118930817,-1.3937100041058461,-2.0498627982866187,-1.9564349869666702
2.4153778553009033,0.003231257200241089,-0.029727697372436523,-0.00919497013092041,-0.0004519920330494642,0.026183759793639183,-0.03966419771313667,-1.393548281560495,-2.0481228452176827,-1.9549245102377604
2.4254891872406006,0.0011584609746932983,-0.03707093000411987,-0.00724482536315918,-0.01890689879655838,0.01713353954255581,-0.05564768984913826,-1.3931374200649929,-2.0476368401048153,-1.9546365917310886
2.4359090328216553,0.0018839091062545776,-0.028687894344329834,-0.0019822120666503906,-0.0027025460731238127,0.013743557035923004,-0.049026113003492355,-1.3926725737119743,-2.04708931892278,-1.954239196023457
2.445513963699341,0.0039825439453125,-0.01129072904586792,-0.004129879176616669,0.027198094874620438,0.0032621538266539574,-0.05298596993088722,-1.3923169227647196,-2.0453716531599717,-1.9525647133208384
2.45558500289917,0.0035052448511123657,-0.0008807778358459473,-0.004057280719280243,0.04121917113661766,0.004028877709060907,-0.05270357057452202,-1.3920395861082397,-2.042582561187194,-1.9497517525073171
2.465548038482666,0.004158109426498413,-0.011544525623321533,-0.0015791654586791992,0.07436860352754593,-0.0039217229932546616,-0.05125773698091507,-1.39185563320967,-2.0385642030366786,-1.9456732804582424
2.4758288860321045,0.007398068904876709,-0.009429514408111572,0.0022197961807250977,0.10667184740304947,0.002271369332447648,-0.051361121237277985,-1.3918032458245229,-2.0331483950870637,-1.9401500894909565
2.4856131076812744,0.012494727969169617,-0.005541801452636719,-0.0008722692728042603,0.09787622094154358,0.018166977912187576,-0.040878649801015854,-1.3918210682837626,-2.027139983651795,-1.9341179946155935
2.4954822063446045,0.012439563870429993,-0.005875587463378906,0.002100221812725067,0.12213720381259918,0.04314214736223221,-0.03477095812559128,-1.3919820291651237,-2.0205343212746936,-1.9277262278404605
2.505563974380493,0.009717509150505066,-0.002167999744415283,0.008224837481975555,0.18938975036144257,0.06269694119691849,-0.03034265525639057,-1.3923272101793822,-2.0114196711016152,-1.9190025954443026
2.515516996383667,0.00979343056678772,0.004943430423736572,0.013374678790569305,0.26916760206222534,0.09015750885009766,-0.008532058447599411,-1.3930975756553736,-1.9989242721393496,-1.9070581845203485
2.5256290435791016,0.013187646865844727,0.019183039665222168,0.011559009552001953,0.3422713875770569,0.14561517536640167,0.012334074825048447,-1.3943796114460545,-1.9825771258898024,-1.8916363510176633
2.537572145462036,0.007116585969924927,0.01676177978515625,0.002439141273498535,0.4586208462715149,0.20750592648983002,0.02200358733534813,-1.3960990579197976,-1.9610337913979736,-1.8715309238677167
2.545542001724243,0.0015795528888702393,0.006996870040893555,0.00031054019927978516,0.6608974933624268,0.27367880940437317,0.034980904310941696,-1.398392648637988,-1.930426619233637,-1.8428716331898625
2.5556299686431885,-0.00010976195335388184,0.016436457633972168,0.0014153718948364258,0.9082181453704834,0.34876397252082825,0.055076371878385544,-1.4013858991437182,-1.8866483227356192,-1.8015782738589414
2.5655581951141357,-0.005276128649711609,0.03491365909576416,-0.0018258057534694672,1.1028964519500732,0.39154261350631714,0.08051781356334686,-1.4049605533423133,-1.8273968265787999,-1.7452888567562213
2.575676202774048,-0.009668439626693726,0.0469244122505188,0.010197639465332031,1.0261095762252808,0.3655083179473877,0.06844571232795715,-1.408120099440908,-1.7611894678149307,-1.6819847188218373
2.5857040882110596,-0.007946103811264038,0.015570342540740967,0.05855727195739746,0.5948635339736938,0.4008936882019043,0.0764642208814621,-1.4100934547921873,-1.7084915277725294,-1.6324356529982393
2.5956361293792725,-0.0026082843542099,-0.08598834276199341,0.09161901473999023,0.3191988170146942,0.4201427102088928,0.12707455456256866,-1.4116992572346305,-1.6779729652435467,-1.605717973137569
2.6056811809539795,-0.0016364604234695435,-0.08967429399490356,0.07833850383758545,0.2977212071418762,0.429548442363739,0.1180669516324997,-1.4132045658774859,-1.6561686338647845,-1.587935874757743
2.615550994873047,-0.01097133755683899,-0.06504201889038086,0.029425621032714844,0.4661058187484741,0.4495692849159241,0.13918469846248627,-1.4147383634855555,-1.628413133703694,-1.5643130883738194
2.6256868839263916,-0.015820547938346863,-0.023954391479492188,-0.012799501419067383,0.6944167613983154,0.4531286060810089,0.20463640987873077,-1.416642400101224,-1.587474862079229,-1.5274590441698455
2.6359431743621826,-0.006795182824134827,0.04418116807937622,-0.02960413694381714,0.9909843802452087,0.4563295543193817,0.26603618264198303,-1.4189121726457343,-1.5283383911045187,-1.4722316904528294
2.6458840370178223,0.0010527819395065308,0.06413519382476807,-0.027214348316192627,1.332133173942566,0.4556528329849243,0.3004809617996216,-1.4207684573192447,-1.4458728875329636,-1.3934325124072118
2.6566879749298096,-0.007151111960411072,0.05301946401596069,-0.012211382389068604,1.692122459411621,0.4906480610370636,0.3658953905105591,-1.421328709457686,-1.3387034008172156,-1.2898217720868852
2.665879964828491,-0.022050172090530396,0.06098109483718872,-0.0056419894099235535,2.061777114868164,0.504470944404602,0.42844530940055847,-1.4196190082654094,-1.2067459243153165,-1.1614597802469517
2.6758029460906982,-0.029505655169487,0.07743793725967407,0.004546046257019043,2.0945520401000977,0.42721882462501526,0.4206589460372925,-1.4146830487402335,-1.0675698963909295,-1.0252921576615224
2.6863791942596436,-0.021956682205200195,0.06272560358047485,0.0406031459569931,1.7884666919708252,0.4344139099121094,0.35080769658088684,-1.4074111503683153,-0.9466259129383622,-0.9071408846078857
2.69582200050354,-0.009489089250564575,-0.06920087337493896,0.06006322801113129,1.260108470916748,0.48172903060913086,0.30823832750320435,-1.4005136902883482,-0.8589920391815656,-0.822913212413832
2.7058398723602295,-0.021685197949409485,-0.15400052070617676,0.06967633962631226,0.8546816110610962,0.4992164075374603,0.31713488698005676,-1.3957551407496243,-0.7976988107496766,-0.765717745553635
2.71579909324646,-0.02995738387107849,-0.12779784202575684,0.06690846383571625,0.7234333157539368,0.4812840521335602,0.31203392148017883,-1.3924380572519168,-0.7498012007049984,-0.7220633060392189
2.726300001144409,-0.01896177977323532,-0.08181202411651611,0.03476975858211517,0.8346967101097107,0.4288847744464874,0.2944149971008301,-1.3887157567723565,-0.7047894608079316,-0.6809549321698319
2.736201047897339,-0.006580740213394165,-0.022662818431854248,0.004772648215293884,1.1054844856262207,0.3605217933654785,0.31136471033096313,-1.3831209150912191,-0.655958155360864,-0.6353012970163414
2.745818853378296,0.0008640438318252563,0.04675024747848511,-0.006925061345100403,1.51445734500885,0.31383392214775085,0.36510783433914185,-1.3745587630458276,-0.5991931099792892,-0.5809017073948768
2.7559149265289307,0.013828285038471222,0.10847365856170654,-0.01920531690120697,2.1002936363220215,0.2875595688819885,0.4359743297100067,-1.3615164966644189,-0.5329146300648904,-0.5162967677554308
2.765768051147461,0.02021634578704834,0.16053342819213867,-0.028953716158866882,2.863215923309326,0.27195557951927185,0.5285266637802124,-1.3420087220323893,-0.45815078283934535,-0.44257500725237553
2.776057004928589,0.008420415222644806,0.21246886253356934,-0.017807066440582275,3.686319351196289,0.2662363350391388,0.6351708769798279,-1.3143997569545574,-0.3800173448021121,-0.36486806490547447
2.786194086074829,-0.01484677940607071,0.2428516149520874,0.01540464162826538,4.437772274017334,0.2886905372142792,0.7292443513870239,-1.2782986572858175,-0.3057428131921807,-0.2905855616618824
2.7956960201263428,-0.03374069929122925,0.23718100786209106,0.07010877132415771,5.064803600311279,0.3283653259277344,0.8136584162712097,-1.2344631710301732,-0.2402178637568176,-0.22494528863535845
2.80597186088562,-0.04833143204450607,0.2030017375946045,0.13283610343933105,5.563279151916504,0.3965507745742798,0.8660092353820801,-1.1841504709814568,-0.18507270453428878,-0.16986858512522043
2.815757989883423,-0.06440915167331696,0.1579614281654358,0.18325185775756836,5.9437336921691895,0.46988362073898315,0.8977819681167603,-1.1286170741771495,-0.13962577350112987,-0.12500649411556064
2.8259451389312744,-0.07834777981042862,0.1309632658958435,0.22012513875961304,6.161002159118652,0.5245505571365356,0.9176983833312988,-1.0694591208791928,-0.10252118167460195,-0.08899801511160829
2.8369879722595215,-0.08149908483028412,0.11960715055465698,0.24835044145584106,6.236403465270996,0.5498396158218384,0.8927072286605835,-1.0082939654455785,-0.07247642087973262,-0.06038512019458119
2.8460018634796143,-0.07353594154119492,0.08509558439254761,0.2710142135620117,6.112120151519775,0.5966957807540894,0.8082134127616882,-0.9469941281640216,-0.04852201319054599,-0.03842882183151382
2.8560950756073,-0.06842856109142303,0.02993255853652954,0.284989595413208,5.874645233154297,0.6931578516960144,0.7215093374252319,-0.8873173704345365,-0.029107732885606415,-0.022047090573557707
2.865957021713257,-0.06836310774087906,0.0061563849449157715,0.2708781957626343,5.662679672241211,0.8276424407958984,0.6697771549224854,-0.8296938826189326,-0.011996660529109015,-0.00955067793285783
2.8759281635284424,-0.07348651438951492,0.03553307056427002,0.23397105932235718,5.414238929748535,0.8779289722442627,0.6191483736038208,-0.7742250968316551,0.0035002367717324907,4.890628508617026e-05
2.886653184890747,-0.0708053708076477,0.0673990249633789,0.2289344072341919,5.03009557723999,0.8872767090797424,0.5954878330230713,-0.7218586565200614,0.01744947659013297,0.00755916511553673
2.8959338665008545,-0.047477394342422485,0.05441159009933472,0.2307424545288086,4.630762577056885,0.8707805275917053,0.5620927214622498,-0.6733165151264993,0.030189491920254594,0.013652590505298634
2.90596604347229,-0.02636086940765381,0.007257521152496338,0.21064269542694092,4.167114734649658,0.8700449466705322,0.47200730443000793,-0.6290972441896716,0.041691470704410004,0.01820587043051342
2.9166738986968994,-0.02719075232744217,-0.043469905853271484,0.19357728958129883,3.750897169113159,0.8475413918495178,0.39164209365844727,-0.5893604947634501,0.05196860983459308,0.021172224275165304
2.927272081375122,-0.03525363653898239,-0.05779606103897095,0.17263948917388916,3.4079806804656982,0.8218522667884827,0.3437821567058563,-0.5534022623990331,0.0614039595218916,0.02311994589572538
2.9362640380859375,-0.031168896704912186,-0.045768171548843384,0.13487112522125244,3.112849235534668,0.7593042850494385,0.28434062004089355,-0.5206317662648042,0.06991590408611786,0.02429350140501729
2.946053981781006,-0.010630279779434204,-0.03636869788169861,0.10353481769561768,2.8442037105560303,0.7185246348381042,0.21884921193122864,-0.49075275130373075,0.07740525033051619,0.024586958116365323
2.9562880992889404,0.010065548121929169,-0.03479936718940735,0.06712961196899414,2.6555190086364746,0.6743560433387756,0.1858382225036621,-0.46318736383207376,0.08431069749888437,0.02435081623776906
2.9661848545074463,0.019193440675735474,-0.008455365896224976,0.03326970338821411,2.4940590858459473,0.6043223738670349,0.16468526422977448,-0.4373666396676659,0.09046177846978451,0.023801646734368357
2.9761099815368652,0.025149978697299957,0.0029784440994262695,0.026005208492279053,2.3593015670776367,0.5490202307701111,0.15702205896377563,-0.41302246798206504,0.09591953521033211,0.0230628309732409
2.9863579273223877,0.027513377368450165,0.003283470869064331,0.01994377374649048,2.2422637939453125,0.517863392829895,0.1649998277425766,-0.3899634896376506,0.10096831595002319,0.02233246568480862
2.9967591762542725,0.023484796285629272,0.008083939552307129,0.007954120635986328,2.127804756164551,0.48230311274528503,0.1831977516412735,-0.36801031882063323,0.1057752375922088,0.021763657413025675
3.006274938583374,0.021051838994026184,0.007080107927322388,0.0006750226020812988,2.003408432006836,0.45168742537498474,0.20541995763778687,-0.3472212690051468,0.1103307455253132,0.021443750121564298
3.016105890274048,0.01816868782043457,-0.0004603862762451172,-0.002121269702911377,1.8591105937957764,0.43555134534835815,0.21880033612251282,-0.3277699771764808,0.11475011905283101,0.021384072874707474
3.026177167892456,0.016360625624656677,-0.008961796760559082,-0.003096163272857666,1.7329649925231934,0.4251317083835602,0.2213311344385147,-0.30964748151590926,0.11908744879722755,0.0214918111874699
3.0369479656219482,0.010744556784629822,-0.016939222812652588,-0.0030451416969299316,1.5768702030181885,0.417131245136261,0.21971330046653748,-0.2929306921112495,0.12336512807997732,0.021685219626852416
3.046489953994751,0.006236955523490906,-0.012990623712539673,-0.003373563289642334,1.4428749084472656,0.39780575037002563,0.22199402749538422,-0.2776686036559475,0.1275354395470043,0.022002811689741456
3.056138038635254,0.007671430706977844,-0.005964785814285278,0.0030608773231506348,1.2870590686798096,0.36443665623664856,0.20577198266983032,-0.2638210773552491,0.13145836715778428,0.022386328680977643
3.0662271976470947,0.016034960746765137,-0.014198124408721924,0.008815407752990723,1.1162141561508179,0.3389451503753662,0.19299466907978058,-0.25164800177275626,0.13507046297994452,0.02278647945411425
3.0766119956970215,0.0209989994764328,-0.007937207818031311,0.023346424102783203,0.9745976328849792,0.3264084756374359,0.18541786074638367,-0.24103840537548385,0.1384940042101532,0.023246557483981103
3.086379051208496,0.01821814477443695,0.0022376030683517456,0.028643667697906494,0.8606255054473877,0.31402742862701416,0.1879366785287857,-0.23168693711418425,0.1418574734380743,0.023822545985404054
3.0961430072784424,0.01290842890739441,0.008970260620117188,0.024645209312438965,0.7574448585510254,0.29102128744125366,0.1839093416929245,-0.22341347034527295,0.14504611460430783,0.024538033561519387
3.1063039302825928,0.016399383544921875,0.002866491675376892,0.023383259773254395,0.6669746041297913,0.27196717262268066,0.17127211391925812,-0.21611225385567642,0.14803291179002329,0.025278122481638885
3.1161611080169678,0.020579233765602112,-0.006764739751815796,0.01659226417541504,0.6015937328338623,0.24503877758979797,0.15351282060146332,-0.209605415785308,0.15077448041085964,0.02596485320647279
3.1262969970703125,0.021709293127059937,-0.007734701037406921,0.007197558879852295,0.5696457028388977,0.2132486253976822,0.1327657252550125,-0.20359637649474374,0.15319883847220542,0.0265118692604426
3.136699914932251,0.02071891725063324,-0.009789198637008667,0.003601372241973877,0.5242300033569336,0.1788274496793747,0.12017084658145905,-0.19798502921669772,0.15524177655206933,0.026934067784337778
3.146270990371704,0.02252618968486786,-0.008425161242485046,-0.0005521774291992188,0.46839043498039246,0.15455247461795807,0.10467897355556488,-0.1928924509023615,0.15696572910557374,0.027279487270418654
3.1566898822784424,0.02034430205821991,-0.009609699249267578,-0.004256844520568848,0.40973854064941406,0.14863044023513794,0.09544622153043747,-0.18839553484140914,0.15854275459434802,0.02757795122741961
3.166349172592163,0.014833435416221619,-0.016499921679496765,-0.00783681869506836,0.3400324583053589,0.13118113577365875,0.08364548534154892,-0.18453772553910433,0.16000105101522585,0.027869352112208055
3.176344156265259,0.011368632316589355,-0.022365331649780273,-0.012275218963623047,0.2570039629936218,0.11472702771425247,0.07109954953193665,-0.1814558062474071,0.16127739740262717,0.02816365332689288
3.186814069747925,0.0076517462730407715,-0.027839168906211853,-0.009040355682373047,0.17617464065551758,0.10904357582330704,0.062295399606227875,-0.17920268979150347,0.16244542475909854,0.028471785095181806
3.1971030235290527,0.004699096083641052,-0.03374317288398743,-0.0069599151611328125,0.11596888303756714,0.11093899607658386,0.05478864535689354,-0.1776820230512745,0.16360246320973817,0.02882517743001035
3.206428050994873,-0.00203607976436615,-0.030745580792427063,-0.007732212543487549,0.07445579022169113,0.10538097470998764,0.05273055285215378,-0.17666745435189216,0.16475705935039203,0.029219763419880498
3.2160890102386475,-0.006087303161621094,-0.022464260458946228,-0.009100794792175293,0.04788608103990555,0.09285537153482437,0.05516175180673599,-0.17598974346133267,0.16582897666372376,0.02966465639798947
3.226431131362915,-0.003851592540740967,-0.015020996332168579,-0.01015162467956543,0.051959384232759476,0.08128313720226288,0.058119192719459534,-0.1754194312677184,0.16679382838862913,0.030143512495638458
3.2369911670684814,-8.222460746765137e-05,-0.0069871991872787476,-0.014888405799865723,0.07609892636537552,0.06273746490478516,0.060583680868148804,-0.17469883855050808,0.16758903139165945,0.03063068102105786
3.246504068374634,0.00038732588291168213,0.003017827868461609,-0.0160599946975708,0.10383760929107666,0.04995961859822273,0.06018420681357384,-0.173696590792328,0.1682384175724127,0.031083439431267252
3.2563819885253906,0.0003893524408340454,0.006049364805221558,-0.01691228151321411,0.11202184855937958,0.0415426529943943,0.05857102572917938,-0.17253984470847034,0.16876758616298904,0.031495106678427386
3.266453981399536,-0.0021692663431167603,0.00630931556224823,-0.01619720458984375,0.11952850222587585,0.0351627841591835,0.05451050400733948,-0.1713003251842203,0.16921289015890825,0.031862220535587064
3.2765109539031982,-0.0034943968057632446,0.006029278039932251,-0.013986825942993164,0.11978763341903687,0.02983921393752098,0.05229400843381882,-0.17002063537021822,0.16959685383756146,0.03218408754817115
3.286876916885376,-0.0017855018377304077,0.009846389293670654,-0.01447826623916626,0.10160303860902786,0.0193660669028759,0.05013285204768181,-0.1688261823789767,0.16989175173430912,0.032511728556012094
3.2964160442352295,-0.0017836987972259521,0.010523036122322083,-0.009766817092895508,0.06577844172716141,0.012317167595028877,0.04423438012599945,-0.1677374424856666,0.16998379874403344,0.03282351778459751
3.306624174118042,-0.0032595694065093994,0.002279311418533325,-0.002528846263885498,0.04629901796579361,0.01937774010002613,0.04267669469118118,-0.16702960811606665,0.17010020502367595,0.033153233980841655
3.316967010498047,-0.007259860634803772,0.0002174079418182373,0.00323641300201416,0.041530512273311615,0.027104059234261513,0.0358390286564827,-0.16650552162520948,0.17035452545157395,0.033471824921645195
3.326590061187744,-0.010030239820480347,0.0052013099193573,0.006489217281341553,0.03724095970392227,0.019842151552438736,0.028081506490707397,-0.1661399682318026,0.17060393309082028,0.03371264833533735
3.33708119392395,-0.009749248623847961,0.007413893938064575,0.012751579284667969,0.028294501826167107,0.008819149807095528,0.02716953307390213,-0.1658768978006929,0.170731123480223,0.03392529622944751
3.3466899394989014,-0.00473080575466156,0.003984734416007996,0.02024441957473755,0.03771489858627319,0.008035648614168167,0.02746754139661789,-0.16562525999468009,0.17078841061379085,0.03413050288871438
3.356534004211426,-0.0018337368965148926,0.011569008231163025,0.02006709575653076,0.059815891087055206,0.004893428646028042,0.027185512706637383,-0.16517595781307054,0.17082473548017718,0.03431499221370389
3.3666000366210938,-0.0035649091005325317,0.02247518301010132,0.01674520969390869,0.07141582667827606,-0.0030606347136199474,0.028873423114418983,-0.16459206180909128,0.17081509782257645,0.034471667167200265
3.376512050628662,0.0005017518997192383,0.01933129131793976,0.011630773544311523,0.062016163021326065,-0.0029539307579398155,0.02254926785826683,-0.16400490235166632,0.17075886663402437,0.03460884165407141
3.3870551586151123,0.003967538475990295,0.007217004895210266,0.010655343532562256,0.049673475325107574,0.003281328361481428,0.011319517157971859,-0.16346240463377726,0.1707256275211764,0.034666925432114665
3.396754026412964,0.0021463483572006226,0.0005602538585662842,0.01149815320968628,0.01954515278339386,0.011231441050767899,0.00960614625364542,-0.16314161664039575,0.17073775987812592,0.03469768754478905
3.4067699909210205,-0.003637745976448059,0.00029553472995758057,0.013431787490844727,-0.00250875111669302,0.024445513263344765,0.005532840732485056,-0.16314700119698627,0.17084878659890002,0.03475535001567684
3.4164600372314453,-0.003872483968734741,-0.0031729191541671753,0.013652443885803223,-0.007565045729279518,0.03379147872328758,-0.0013534544268622994,-0.1633373547199589,0.17107994200291357,0.03478277259282052
3.426673173904419,-0.0014244616031646729,-0.004463493824005127,0.01197671890258789,0.0019999637734144926,0.029168497771024704,-0.00309942290186882,-0.163470025762946,0.17139080603081658,0.034762806715052566
3.436638116836548,0.00042384862899780273,0.0066971927881240845,0.013032019138336182,0.009462341666221619,0.019826216623187065,-0.007095549255609512,-0.16358713100230013,0.17162751628370565,0.034704111446705696
3.446714162826538,0.005053624510765076,0.00772818922996521,0.014462828636169434,0.013880258426070213,0.010181845165789127,-0.009708110243082047,-0.16376394196337132,0.17175159695085207,0.03459784197653645
3.456796884536743,0.008039608597755432,0.004042506217956543,0.020101070404052734,0.028219033032655716,-0.0011005918495357037,-0.012896019965410233,-0.16377236675949372,0.17178809922890115,0.03444980744353414
3.466844081878662,0.007157564163208008,0.005514815449714661,0.028709232807159424,0.03277676925063133,-0.010197417810559273,-0.011509045958518982,-0.1635328314854085,0.17173112379679306,0.034280100590024995
3.4768688678741455,0.0036330968141555786,0.004473179578781128,0.02991253137588501,0.02030794881284237,-0.01210024580359459,-0.011697438545525074,-0.16330495282453872,0.17159872270906243,0.0341252490740648
3.4870588779449463,0.0027192533016204834,-0.000477716326713562,0.02308422327041626,0.006667769514024258,-0.007484721951186657,-0.010493156500160694,-0.16320383923635073,0.17146852367356094,0.03398384211298927
3.4966859817504883,0.0025122910737991333,-0.006671711802482605,0.014395952224731445,-0.0016530775465071201,0.002661122940480709,-0.006035930942744017,-0.16320275595196243,0.1714145772403653,0.03389443450529255
3.5067851543426514,0.00022809207439422607,-0.005803599953651428,0.008529067039489746,0.001790123526006937,0.009787742048501968,-0.007207455113530159,-0.1631889570768483,0.1714722064736705,0.0338336423744406
3.5167160034179688,-0.0015295445919036865,-0.0035025328397750854,0.0072176456451416016,-0.002122592879459262,0.011940108612179756,-0.005677202716469765,-0.16325385928117217,0.17158687844919474,0.0337721930089773
3.5268030166625977,-0.0013723969459533691,-0.002536788582801819,0.0061571598052978516,0.0016311327926814556,0.025595733895897865,-0.004085431341081858,-0.16335762429077275,0.17180489773318208,0.0337245063707976
3.5371880531311035,0.0017298907041549683,-0.005484670400619507,0.0045400261878967285,0.010952062904834747,0.03545590862631798,-0.0015635777963325381,-0.1633451219939719,0.17217635436830891,0.03368868035916233
3.5468220710754395,-0.0019353777170181274,-0.0020997226238250732,0.0019167661666870117,0.016606220975518227,0.031595923006534576,0.0009424567688256502,-0.16328579128629647,0.17258602297957135,0.033676562316615276
3.5567610263824463,-0.001180797815322876,0.00411456823348999,0.0017001032829284668,0.017698248848319054,0.02160072512924671,-0.0035730390809476376,-0.1631735377182923,0.17288967108635514,0.03364943395343334
3.566861867904663,0.003258839249610901,0.00071755051612854,0.00610882043838501,0.023125505074858665,0.024389853700995445,-0.010482610203325748,-0.16301313139245246,0.17313691801062897,0.033548104607132055
3.576850175857544,0.002841368317604065,-0.0037537366151809692,0.0031431913375854492,0.01800363138318062,0.022301891818642616,-0.0130644915625453,-0.16279709723958963,0.1733718186472156,0.03339532922847767
3.5870959758758545,0.0013840049505233765,-0.0018239766359329224,0.00041288137435913086,0.015999335795640945,0.016269031912088394,-0.018567649647593498,-0.16261977199232405,0.17353171824032484,0.033209196972143244
3.597241163253784,-0.00040596723556518555,-0.005420759320259094,0.003328979015350342,0.011027979664504528,0.014421065337955952,-0.02989812009036541,-0.16250718210879028,0.17362750275028166,0.03293558240074557
3.6080269813537598,0.0008859783411026001,-0.013928383588790894,0.0016401410102844238,-0.0028516165912151337,0.011456167325377464,-0.03180920332670212,-0.16251577025067396,0.1736800339080194,0.03261204414297576
3.6168301105499268,-0.00021125376224517822,-0.010767325758934021,0.0018488168716430664,-0.005095562897622585,0.011013372801244259,-0.031832002103328705,-0.16257510598187763,0.17374308777264397,0.03230414034819164
3.6269350051879883,-0.0012574344873428345,-0.009351581335067749,0.002657473087310791,-0.007007179781794548,0.017469141632318497,-0.028119288384914398,-0.16268671266462825,0.17381793885868674,0.03200402191992105
3.6370251178741455,-0.004483237862586975,-0.012569621205329895,0.001724541187286377,-0.00042357947677373886,0.026936057955026627,-0.0202006995677948,-0.1628088150069586,0.17398482121352302,0.03177029411744811
3.646902084350586,-0.006432428956031799,-0.014654532074928284,0.0013216137886047363,0.010753707960247993,0.031372882425785065,-0.016200363636016846,-0.16281868208002173,0.17427937498356996,0.03158677450535014
3.6569600105285645,-0.005894497036933899,-0.013866469264030457,0.002905547618865967,0.029875019565224648,0.027754491195082664,-0.012153211049735546,-0.16262311891385955,0.1745680707163066,0.031407143662091505
3.6669180393218994,-0.0038387924432754517,-0.0070930421352386475,0.004863142967224121,0.0397537499666214,0.019332511350512505,-0.010227479040622711,-0.16226898760190636,0.17478199999264152,0.031243066218418335
3.676966905593872,-0.0003333836793899536,-0.006266206502914429,0.0042302608489990234,0.03883244842290878,0.021686701104044914,-0.004548821598291397,-0.16184862068479483,0.1749467868664247,0.03110163670275056
3.687602996826172,7.405877113342285e-05,-0.0060596764087677,0.003993988037109375,0.03761991113424301,0.023428408429026604,0.003861175151541829,-0.16136108341583336,0.17517291295178877,0.031041266505109282
3.6969449520111084,-0.003249645233154297,-0.004781410098075867,0.0005524158477783203,0.04015533626079559,0.019766561686992645,0.004329252056777477,-0.1608853747699515,0.1753919180982032,0.03101456301734109
3.7070560455322266,-0.003017514944076538,-0.005494728684425354,-0.0006846189498901367,0.03166677802801132,0.011293182149529457,-0.0026935036294162273,-0.16046410460877378,0.17551775484700777,0.030950356845302063
3.7168450355529785,-0.0003506392240524292,-0.00614599883556366,-0.00015652179718017578,0.027248594909906387,0.0014585726894438267,-0.006930380128324032,-0.16010368867907684,0.17552665300073317,0.03085446683688284
3.727957010269165,0.0021237432956695557,-0.0026119351387023926,0.0005186796188354492,0.02721450664103031,0.003941970411688089,-0.007051021326333284,-0.15973878522852658,0.1754822817783466,0.030729807562532564
3.7374188899993896,0.0019169002771377563,0.0033443868160247803,-0.004444301128387451,0.02502262592315674,0.0004479913040995598,-0.007952873595058918,-0.15940877941695114,0.17545021289563287,0.030608322396422277
3.747044086456299,0.0022428035736083984,0.007614105939865112,-0.006877541542053223,0.02184094488620758,-0.007690362632274628,-0.016820134595036507,-0.1591642623984616,0.1753591212560961,0.030444925421719227
3.75700306892395,0.0042878687381744385,0.00458855926990509,-0.003452122211456299,0.021598132327198982,-0.012053152546286583,-0.022882182151079178,-0.15896773999447442,0.17522760132850007,0.03021387805574638
3.7671701908111572,0.00529363751411438,0.0043031275272369385,-0.001705765724182129,0.02308870479464531,-0.02100936323404312,-0.02686547115445137,-0.1587623067933162,0.17501910937395723,0.029926707299720457
3.77708101272583,0.005657300353050232,0.007057651877403259,0.0015326142311096191,0.012621166184544563,-0.030442234128713608,-0.034762702882289886,-0.15861516185598362,0.17468802098557856,0.02958138727987948
3.787429094314575,0.006172090768814087,0.0019001811742782593,0.0036306381225585938,0.003945386502891779,-0.02647971734404564,-0.03572623431682587,-0.1585688060232096,0.1743299396383023,0.02921268269007945
