timestamp,accel_x,accel_y,accel_z,rotation_x,rotation_y,rotation_z, pitch,roll,yaw
0.04688096046447754,-0.03419148921966553,-0.01165558397769928,-0.0016425251960754395,0.05350029841065407,0.005375608801841736,0.02572363056242466,-0.1970718627063742,0.2214305450900037,0.02197874616984555
0.06138014793395996,-0.03506854176521301,-0.014270484447479248,-0.003833472728729248,0.04004973918199539,0.00852666050195694,0.019688108935952187,-0.1965486037923122,0.22151038185099553,0.022097738970980926
0.06256103515625,-0.03510904312133789,-0.019795268774032593,-0.0025590062141418457,0.021848445758223534,0.011472250334918499,0.015338633209466934,-0.19620745827192584,0.22163312058638523,0.022194091375353074
0.06936812400817871,-0.03628188371658325,-0.022750213742256165,0.00026029348373413086,0.010012026876211166,0.006178684998303652,0.007866336032748222,-0.19603095741328466,0.2217346383275484,0.022275714452128358
0.0754082202911377,-0.034681543707847595,-0.0215626060962677,0.0009455680847167969,0.008524118922650814,0.0008416217751801014,0.005255852360278368,-0.19592469729187584,0.22176372137860087,0.022312021257998763
0.08439898490905762,-0.028792157769203186,-0.018530085682868958,-0.0003879070281982422,0.00840827077627182,-0.0066642314195632935,0.0031479601748287678,-0.19583542804828025,0.22172835933791274,0.022330718239280477
0.09209203720092773,-0.027659639716148376,-0.01569730043411255,-0.0032480955123901367,0.006062392145395279,-0.010310187935829163,0.0019222138216719031,-0.19574752897769654,0.2216252103762128,0.022342560373346216
0.10235714912414551,-0.02723643183708191,-0.01093284785747528,-0.0053997039794921875,-0.0038762581534683704,-0.011116592213511467,0.00247801560908556,-0.19572820680595315,0.22150101759581903,0.02235544637248226
0.11216306686401367,-0.02786538004875183,-0.013066217303276062,-0.00564199686050415,-0.014358876273036003,-0.0049824900925159454,-0.0005934081855230033,-0.19581862544880463,0.22141287383183036,0.02238160137523261
0.12229514122009277,-0.03197354078292847,-0.017211437225341797,-0.002912461757659912,-0.015497378073632717,-0.005636029876768589,-0.0005081869894638658,-0.19596891204079356,0.22135951649906188,0.02241412157782126
0.13219523429870605,-0.03356851637363434,-0.01852254569530487,0.0004897117614746094,-0.011842971667647362,-0.0023948298767209053,-0.0019637111108750105,-0.19610775401421293,0.22131034419158258,0.022437709241031566
0.1422121524810791,-0.03435814380645752,-0.01484672725200653,0.0031300783157348633,-0.0072855036705732346,0.0025184364058077335,-0.002465717028826475,-0.19620267520624765,0.22129464427539175,0.022437504465783832
0.1522219181060791,-0.03556559979915619,-0.013350099325180054,0.0021819472312927246,-0.011377484537661076,0.012426815927028656,-0.00171204237267375,-0.19629473517937285,0.22136465922751253,0.022435735575358603
0.16252923011779785,-0.03554163873195648,-0.01326008141040802,0.00029671192169189453,-0.013991376385092735,0.015389582142233849,-0.0019410742679610848,-0.1964207527041661,0.2215047243174875,0.022444978458805685
0.17230010032653809,-0.034540459513664246,-0.012285202741622925,0.0008630156517028809,-0.009014943614602089,0.009115751832723618,-0.00549836503341794,-0.19653138102017087,0.22161155020377749,0.022433110577940663
0.18230700492858887,-0.03268060088157654,-0.012428522109985352,0.003143012523651123,-0.005150697194039822,0.002796337241306901,-0.011470237746834755,-0.19661528045832896,0.22164899331597018,0.022363550794724164
0.19249415397644043,-0.028154462575912476,-0.010062083601951599,0.004446208477020264,-0.012423274107277393,-0.006630853749811649,-0.018177036195993423,-0.19672283704609922,0.2215960198749401,0.022228551791991125
0.20266413688659668,-0.025485530495643616,-0.011630460619926453,0.0017238855361938477,-0.029481887817382812,-0.0073166172951459885,-0.02254248969256878,-0.1967506193866045,0.22110427725359003,0.021990423167787
0.21237707138061523,-0.023460447788238525,-0.012693285942077637,-0.0010204315185546875,-0.03419233486056328,-0.008765511214733124,-0.02591729909181595,-0.19690080579588695,0.2206052427439545,0.02174794033278367
0.2223069667816162,-0.023883238434791565,-0.011251181364059448,-0.003308236598968506,-0.014566969126462936,-0.011787133291363716,-0.021245049312710762,-0.19704847667102993,0.22011288736190376,0.02148478960215557
0.23237013816833496,-0.024140477180480957,-0.011247575283050537,-0.004447638988494873,-0.0018305177800357342,-0.01676364801824093,-0.017933569848537445,-0.1970292372921326,0.21953581414804108,0.021249500893121175
0.2424471378326416,-0.02214491367340088,-0.005015820264816284,-0.003075897693634033,0.00610516918823123,-0.013172643259167671,-0.011508161202073097,-0.19688290820844176,0.21895890663283915,0.021022309327310112
0.2525320053100586,-0.023290038108825684,-0.0019273757934570312,-0.001568615436553955,0.004508337937295437,-0.006991267204284668,-0.011125784367322922,-0.19672103102948552,0.21847432591561183,0.02083265912816638
0.2628939151763916,-0.02920648455619812,-0.013626188039779663,-7.855892181396484e-05,-0.0010057368781417608,0.000679435208439827,-0.012361757457256317,-0.19660735376971072,0.21809860298095993,0.02064926531090555
0.27237820625305176,-0.03189605474472046,-0.019096016883850098,0.005057215690612793,-0.005794350057840347,0.007400232367217541,-0.010834327898919582,-0.19658354263597339,0.21786270520901876,0.020491293617904752
0.2826201915740967,-0.03441508114337921,-0.019527733325958252,0.008465588092803955,0.0014899279922246933,0.00799917709082365,-0.010808494873344898,-0.19651032006491292,0.21768560166595105,0.020343399239233777
0.2925570011138916,-0.0323108434677124,-0.01883476972579956,0.007295429706573486,0.007527497597038746,0.008595947176218033,-0.00954743567854166,-0.19634830525808064,0.21752065937210882,0.020189487706489033
0.30254292488098145,-0.03046111762523651,-0.016171202063560486,0.004472017288208008,0.004959677346050739,0.015398725867271423,-0.006010756827890873,-0.19618401763664267,0.2173824326229266,0.020059746165304173
0.3125112056732178,-0.027604341506958008,-0.015821829438209534,0.002636551856994629,0.009740566834807396,0.018786489963531494,-0.00018306839046999812,-0.19601450364055747,0.21733959979723338,0.01996697115590354
0.32253003120422363,-0.025456935167312622,-0.017628386616706848,0.0007956027984619141,0.009906481951475143,0.017180070281028748,0.00347318546846509,-0.1958806317202551,0.21729019646181993,0.01991968593451781
0.3325231075286865,-0.024075016379356384,-0.016795054078102112,-0.003123641014099121,0.009695959277451038,0.015078391879796982,0.00426584854722023,-0.19579330862585,0.21721365347380478,0.019895986295028083
0.34250402450561523,-0.021902844309806824,-0.011708900332450867,-0.00423121452331543,0.00852869637310505,0.005864654202014208,-0.0006607328541576862,-0.19557045287052083,0.2170230228320018,0.01983306619052844
0.3527860641479492,-0.02022606134414673,-0.014458298683166504,-0.005886197090148926,-0.002594528952613473,-0.0001809876412153244,-0.006860039196908474,-0.19537112072750695,0.216729372134274,0.019724672308495665
0.3626120090484619,-0.01736849546432495,-0.015576168894767761,-0.003560185432434082,-0.014283941127359867,0.00023020431399345398,-0.013183982111513615,-0.1953129470690859,0.2163880316673506,0.019576475170664298
0.3726499080657959,-0.019571706652641296,-0.015230312943458557,-0.0008006095886230469,-0.02288813330233097,-0.00039666006341576576,-0.018641969189047813,-0.19536480178497637,0.2160620401350504,0.019389235331481725
0.3826310634613037,-0.02318035066127777,-0.01792757213115692,-0.0029840469360351562,-0.01746433787047863,0.0011690123938024044,-0.017751408740878105,-0.1954700793823336,0.2157560263569804,0.01919259247003103
0.392686128616333,-0.02096158266067505,-0.015577927231788635,-0.005138397216796875,-0.0031522447243332863,-0.001495302189141512,-0.016607634723186493,-0.19547026843394041,0.21547879863101194,0.018997735930616034
0.4026470184326172,-0.020217597484588623,-0.010882198810577393,-0.006590664386749268,0.01177690364420414,0.002250700257718563,-0.012574277818202972,-0.19528769465676518,0.2152199972618561,0.018800995450257926
0.4127531051635742,-0.02022649347782135,-0.011357098817825317,-0.0060509443283081055,0.0207221619784832,-0.002778146415948868,-0.0032029333524405956,-0.1949629671022293,0.21497644287219428,0.018642466691724518
0.42258501052856445,-0.021956667304039,-0.01196296513080597,-0.006312370300292969,0.018086697906255722,-0.0024353982880711555,-0.0012031655060127378,-0.19466288839681184,0.21474684879381573,0.018542477098122064
0.4326660633087158,-0.020644277334213257,-0.014101281762123108,-0.005106627941131592,0.0065840561874210835,-0.0020946464501321316,0.0016349651850759983,-0.19440063579886951,0.21454444200907039,0.018488972624427648
0.44338297843933105,-0.020997658371925354,-0.02085842192173004,-0.0037758350372314453,0.0041102454997599125,-0.006265955977141857,0.003161222906783223,-0.19418035848186632,0.2143624698331457,0.018482616702284203
0.4526522159576416,-0.021016746759414673,-0.023566976189613342,0.0002148747444152832,-0.0015983068151399493,-0.011861257255077362,0.003262849058955908,-0.19401720373226758,0.214104851230699,0.018475358831781453
0.4644029140472412,-0.021189048886299133,-0.02329525351524353,0.005171477794647217,-0.004852689802646637,-0.010614098981022835,0.008786511607468128,-0.19388023370581084,0.21380129627352573,0.01850661703361918
0.47289609909057617,-0.022029191255569458,-0.019837379455566406,0.004847526550292969,-0.0012901956215500832,-0.007672061212360859,0.011529088020324707,-0.1937618149136554,0.2135585234897442,0.018585345815200386
0.48287105560302734,-0.022829309105873108,-0.017420485615730286,6.914138793945312e-05,0.0032494287006556988,-0.008438784629106522,0.01337918546050787,-0.19363130388643618,0.2133212538351386,0.018675293464399577
0.49294590950012207,-0.02224692702293396,-0.013371124863624573,-0.0024923086166381836,0.006926687899976969,-0.004100051708519459,0.013710269704461098,-0.1934543794800401,0.2131042828329302,0.018766688776735478
0.5029840469360352,-0.021484851837158203,-0.0094003826379776,-0.0012621879577636719,0.017430728301405907,-0.0023575453087687492,0.012222628109157085,-0.19320208289198434,0.21291950033743062,0.018831070321191863
0.5143330097198486,-0.024389192461967468,-0.008452609181404114,0.0005921721458435059,0.017692632973194122,-0.002480272203683853,0.012746205553412437,-0.19287380641924137,0.2127360310653788,0.018885437605430436
0.5228002071380615,-0.022395238280296326,-0.006925642490386963,0.0010205507278442383,0.02272547408938408,0.00011684233322739601,0.014009342528879642,-0.19246849248904244,0.21258098572402506,0.01893901845299861
0.5329601764678955,-0.019665002822875977,-0.004242390394210815,-0.0013312697410583496,0.02152300626039505,-0.0019017006270587444,0.010593359358608723,-0.192004489429312,0.21241951964237016,0.018981612108049932
0.5429270267486572,-0.020195022225379944,-0.003650575876235962,-0.0008714199066162109,0.01243576966226101,-0.0039496710523962975,0.00734510226175189,-0.19161922936113443,0.2122401687351265,0.019008062114064396
0.5535991191864014,-0.019864052534103394,-0.005407288670539856,0.000673830509185791,-4.600733518600464e-07,-0.0036646248772740364,0.004148988984525204,-0.19140361353394383,0.21204530368636987,0.019028641306362067
0.5644619464874268,-0.020848438143730164,-0.009946182370185852,0.004356980323791504,0.0001854286529123783,-0.0038941893726587296,0.002879726467654109,-0.19127090081584333,0.21184122694329013,0.019029306246646706
0.5728731155395508,-0.01953659951686859,-0.010781273245811462,0.002469003200531006,0.006313378922641277,-0.012774188071489334,0.0045685432851314545,-0.19112678196606156,0.21158131822085188,0.019019956462098673
0.582909107208252,-0.016105741262435913,-0.008726358413696289,0.0009544491767883301,0.012263413518667221,-0.009489712305366993,0.007107335142791271,-0.19097649588672705,0.21129143490020472,0.01902535039821141
0.5928690433502197,-0.016678139567375183,-0.005837991833686829,0.0025593042373657227,0.014832114800810814,-0.011137808673083782,0.009612837806344032,-0.19078545937165697,0.21100558168420885,0.019031699421747005
0.6028580665588379,-0.018482357263565063,-0.00888301432132721,0.002407371997833252,0.002163191791623831,-0.006688199937343597,0.0074777803383767605,-0.19065427013891656,0.2107496971453671,0.01906769429822491
0.6144959926605225,-0.02084648609161377,-0.012055262923240662,0.004506707191467285,-0.0030382112599909306,-0.003624899312853813,0.010713680647313595,-0.1906371350773704,0.21057316218307343,0.01913239576471361
0.6229100227355957,-0.01971203088760376,-0.014065995812416077,0.003455042839050293,0.0033219498582184315,-0.00860021635890007,0.008346397429704666,-0.1906025552596845,0.210375516850272,0.019191129719511424
0.6329519748687744,-0.018942400813102722,-0.01234900951385498,0.0034756064414978027,-0.0010643595596775413,-0.007140848785638809,0.009515045210719109,-0.19054779216349088,0.21017562137319312,0.01926480371763716
0.6429870128631592,-0.018558070063591003,-0.009434938430786133,0.005535125732421875,-0.005682813469320536,-0.00587930902838707,0.011245567351579666,-0.19050152904545262,0.20999596245791716,0.019339675444382316
0.6531422138214111,-0.019287988543510437,-0.009840339422225952,0.005243062973022461,-0.0062475865706801414,-0.007249550428241491,0.007640074007213116,-0.19046374653982034,0.20981702084482157,0.019413851706909173
0.6666209697723389,-0.019599229097366333,-0.014171063899993896,0.004966616630554199,-0.012460474856197834,-0.0038968962617218494,0.008766057901084423,-0.19047646173527114,0.2096649818543784,0.01949058451107012
0.6740250587463379,-0.01835031807422638,-0.012411043047904968,0.005768299102783203,-0.012565969489514828,0.0025491074193269014,0.009658483788371086,-0.19054880506211055,0.20955914021085267,0.019587590447875648
0.6829221248626709,-0.020277932286262512,-0.010699033737182617,0.005719780921936035,-0.0031684732530266047,0.0042479378171265125,0.010653440840542316,-0.19054572039992881,0.20950067822983473,0.019678523795004736
0.6929450035095215,-0.021128296852111816,-0.012290924787521362,0.003779292106628418,0.007639932446181774,0.003296478884294629,0.013521664775907993,-0.19041093629873804,0.20941140965692298,0.019764602142832752
0.7029812335968018,-0.018750905990600586,-0.00776904821395874,0.0015674233436584473,0.011394989676773548,0.0027478677220642567,0.012829243205487728,-0.19017248311769192,0.20932532227680056,0.019859040203500447
0.7146511077880859,-0.01875007152557373,-0.003742724657058716,-0.00027889013290405273,0.009253459051251411,0.0018100356683135033,0.011384211480617523,-0.18994143212408515,0.20923559277679593,0.019936529876838267
0.7232410907745361,-0.019738197326660156,-0.00750887393951416,0.0016089081764221191,0.0035060907248407602,0.002040132647380233,0.006642986088991165,-0.18981431167212953,0.20914713620221095,0.019982130293138278
0.7330701351165771,-0.019792035222053528,-0.012854069471359253,0.002675294876098633,-0.004253844730556011,0.002956659533083439,0.0042955162934958935,-0.1897568613142017,0.2090578961347392,0.02000922877470631
0.7429559230804443,-0.021009832620620728,-0.013202950358390808,0.0025216341018676758,-0.006763341370970011,0.0017124307341873646,0.0036888481117784977,-0.18970813984704707,0.20895756978927738,0.020032649398766474
0.7531270980834961,-0.021503716707229614,-0.014071986079216003,0.00013506412506103516,-0.003692466765642166,0.00043673207983374596,0.004903675988316536,-0.1896763326686795,0.2088668162915808,0.020053142015768088
0.7641980648040771,-0.020227625966072083,-0.013118162751197815,-0.0007939934730529785,-0.0027904543094336987,0.00015470338985323906,0.005590238608419895,-0.18963732623923493,0.20874403644046707,0.02009303499107489
0.7730672359466553,-0.01859337091445923,-0.011031150817871094,-0.0018371343612670898,0.004317805636674166,-0.0004933769814670086,0.007029837463051081,-0.18954760252863107,0.2086275782405529,0.02013279278114347
0.7831199169158936,-0.020701587200164795,-0.012776240706443787,-0.001150965690612793,0.012071864679455757,-0.00840323232114315,0.0137465950101614,-0.1893979443320861,0.2084653304241659,0.020191845817600515
0.793083906173706,-0.018350079655647278,-0.012733608484268188,-0.002340078353881836,0.008868282660841942,-0.005666124168783426,0.012836167588829994,-0.18926131610865932,0.20828338919186246,0.020267101693949893
0.8030900955200195,-0.017394065856933594,-0.011090576648712158,0.00012487173080444336,0.001848455984145403,-0.004945205990225077,0.01600665971636772,-0.18914203258091947,0.2081252841853241,0.02037804859175896
0.8149101734161377,-0.02101399004459381,-0.015864059329032898,-0.0007533431053161621,0.000662950100377202,-0.005387911573052406,0.015469660982489586,-0.18901517799150025,0.20798099392799269,0.02050479762013068
0.8231232166290283,-0.021649792790412903,-0.01706632971763611,0.00023221969604492188,-0.0022284439764916897,-0.007189273834228516,0.015447556972503662,-0.188903204485111,0.20781242876903389,0.020637548075914888
0.8331549167633057,-0.021374911069869995,-0.014348164200782776,0.0010123848915100098,-0.009556581266224384,-0.00544263981282711,0.013455778360366821,-0.18883892452349138,0.20763496073484872,0.020765795482842676
0.8432281017303467,-0.019788354635238647,-0.014581829309463501,0.0016110539436340332,-0.010631965473294258,-0.006576080806553364,0.011579315178096294,-0.18882826023463672,0.2074761526716737,0.020882875791551316
0.8543388843536377,-0.019761070609092712,-0.013915956020355225,0.0005366802215576172,-0.0028256410732865334,-0.008032741025090218,0.007539832964539528,-0.18880280422592244,0.20730385714965552,0.02097444109607789
0.8647170066833496,-0.016969308257102966,-0.008334711194038391,0.0005801916122436523,2.391170710325241e-07,-0.009220246225595474,0.006021297536790371,-0.18871312637678594,0.20709451043042762,0.02102610911078446
0.8733370304107666,-0.017083540558815002,-0.006163313984870911,-0.00043839216232299805,-0.0025489055551588535,-0.00651598209515214,0.001890309271402657,-0.1886307043378578,0.2069243146504608,0.021058091301147715
0.8834331035614014,-0.017278850078582764,-0.007978662848472595,-0.0015227198600769043,-0.005414200481027365,-0.007521857973188162,-0.0013225283473730087,-0.18858366161659998,0.2067446592505166,0.021066648936921967
0.8932101726531982,-0.01658564805984497,-0.009989172220230103,0.00018966197967529297,-0.002247086027637124,-0.005350005812942982,0.001415680511854589,-0.18851781345272717,0.20656063055184767,0.021048320697300688
0.9032421112060547,-0.016051143407821655,-0.008124127984046936,0.0005118250846862793,0.012181387282907963,-0.010661947540938854,0.0015602902276441455,-0.18832787045203858,0.20634625576132232,0.02102691508615732
0.917100191116333,-0.017773061990737915,-0.004547610878944397,-0.0003128647804260254,0.017375651746988297,-0.008898756466805935,0.0007397703593596816,-0.18808881115968076,0.2061121366620838,0.02097620075648786
0.9236800670623779,-0.01683056354522705,-0.004399850964546204,0.0006744265556335449,0.015694664791226387,-0.006799919530749321,0.0027933339588344097,-0.1878296797609899,0.20591512352886887,0.020949992156779614
0.9332659244537354,-0.0181075781583786,-0.004855290055274963,0.0002422332763671875,0.023304879665374756,-0.0049175089225173,0.0014148816699162126,-0.18754771690924432,0.20574035405892027,0.020914889400836394
0.9432408809661865,-0.019624650478363037,-0.007631257176399231,0.0022147297859191895,0.03705797716975212,-0.006822467781603336,0.0020146253518760204,-0.18720491771201375,0.20557485665744876,0.020855422863672753
0.9533450603485107,-0.018664851784706116,-0.006338208913803101,0.002733886241912842,0.05244145914912224,-0.009745108895003796,0.005001041106879711,-0.186743032922677,0.20538370239121062,0.020778987948608024
0.9653151035308838,-0.01785138249397278,-0.0020548105239868164,0.000795900821685791,0.06809871643781662,-0.004379372112452984,0.0078261224552989,-0.18611079649626072,0.20519532258810244,0.020705025369718376
0.9733932018280029,-0.01733425259590149,-0.0019646286964416504,0.0015220046043395996,0.08881641179323196,-0.003035187255591154,0.010273193940520287,-0.18528931868696757,0.20505392570104294,0.02062195796638567
0.9835121631622314,-0.01882687211036682,-0.002141311764717102,-0.0002695918083190918,0.11061704903841019,-0.011313356459140778,0.0134567366912961,-0.18425828624601268,0.20486835160855907,0.020524725551154005
0.9934210777282715,-0.01699666678905487,0.0015987157821655273,-0.00222623348236084,0.11500627547502518,-0.018372243270277977,0.013123735785484314,-0.18312365980737227,0.20460354406538472,0.020406883706501018
1.0035121440887451,-0.01361393928527832,0.004471525549888611,-0.0023314356803894043,0.11057557165622711,-0.021652990952134132,0.007266911678016186,-0.1820177586714106,0.20428087217708227,0.02026262870023385
1.014409065246582,-0.014490634202957153,0.0010806471109390259,0.0003085136413574219,0.09537354856729507,-0.03363233432173729,0.0026676859706640244,-0.1810128586450251,0.20386969445232345,0.020085412441815484
1.0233919620513916,-0.016509711742401123,-0.006729483604431152,0.002720952033996582,0.06111304089426994,-0.048344697803258896,-0.005252022761851549,-0.18023489069907303,0.20332279601145928,0.019882598682918876
1.0334088802337646,-0.014870971441268921,-0.004676029086112976,0.006210029125213623,-0.016530368477106094,-0.06641562283039093,-0.025339819490909576,-0.18002433171544877,0.20261190069367419,0.019667357050944863
1.043454885482788,-0.017714649438858032,-0.010773316025733948,0.011194765567779541,-0.19525642693042755,-0.09586992114782333,-0.06832084059715271,-0.18111930435103063,0.20166113761893714,0.01939449162764587
1.0535480976104736,-0.021966785192489624,-0.033499330282211304,0.02285444736480713,-0.5851501226425171,-0.15309712290763855,-0.17801660299301147,-0.18502012526969727,0.2002826580042243,0.018977173280220364
1.0650169849395752,-0.02400098741054535,-0.0689786970615387,0.04637551307678223,-1.2266058921813965,-0.19797325134277344,-0.3520432710647583,-0.1943142488049327,0.19831784448887443,0.01810167463805425
1.073436975479126,-0.036166876554489136,-0.14008155465126038,0.10170525312423706,-1.998083472251892,-0.331643283367157,-0.5224408507347107,-0.2108076276501498,0.1955038127637656,0.017018133148697216
1.0834839344024658,-0.04594859480857849,-0.24437832832336426,0.1460202932357788,-3.0728440284729004,-0.4255727231502533,-0.79520183801651,-0.23688299311624664,0.19122897327853858,0.015290889463151932
1.0934710502624512,-0.03799891471862793,-0.2954389154911041,0.15824413299560547,-4.201013565063477,-0.5092414021492004,-0.9677252173423767,-0.27426743753940597,0.18606049543102732,0.013381675646691954
1.103478193283081,-0.033451929688453674,-0.3437517583370209,0.13442951440811157,-5.383327484130859,-0.6382859349250793,-1.3078852891921997,-0.32348519421626654,0.17963969309085417,0.010910175156759409
1.1146240234375,-0.006947815418243408,-0.36745381355285645,0.0930260419845581,-6.582582950592041,-0.7445195317268372,-1.6003631353378296,-0.3849311019693683,0.17108821954229478,0.006642535529251765
1.1235768795013428,-0.0007645338773727417,-0.3320785164833069,0.10862869024276733,-7.934074878692627,-0.9979954957962036,-1.921170711517334,-0.459549120797141,0.16015979142036807,0.0009404938411059709
1.1343591213226318,0.012048386037349701,-0.302951455116272,0.10798931121826172,-9.399445533752441,-1.3406760692596436,-2.475609302520752,-0.5484150091295585,0.1437825294633939,-0.008868084510698138
1.1434710025787354,0.0026764869689941406,-0.2943255305290222,0.1828441023826599,-11.298113822937012,-1.650194525718689,-3.0511059761047363,-0.6544626492182716,0.11917099887525659,-0.02569335162421254
1.1534841060638428,0.004988871514797211,-0.3498607873916626,0.28139954805374146,-13.82386302947998,-1.8447587490081787,-3.690717935562134,-0.7825651648297919,0.0833303775520036,-0.05337903304393475
1.1660759449005127,-0.033763136714696884,-0.33090025186538696,0.35872912406921387,-17.15082550048828,-1.9344141483306885,-4.246829509735107,-0.9390888987000806,0.027747455284156605,-0.10141997199323562
1.1735241413116455,-0.13883869349956512,-0.33408546447753906,0.4736023247241974,-20.84880256652832,-1.5921084880828857,-4.469727039337158,-1.1286455850916788,-0.07109891323372347,-0.1950354890871313
1.1835570335388184,-0.1942373514175415,-0.31202930212020874,0.6156131029129028,-23.917984008789062,-0.8132254481315613,-4.63141393661499,-1.3407933359812794,-0.34652828984003714,-0.47201804682282683
1.1935169696807861,-0.2266944944858551,-0.1574295163154602,0.7115477323532104,-25.47239112854004,-0.006675638724118471,-4.947764873504639,-1.441186999014554,-1.8153663106088123,-1.951381317612182
1.2036778926849365,-0.32026398181915283,0.1596076488494873,0.8283045291900635,-24.43069839477539,0.5891680121421814,-5.4864349365234375,-1.2369630767620718,-2.5730803856886073,-2.727755898056908
1.21464204788208,-0.4672812223434448,0.6638086438179016,0.8818144202232361,-21.657041549682617,0.3718750774860382,-5.951145648956299,-1.0067858491849835,-2.696071252122629,-2.8691427967178034
1.22365403175354,-0.5614845752716064,1.0355452299118042,0.6183786392211914,-18.531982421875,-0.42889538407325745,-5.548804759979248,-0.7988150745855976,-2.735546278419545,-2.9188477647696693
1.2338550090789795,-0.3324655294418335,1.1990811824798584,0.344016969203949,-14.005389213562012,-1.1950572729110718,-4.802929878234863,-0.6279778974750382,-2.7572323047222116,-2.9387329327291494
1.2439119815826416,0.13071653246879578,1.693300724029541,0.032240986824035645,-9.137871742248535,-1.8821702003479004,-3.947967767715454,-0.5043730289029634,-2.7732589268561254,-2.9407558951420603
1.2536330223083496,0.1932026445865631,2.074974536895752,-0.5155660510063171,-4.903778553009033,-2.526451826095581,-3.131366491317749,-0.42661871360656506,-2.7915079342791542,-2.9313855877256336
1.264350175857544,0.18009009957313538,1.9468703269958496,-0.8285020589828491,-2.2023940086364746,-2.4479641914367676,-2.712123155593872,-0.38446122138252825,-2.8102152833746983,-2.914112950210784
1.2736420631408691,0.2775375247001648,1.3138912916183472,-0.8693137168884277,-1.2583212852478027,-1.7845211029052734,-2.2564761638641357,-0.36111177391693705,-2.8244804412966307,-2.894298936919602
1.2836050987243652,0.13257676362991333,0.5672318935394287,-0.8070563673973083,-1.5881564617156982,-1.0155028104782104,-1.8097904920578003,-0.341837253392783,-2.8329364002500723,-2.8782436590157006
1.293576955795288,-0.032397955656051636,0.035781145095825195,-0.4771747589111328,-2.0256752967834473,-0.49458929896354675,-1.4080127477645874,-0.31946348243829065,-2.8367868521518633,-2.867846116208755
1.3037521839141846,-0.015957504510879517,-0.1377078890800476,-0.014902055263519287,-1.9098865985870361,-0.35798802971839905,-1.141174077987671,-0.2964339589768237,-2.8388742487903724,-2.8615112117569605
1.3151271343231201,0.007752358913421631,-0.10957273840904236,0.21984916925430298,-1.273998737335205,-0.45538032054901123,-0.946664571762085,-0.277947922787994,-2.841374360233422,-2.8560972860112486
1.323714017868042,0.017740398645401,-0.07893097400665283,0.19717037677764893,-0.5661845803260803,-0.5243388414382935,-0.7093909978866577,-0.2667923072250204,-2.8448926456519987,-2.8506211647221322
1.3338170051574707,0.04066050052642822,0.0033635199069976807,0.07483935356140137,-0.22738957405090332,-0.4776434600353241,-0.4704616367816925,-0.2616510367734292,-2.8487496313890404,-2.845909349305991
1.3436810970306396,0.04462900757789612,0.08911225199699402,-0.005313873291015625,-0.2983979880809784,-0.31693580746650696,-0.3106312155723572,-0.2581201227363721,-2.8518813871624635,-2.842794465085341
1.3539090156555176,0.0268421471118927,0.0022496283054351807,-0.019855141639709473,-0.41255655884742737,-0.24734288454055786,-0.15870113670825958,-0.2539974962259714,-2.854285992707405,-2.841565242215084
1.3652698993682861,0.0017508268356323242,-0.12095615267753601,0.008022785186767578,-0.37940099835395813,-0.2997587025165558,-0.06920932233333588,-0.2498128009246778,-2.8569902813762966,-2.8416575005477207
1.373769998550415,0.012570202350616455,-0.10543136298656464,0.03403580188751221,-0.30744776129722595,-0.3774607181549072,-0.005833710078150034,-0.24640605317832392,-2.860518598828063,-2.842280164026451
1.3839008808135986,0.040733277797698975,-0.04801277816295624,0.0361788272857666,-0.271355003118515,-0.4384268522262573,0.02556069754064083,-0.24370098210048283,-2.864872952609451,-2.8431971747688407
1.3938350677490234,0.04616066813468933,-0.047016263008117676,0.020935893058776855,-0.26644837856292725,-0.47564274072647095,0.040677011013031006,-0.24121255525527277,-2.8697049859004125,-2.844296387919403
1.4039220809936523,0.046405255794525146,-0.04511521756649017,0.030616283416748047,-0.3152369558811188,-0.4740251898765564,0.046620920300483704,-0.23856439427132037,-2.874772181891751,-2.8454965807308144
1.4156529903411865,0.04635477066040039,-0.037639766931533813,0.06320714950561523,-0.3136117458343506,-0.4447641968727112,0.05718354880809784,-0.23558312430118047,-2.8796884411184034,-2.846893368600961
1.4237611293792725,0.029192402958869934,-0.02275209128856659,0.050710082054138184,-0.23442555963993073,-0.440326064825058,0.061124227941036224,-0.2330938036771897,-2.8844194052951764,-2.8481963160198633
1.4339091777801514,0.01126842200756073,0.008580833673477173,0.017331361770629883,-0.20048758387565613,-0.4296109676361084,0.04392271488904953,-0.23117413654439892,-2.88905279527091,-2.849316774053341
1.4437639713287354,0.003302961587905884,0.04051069915294647,0.013079226016998291,-0.20601657032966614,-0.3983505070209503,0.00896206684410572,-0.22928471354099061,-2.8933724234413525,-2.850094827610511
1.4539802074432373,-0.009485960006713867,0.03493216633796692,0.023682594299316406,-0.20768551528453827,-0.37428370118141174,-0.015455657616257668,-0.22725763233981092,-2.897353362083891,-2.8505731876382447
1.4655911922454834,-0.02415238320827484,0.02030797302722931,0.049043238162994385,-0.19079095125198364,-0.3374452590942383,-0.03231959044933319,-0.2252598150564593,-2.9009700932990516,-2.850825605324513
1.4738609790802002,-0.02697610855102539,0.04123334586620331,0.05838567018508911,-0.15351174771785736,-0.277974933385849,-0.05024527758359909,-0.22348549550930136,-2.9040499100196278,-2.8508405628303235
1.4842190742492676,-0.04156343638896942,0.04797472059726715,0.023464441299438477,-0.08648425340652466,-0.24957525730133057,-0.06728044897317886,-0.22215878803005096,-2.9065843840374384,-2.850549111047577
1.4938762187957764,-0.05750545859336853,0.043330296874046326,0.004035592079162598,-0.04221697151660919,-0.25314611196517944,-0.09496688842773438,-0.2214138607192556,-2.908936244885159,-2.8498822078444452
1.5040340423583984,-0.06463591754436493,0.056063950061798096,0.004984557628631592,-0.061727024614810944,-0.24274863302707672,-0.11969301104545593,-0.22067072410701535,-2.911213935600194,-2.848932225552185
1.5143070220947266,-0.07211440801620483,0.05171799659729004,0.009672880172729492,-0.04470429942011833,-0.25033968687057495,-0.14745262265205383,-0.2197922828613692,-2.913381076707458,-2.8477240078461143
1.5240590572357178,-0.09066025912761688,0.021949201822280884,0.020206809043884277,0.025314467027783394,-0.2591345012187958,-0.16466569900512695,-0.21933776336358093,-2.915625642310623,-2.84618724756092
1.534147024154663,-0.09162378311157227,0.022962301969528198,0.02362644672393799,0.10042823851108551,-0.2455255389213562,-0.1730203479528427,-0.21961302723935672,-2.9177790343280643,-2.844342035262704
1.5439651012420654,-0.08968593180179596,0.027991443872451782,0.005602061748504639,0.16185325384140015,-0.2205118089914322,-0.13670308887958527,-0.22052622989499812,-2.9196886803177624,-2.8424739457434964
1.5539982318878174,-0.09291009604930878,0.01879577338695526,0.008571505546569824,0.18939192593097687,-0.20338808000087738,-0.13289280235767365,-0.22205352831898106,-2.92145972808848,-2.840721017591096
1.5646710395812988,-0.07346771657466888,0.03153187036514282,0.03369760513305664,0.16781073808670044,-0.11590003967285156,-0.10400496423244476,-0.2235605312238977,-2.92272725527571,-2.8391018852424925
1.5740680694580078,-0.05926862359046936,0.018511950969696045,0.04025238752365112,0.2173580378293991,-0.05193255469202995,-0.06506166607141495,-0.22514560500687225,-2.923231290510049,-2.837848215602477
1.5845520496368408,-0.061973556876182556,-0.005375400185585022,0.03358614444732666,0.38045215606689453,-0.037619128823280334,-0.029711665585637093,-0.22797179792998248,-2.92341188739797,-2.8367245810193604
1.5939629077911377,-0.04222278296947479,0.034037694334983826,0.036373019218444824,0.5356210470199585,-0.00999806635081768,0.010511494241654873,-0.2324544399438389,-2.923397512476588,-2.8355953603350263
1.6040019989013672,-0.013356536626815796,0.060792505741119385,0.028741836547851562,0.6189857125282288,0.041064318269491196,0.05386083573102951,-0.2382068293582948,-2.923030682240355,-2.8346324875671938
1.614293098449707,-0.00454084575176239,0.05280140042304993,0.012608945369720459,0.7344487309455872,0.06950727850198746,0.11474724113941193,-0.24494395141182512,-2.922262919281675,-2.833968023326122
1.6239700317382812,-0.002701878547668457,0.037700921297073364,0.015780925750732422,0.9123721122741699,0.07954606413841248,0.17511817812919617,-0.2533301465168727,-2.9214230757029784,-2.8335641477053524
1.6340420246124268,0.017933085560798645,0.04080253839492798,0.02866494655609131,1.0172314643859863,0.13013947010040283,0.2346753478050232,-0.2632530111206601,-2.9203928644157577,-2.833449307613786
1.6439900398254395,0.03940106928348541,0.059129148721694946,0.013731658458709717,1.1741257905960083,0.20576339960098267,0.299656480550766,-0.2744738269439348,-2.918755024277314,-2.8336391879774663
1.6539890766143799,0.038036495447158813,0.054716408252716064,-0.012675166130065918,1.4652423858642578,0.21529079973697662,0.37685075402259827,-0.2880409829890946,-2.9166966489809245,-2.834040087010537
1.6660020351409912,0.03002043068408966,0.03391706943511963,-0.00900810956954956,1.8995890617370605,0.19467872381210327,0.472551167011261,-0.30533912649905026,-2.9147502628233175,-2.834418836333382
1.6741900444030762,0.051747873425483704,0.06665074825286865,0.014001011848449707,2.511460542678833,0.21812555193901062,0.6165140867233276,-0.3279280926666221,-2.9128377375330623,-2.834749188771829
1.6844210624694824,0.06893409788608551,0.1049032211303711,-0.0028601884841918945,3.3045313358306885,0.22695979475975037,0.8228051662445068,-0.35783933286775405,-2.910683483159796,-2.8351357357789486
1.6940381526947021,0.06475238502025604,0.1264185905456543,-0.040490031242370605,4.201659202575684,0.20094390213489532,1.0018784999847412,-0.39647571794047254,-2.908654856418233,-2.8354414540592128
1.7040021419525146,0.06716452538967133,0.15091952681541443,-0.04408574104309082,5.254838943481445,0.19063347578048706,1.1746790409088135,-0.44499762756653916,-2.906484956616706,-2.835041147028517
1.7142999172210693,0.07002280652523041,0.1430492401123047,-0.007487952709197998,6.392658233642578,0.1790088266134262,1.3347920179367065,-0.5045349036649242,-2.903943329381377,-2.8334301199607923
1.7241230010986328,0.05499826371669769,0.11154520511627197,0.038305044174194336,7.75485372543335,0.19904404878616333,1.5275444984436035,-0.5766195405903036,-2.9002789830102835,-2.8300835066249115
1.7341182231903076,0.04530148208141327,0.1080852746963501,0.09148949384689331,9.331950187683105,0.22098183631896973,1.757590413093567,-0.6635261345335856,-2.894846117581194,-2.8243006145899825
1.7441110610961914,0.041538238525390625,0.14097625017166138,0.14671707153320312,11.216897964477539,0.328889399766922,2.0364131927490234,-0.7676448429982389,-2.885863282612278,-2.8148257898811884
1.754272222518921,0.03799806535243988,0.23346847295761108,0.22086822986602783,13.461058616638184,0.3773098587989807,2.339553117752075,-0.8925067174537039,-2.87028349559788,-2.798554654377912
1.7646050453186035,0.011015310883522034,0.34709107875823975,0.2878647446632385,15.792234420776367,0.4250161349773407,2.5726158618927,-1.0401968803921013,-2.840389966940935,-2.767325488002217
1.7741801738739014,-0.005439296364784241,0.4994962215423584,0.4094109833240509,17.380874633789062,0.29719915986061096,2.6389102935791016,-1.2065363525258714,-2.7738604723984275,-2.6981105940506946
1.7842719554901123,-0.04010268300771713,0.6753430366516113,0.5968632698059082,17.937156677246094,0.0797555223107338,1.9788345098495483,-1.3760950350974661,-2.563465640020119,-2.481764063943522
1.7943100929260254,-0.1126176044344902,0.6818904876708984,0.9068204760551453,17.05771827697754,0.82053542137146,1.2981677055358887,-1.4794286698341939,-1.4264126615071695,-1.3407001864813275
1.8043129444122314,-0.2751218378543854,0.18167924880981445,1.1484348773956299,15.506930351257324,1.4098544120788574,1.3585257530212402,-1.378216065500822,-0.4095484679721516,-0.32786330559769994
1.8146090507507324,-0.3827127516269684,-0.17483055591583252,1.0695143938064575,14.035823822021484,1.6973700523376465,1.4349279403686523,-1.2401316676547292,-0.18163371234305456,-0.10877211275212927
1.82436203956604,-0.33383819460868835,0.05288141965866089,1.0258257389068604,12.487927436828613,1.9727709293365479,1.3945515155792236,-1.110201232818715,-0.08694840084398713,-0.02608925312532277
1.8347430229187012,-0.2997094690799713,0.07778042554855347,0.981952965259552,10.787850379943848,2.26470685005188,1.3484704494476318,-0.9946829911131869,-0.029673231271265053,0.015307641779639823
1.8442890644073486,-0.2757382094860077,-0.06709909439086914,0.8801925182342529,9.322117805480957,2.4450089931488037,1.3108079433441162,-0.8943326662338823,0.0136686828875063,0.039439700803515
1.854504108428955,-0.29867762327194214,-0.1387922763824463,0.7630078792572021,8.075817108154297,2.3710482120513916,1.212357997894287,-0.8069071270048487,0.049302220865952644,0.054559795374795064
1.8651111125946045,-0.2914855480194092,-0.16302549839019775,0.6633664965629578,6.893627166748047,2.296860694885254,1.0451772212982178,-0.7314154119588229,0.07882874362508539,0.06356047487412067
1.8743441104888916,-0.23215991258621216,-0.16907775402069092,0.5972607135772705,5.711401462554932,2.23907732963562,0.9283795952796936,-0.6677195186960391,0.10494785189582731,0.06883155215358272
1.8842720985412598,-0.19662176072597504,-0.15691643953323364,0.509026050567627,4.6418867111206055,2.120382308959961,0.8381455540657043,-0.6152453011310973,0.12879306198128998,0.07223866512407508
1.8942430019378662,-0.16662640869617462,-0.12499910593032837,0.4187096953392029,3.590759515762329,2.029204845428467,0.7463638782501221,-0.5733497250245664,0.15100231885620122,0.07483025293977023
1.9043152332305908,-0.13251923024654388,-0.13511008024215698,0.347892165184021,2.671785354614258,1.9247568845748901,0.656028687953949,-0.5414445490696362,0.17199037879068318,0.07701263228833602
1.9173970222473145,-0.11352373659610748,-0.153662770986557,0.2832489609718323,1.9744436740875244,1.6724488735198975,0.6074610948562622,-0.5175210207820279,0.19129886190118822,0.07942344953162729
1.9257681369781494,-0.0927513986825943,-0.1659882366657257,0.2327110767364502,1.4883654117584229,1.3995457887649536,0.513627290725708,-0.49957540965366926,0.20780677019733457,0.08180528998902103
1.9347078800201416,-0.050390779972076416,-0.13872498273849487,0.19794034957885742,1.257063865661621,1.1204109191894531,0.48389747738838196,-0.48522519708168665,0.22147417120760152,0.08400037293376694
1.9442851543426514,-0.01838982105255127,-0.05817583203315735,0.1290687918663025,1.176019549369812,0.8372825980186462,0.48131582140922546,-0.4723163232168162,0.23227468629015474,0.08624735583243996
1.9545671939849854,0.017247527837753296,0.03398787975311279,0.036180078983306885,1.1736656427383423,0.6102083921432495,0.4760877192020416,-0.4597785231769949,0.2404095645724805,0.08836006730597737
1.9658939838409424,0.048122286796569824,0.08707961440086365,-0.048771023750305176,1.150980830192566,0.454150915145874,0.48710840940475464,-0.44729476964758713,0.2466217809721098,0.09044636529764273
1.974485158920288,0.05757114291191101,0.09348174929618835,-0.1266142725944519,1.1309776306152344,0.3549194931983948,0.4921810030937195,-0.43503422814459597,0.251552603136289,0.09259188499501264
1.9844419956207275,0.053180888295173645,0.09881410002708435,-0.17123162746429443,1.1061912775039673,0.2458111196756363,0.4916163980960846,-0.4229453934288653,0.25543660384664824,0.09476536647955218
1.9943530559539795,0.04069593548774719,0.10409495234489441,-0.17098253965377808,1.1152465343475342,0.1746894121170044,0.48252737522125244,-0.41096148616832906,0.2584112740567735,0.09684420116581746
2.00449800491333,0.029226034879684448,0.08946502208709717,-0.14312368631362915,1.1410216093063354,0.07751119136810303,0.45818448066711426,-0.39882252096758763,0.26042611271034166,0.0986379030152062
2.0147171020507812,0.013322427868843079,0.06248214840888977,-0.11009997129440308,1.1202133893966675,0.007599081844091415,0.4312542676925659,-0.3867380590354247,0.2612992804664072,0.1001358969341012
2.0246100425720215,0.0017807185649871826,0.046457886695861816,-0.06297546625137329,1.102013111114502,-0.012968511320650578,0.4349920153617859,-0.374857406251928,0.2618194072228088,0.10151978042298682
2.0361649990081787,-0.014141350984573364,0.023170381784439087,-0.03380006551742554,1.094002366065979,-0.018201354891061783,0.441854327917099,-0.3630810418517939,0.2622490540822561,0.10301350023756306
2.0446600914001465,-0.03146229684352875,0.00018090009689331055,-0.022333145141601562,1.0523452758789062,-0.03640246391296387,0.44225433468818665,-0.35154355491885914,0.2624944787595886,0.10460801946573167
2.054476022720337,-0.03727570176124573,-0.006677180528640747,-0.00035858154296875,0.9875682592391968,-0.005976648069918156,0.4356720745563507,-0.34052107354724315,0.2628366565540669,0.10628178197589928
2.064565896987915,-0.04370678961277008,-0.026597321033477783,0.021517932415008545,0.896465003490448,0.007032360881567001,0.4193330407142639,-0.3303000757587203,0.26340768693522726,0.10808158304727569
2.074552059173584,-0.053702354431152344,-0.04953855276107788,0.032905519008636475,0.8831706047058105,0.10108406841754913,0.40300795435905457,-0.3207094628706731,0.26450256696087604,0.10981881578862243
2.0845460891723633,-0.05165413022041321,-0.05948406457901001,0.04644203186035156,0.9569913148880005,0.10554459691047668,0.41812166571617126,-0.3107856631694591,0.2660797882750569,0.1114633232393726
2.0945050716400146,-0.04974174499511719,-0.06292811036109924,0.03495532274246216,1.053935170173645,0.07393496483564377,0.4369871914386749,-0.2999336996037547,0.2674780689637708,0.11298023661256307
2.104570150375366,-0.034073442220687866,-0.01798379421234131,0.0333256721496582,1.0819545984268188,0.07171974331140518,0.4424980580806732,-0.2883988365313995,0.26857119726637163,0.11445705084896383
2.115368127822876,-0.022449195384979248,0.011685490608215332,0.0342785120010376,1.028518795967102,0.09873098880052567,0.4443834722042084,-0.276983720854252,0.26986830173805126,0.11597804036706835
2.124744176864624,-0.029454052448272705,-0.007242739200592041,0.028773188591003418,0.8962995409965515,0.14623725414276123,0.4083450436592102,-0.266505108380692,0.2714922020233201,0.11759962479469933
2.134711980819702,-0.03658950328826904,-0.03473085165023804,0.024493813514709473,0.726223886013031,0.18204012513160706,0.3593224287033081,-0.2576337906787036,0.27357687446352685,0.11915219171049427
2.1445810794830322,-0.03413712978363037,-0.06152653694152832,0.026791691780090332,0.5302168130874634,0.19104453921318054,0.2877257168292999,-0.2506983468960785,0.2758090813879222,0.12062190159245655
2.1546061038970947,-0.028552532196044922,-0.08047337830066681,0.02714669704437256,0.3425588011741638,0.1985834538936615,0.22563983500003815,-0.245798061580905,0.2780909249667564,0.12191374404473744
2.1657400131225586,-0.019889146089553833,-0.08078187704086304,0.0249519944190979,0.16074371337890625,0.18291687965393066,0.17620091140270233,-0.24282933946025884,0.2803201807753948,0.12319074718901836
2.1746129989624023,-0.008752256631851196,-0.0694715678691864,0.006316959857940674,0.01790047623217106,0.16627967357635498,0.13259825110435486,-0.2415682695181978,0.2823755499264145,0.12447214908198073
2.1846230030059814,0.0032387077808380127,-0.055735617876052856,-0.010030984878540039,-0.06709323823451996,0.14505693316459656,0.09960567951202393,-0.24153371944762086,0.2842252231219032,0.12569647481406562
2.1946260929107666,0.012815386056900024,-0.05300815403461456,-0.025810301303863525,-0.08133628964424133,0.08846024423837662,0.09545711427927017,-0.24199344914274357,0.28568942688997306,0.12687988956439394
2.204612970352173,0.020986586809158325,-0.03507205843925476,-0.044566988945007324,-0.05433716997504234,0.047947704792022705,0.10800273716449738,-0.24237914945732783,0.2866594351869967,0.12807042019410772
2.214973211288452,0.029713869094848633,-0.01118159294128418,-0.05919533967971802,-0.03520891070365906,-0.011297333054244518,0.1311931163072586,-0.2424469717199608,0.2871404440138377,0.12938613670385526
2.2246360778808594,0.03411570191383362,-0.003721281886100769,-0.0741804838180542,-0.03383578732609749,-0.04703642055392265,0.14570680260658264,-0.24236965440294617,0.2872088683243334,0.13085176757548433
2.2348110675811768,0.0331113338470459,-0.011171698570251465,-0.07023859024047852,-0.06629128009080887,-0.09192688018083572,0.16178175806999207,-0.24238963381974568,0.28689602743871656,0.1325272209977208
2.2447621822357178,0.027796924114227295,-0.02841879427433014,-0.06093412637710571,-0.12277133017778397,-0.11165877431631088,0.16959786415100098,-0.24281882253100046,0.28632566619212535,0.13443112838112148
2.254796028137207,0.0250360369682312,-0.043930038809776306,-0.04923593997955322,-0.18296118080615997,-0.13143964111804962,0.1827177256345749,-0.2438021697147246,0.28562621427707535,0.13662505548198906
2.2651469707489014,0.015880435705184937,-0.05504344403743744,-0.039793312549591064,-0.2047266662120819,-0.13865867257118225,0.19230563938617706,-0.24517552875763143,0.28485841251519567,0.13904878409163962
2.2747631072998047,0.008912593126296997,-0.055695727467536926,-0.03125357627868652,-0.17038226127624512,-0.15606069564819336,0.21097855269908905,-0.24644583086354732,0.2840115354086624,0.14160066369760596
2.2847039699554443,0.00027802586555480957,-0.04546076059341431,-0.030775368213653564,-0.09548858553171158,-0.17100103199481964,0.2262618988752365,-0.2471262624174707,0.28301048537209056,0.14416085511001442
2.2950961589813232,-0.007033228874206543,-0.01935938000679016,-0.027806758880615234,-0.01911202073097229,-0.18051089346408844,0.2415815144777298,-0.24700696763718727,0.2818408049866386,0.1466463623440805
2.3046751022338867,-0.014125138521194458,0.003558829426765442,-0.022254347801208496,0.03095913492143154,-0.17799341678619385,0.2421189397573471,-0.24626794099943125,0.28062053777098284,0.149023718717706
2.3150131702423096,-0.02444082498550415,0.010663151741027832,-0.01409292221069336,0.03315090015530586,-0.17073670029640198,0.2251642942428589,-0.2451889389090265,0.27946315489840706,0.15127720043644496
2.3246870040893555,-0.038340598344802856,0.006303682923316956,0.0010407567024230957,0.007122496608644724,-0.14479538798332214,0.20185257494449615,-0.24428779204119014,0.27843240958280857,0.15333801687164028
2.3348472118377686,-0.048684388399124146,-0.0024120956659317017,0.015884041786193848,-0.036352772265672684,-0.12809079885482788,0.17746469378471375,-0.2437562654189094,0.2775915742083144,0.15527861148480765
2.3448870182037354,-0.05679595470428467,-0.01211617887020111,0.025998711585998535,-0.08771636337041855,-0.10985266417264938,0.14916540682315826,-0.24372429396926354,0.2768797818146653,0.15707995330376173
2.3573460578918457,-0.060661137104034424,-0.013653770089149475,0.03487122058868408,-0.1389678567647934,-0.09639789164066315,0.12371772527694702,-0.24430244908297025,0.27628821430298206,0.15876532999520088
2.36598801612854,-0.0595039427280426,-0.015368357300758362,0.03600674867630005,-0.1717204749584198,-0.0843537449836731,0.10464097559452057,-0.2453934439511829,0.2757632652931568,0.16034256637875408
2.3747971057891846,-0.057475775480270386,-0.012763231992721558,0.03220778703689575,-0.16552753746509552,-0.07425285875797272,0.09695519506931305,-0.24671924115844443,0.2753355808177437,0.16180564910982512
2.3848190307617188,-0.05127918720245361,-0.007256999611854553,0.026102662086486816,-0.12352842837572098,-0.07220409065485,0.08988051116466522,-0.2478860734892554,0.2748774306694517,0.1631397225016437
2.3948562145233154,-0.04690858721733093,0.0032453984022140503,0.01713740825653076,-0.03863771632313728,-0.06774609535932541,0.09702705591917038,-0.24844826666301661,0.274403568708025,0.16426469142557232
2.405073881149292,-0.040494173765182495,0.020263925194740295,0.006841480731964111,0.03304792195558548,-0.07613079249858856,0.10976707935333252,-0.2481912677883901,0.27380678625586385,0.16526903854046854
2.41652512550354,-0.036453306674957275,0.03977802395820618,-0.008516430854797363,0.051437146961688995,-0.07294396311044693,0.10769972205162048,-0.24746919738732429,0.27308822056406706,0.16618263229838795
2.424813985824585,-0.032484203577041626,0.044331103563308716,-0.009728550910949707,0.011218622326850891,-0.06253845989704132,0.0910206139087677,-0.24686504416907687,0.2723736548315885,0.1670208388195854
2.434890031814575,-0.036422908306121826,0.024190276861190796,-0.00040709972381591797,-0.060933154076337814,-0.04979705438017845,0.057546116411685944,-0.24689571599469426,0.27170806429918487,0.16776312644479213
2.4448349475860596,-0.042227089405059814,0.003156334161758423,0.010962128639221191,-0.13976165652275085,-0.037661030888557434,0.027647336944937706,-0.24776884534867388,0.2712039264509135,0.16840363363307598
2.4550201892852783,-0.041229248046875,-0.008829846978187561,0.017252206802368164,-0.18748760223388672,-0.03301567584276199,0.0009784960420802236,-0.24933564272001088,0.2708178061374628,0.1689609687356971
2.4653332233428955,-0.03840804100036621,-0.0023229271173477173,0.014444589614868164,-0.21660180389881134,-0.036952629685401917,-0.023373181000351906,-0.25134472238279676,0.2704390904266755,0.169365789625506
2.4750430583953857,-0.03500175476074219,0.006522864103317261,0.008347511291503906,-0.23198926448822021,-0.04170845448970795,-0.0390726774930954,-0.2536341236694487,0.2699938448652267,0.16963492576628028
2.485496997833252,-0.030952483415603638,0.009484201669692993,0.0006393194198608398,-0.2247028648853302,-0.043636586517095566,-0.0533597394824028,-0.2560612437752472,0.26949177835621263,0.16979036619001597
2.4948441982269287,-0.029349327087402344,0.009313523769378662,-0.0030131936073303223,-0.16886982321739197,-0.03957810625433922,-0.05658764764666557,-0.25824148281907333,0.2689779052083869,0.1697417749372592
2.504984140396118,-0.03068813681602478,0.010610908269882202,-0.005517005920410156,-0.08473470062017441,-0.056946177035570145,-0.05308612436056137,-0.2597564782697182,0.268298290785738,0.16950559546742702
2.5151679515838623,-0.030578434467315674,0.021404653787612915,-0.01489633321762085,0.004496537148952484,-0.06389321386814117,-0.04137152060866356,-0.2603504922160014,0.2674052803564509,0.16909420567754638
2.5250320434570312,-0.02686762809753418,0.03726640343666077,-0.02170419692993164,0.06337103247642517,-0.0657062903046608,-0.029290620237588882,-0.26008969498416884,0.26635179312767576,0.1685693325801986
2.5350611209869385,-0.029137015342712402,0.03996247053146362,-0.027275145053863525,0.07637371122837067,-0.05305854231119156,-0.027045361697673798,-0.25938411845440323,0.2653635780892631,0.168035642764196
2.545006036758423,-0.0341210663318634,0.032676517963409424,-0.025147676467895508,0.06376790255308151,-0.037208735942840576,-0.037982698529958725,-0.2587762751060992,0.26454518763523255,0.16745389458290139
2.5550339221954346,-0.035356730222702026,0.016636252403259277,-0.02159702777862549,0.05049150809645653,-0.03933793306350708,-0.04727793112397194,-0.25840086988147165,0.26378221069277885,0.1668107635363237
2.5653910636901855,-0.0331396758556366,0.006580829620361328,-0.018335163593292236,0.03949292004108429,-0.038284651935100555,-0.06538369506597519,-0.2582113550404627,0.2630119439803557,0.16607294150496885
2.574960947036743,-0.02486315369606018,0.006959408521652222,-0.012351512908935547,0.04105672612786293,-0.047726355493068695,-0.07294520735740662,-0.2581038794731483,0.2621968488314931,0.1652168779346705
2.584958076477051,-0.016492396593093872,0.00819280743598938,-0.013560950756072998,0.03707636520266533,-0.05625779181718826,-0.07696152478456497,-0.2580433806791546,0.26123541433074965,0.16430354253468057
2.5949342250823975,-0.010601088404655457,0.009493857622146606,-0.013330817222595215,0.034538108855485916,-0.06291037052869797,-0.07384802401065826,-0.2581023128596637,0.2601926873863115,0.16337941691145016
2.6051180362701416,-0.005264341831207275,0.011840105056762695,-0.010599613189697266,0.030974166467785835,-0.07580788433551788,-0.07352902740240097,-0.2582638760318037,0.259048762540486,0.16249015740246067
2.615262031555176,-0.0008041262626647949,0.008738726377487183,-0.00878685712814331,0.02085292339324951,-0.0862303376197815,-0.06868761777877808,-0.2584888129084091,0.2577861792079419,0.16164877794488816
2.6250579357147217,0.00615575909614563,0.0047976672649383545,-0.0038257241249084473,0.008115822449326515,-0.09098993986845016,-0.0645621120929718,-0.2587615456836433,0.25644854414762613,0.16087315773908267
2.6351120471954346,0.011136412620544434,0.001707226037979126,-0.0025352835655212402,0.0013523758389055729,-0.09383930265903473,-0.055963512510061264,-0.2589910152848734,0.2551198442651107,0.16020144251429094
2.6451852321624756,0.013698846101760864,0.0012853145599365234,-5.6684017181396484e-05,0.009165024384856224,-0.09555704146623611,-0.044631227850914,-0.2591117686459794,0.2538407422804246,0.1596370370552886
2.6552541255950928,0.016064167022705078,0.003945022821426392,0.002213597297668457,0.02762790583074093,-0.09487185627222061,-0.037038128823041916,-0.25907534732102716,0.2526313921894558,0.15915209285032245
2.6667721271514893,0.016065463423728943,0.010456740856170654,0.005586385726928711,0.04158766195178032,-0.09035620093345642,-0.025764167308807373,-0.25885827252760935,0.2515230733964332,0.15872129220917439
2.6753299236297607,0.014925181865692139,0.011215746402740479,0.009845495223999023,0.04409186542034149,-0.08408267796039581,-0.020793378353118896,-0.2585308865754735,0.25051877411651036,0.1583777799864208
2.6852450370788574,0.012662619352340698,0.010278582572937012,0.011870861053466797,0.034069858491420746,-0.07362177968025208,-0.01834779605269432,-0.25826916832890945,0.24965859390811565,0.1580851764081589
2.695143938064575,0.01115630567073822,0.003952622413635254,0.014820873737335205,0.01824713684618473,-0.057484135031700134,-0.024878347292542458,-0.2581204829588569,0.24896001478738886,0.15781757490231388
2.705209970474243,0.010194048285484314,-0.002954423427581787,0.017854034900665283,0.010237147100269794,-0.060748107731342316,-0.032619889825582504,-0.2580677844298717,0.24838761026398867,0.1575208425592078
2.715428113937378,0.008953481912612915,-0.005422264337539673,0.02080380916595459,0.0012770583853125572,-0.05655305087566376,-0.03343721479177475,-0.25809512983421645,0.2478245482444404,0.1572102285498768
2.725269079208374,0.010607972741127014,-0.005402117967605591,0.024708449840545654,-0.0035203599836677313,-0.052204377949237823,-0.029937023296952248,-0.25818474940459424,0.24735149546841675,0.1569339441207675
2.735255002975464,0.010041996836662292,-0.005419105291366577,0.024625718593597412,-0.004747561179101467,-0.05287349596619606,-0.02318793348968029,-0.258312802677176,0.24692206629600474,0.15671919885983104
2.745208978652954,0.006727248430252075,-0.0023782551288604736,0.025076568126678467,-0.006431211717426777,-0.050849758088588715,-0.018943920731544495,-0.25849767462723444,0.2464987597170716,0.15655714991267164
2.755336046218872,0.007410526275634766,-0.0007573962211608887,0.026251018047332764,-0.013399405404925346,-0.04240460693836212,-0.014095421880483627,-0.25871510286724164,0.24614249825628698,0.15645232501904008
2.7657101154327393,0.0030452609062194824,-0.0023701488971710205,0.027408719062805176,-0.0275660902261734,-0.03228086605668068,-0.012537738308310509,-0.2590259663540378,0.2458878022939667,0.156414672524091
2.7753469944000244,-0.0020504742860794067,-0.005600661039352417,0.026181340217590332,-0.030055414885282516,-0.020405389368534088,-0.010374187491834164,-0.259384530342046,0.24573190155478386,0.1564119498249368
2.7856650352478027,-0.006639644503593445,-0.004532545804977417,0.02326589822769165,-0.018680253997445107,-0.013199673034250736,-0.0047370740212500095,-0.2596371366396599,0.2456633581362793,0.1564162716116575
2.7952511310577393,-0.007510647177696228,-0.0018980205059051514,0.020988106727600098,-0.00786742102354765,-0.009763307869434357,0.0007478130282834172,-0.2597530845302379,0.2456235819922453,0.15645082315737005
2.805316209793091,-0.009288594126701355,0.003963887691497803,0.02131068706512451,0.0013614972122013569,0.0013186377473175526,0.00279125664383173,-0.2597662528231122,0.24566547474606848,0.15649159199619345
2.815524101257324,-0.010949701070785522,0.004587888717651367,0.019732117652893066,-0.00016364525072276592,0.00810361746698618,0.004905167035758495,-0.2597363352929198,0.24579145398478394,0.1565572490335528
2.8252432346343994,-0.012339740991592407,0.0008778274059295654,0.014362990856170654,-0.008488953113555908,0.01018434576690197,0.0043379138223826885,-0.2597701681851224,0.2459418171112486,0.156631587099517
2.8353090286254883,-0.00993308424949646,-0.002252042293548584,0.011347413063049316,-0.027775181457400322,0.013303750194609165,0.0030587976798415184,-0.2599457249995688,0.2461208457095171,0.15672383917790308
2.845285177230835,-0.0073677003383636475,-0.006476372480392456,0.010050773620605469,-0.041334133595228195,0.01679089292883873,0.004220468457788229,-0.26029063696437454,0.24633723114032766,0.15685683399153508
2.855361223220825,-0.006847649812698364,-0.010651975870132446,0.008200645446777344,-0.03719548135995865,0.009457701817154884,0.00792391411960125,-0.2606641704150165,0.24654005628749917,0.15702546151150576
2.865485906600952,-0.003247201442718506,-0.011632829904556274,0.0034959912300109863,-0.030692575499415398,0.000757154542952776,0.011122370138764381,-0.26096867565608495,0.24662633077507662,0.1572068081775203
2.875310182571411,-0.0002843141555786133,-0.006878882646560669,0.0016345977783203125,-0.028634734451770782,0.00021782005205750465,0.017036132514476776,-0.26122841303233324,0.24667350874374722,0.1574168807647544
2.8853840827941895,-0.00033038854598999023,-0.006328970193862915,0.0007123351097106934,-0.030337827280163765,0.0015512648969888687,0.021907320246100426,-0.2614963401023252,0.24674075445308863,0.15768493726920452
2.8953490257263184,-0.0028838366270065308,-0.011407673358917236,0.00014287233352661133,-0.03797632083296776,0.004715677350759506,0.021620282903313637,-0.2618096909795367,0.24681634029456306,0.1579820638246431
2.9053680896759033,-0.005140170454978943,-0.013739436864852905,0.00258713960647583,-0.045653413981199265,0.00835355557501316,0.017655368894338608,-0.2621859133240323,0.24692111961148508,0.15827562019985011
2.916203022003174,-0.008032694458961487,-0.01727154850959778,0.0041280388832092285,-0.05146308243274689,0.008389996364712715,0.011174247600138187,-0.2626201076844742,0.24704120613754774,0.1585304236396864
2.925739049911499,-0.007774710655212402,-0.017719537019729614,0.0035759806632995605,-0.05375419929623604,0.004955850075930357,0.004598637577146292,-0.26308402677722764,0.24713938882912914,0.15873687140937098
2.9355599880218506,-0.006328955292701721,-0.014033257961273193,0.0035141706466674805,-0.06036052480340004,0.0040507749654352665,-0.007751239463686943,-0.26358049460945787,0.24719354344835248,0.15885491504621976
2.9455060958862305,-0.007441654801368713,-0.015120714902877808,0.005294740200042725,-0.06264178454875946,0.008663902059197426,-0.01417079009115696,-0.26413791034222545,0.2472628494087882,0.1589005668508836
2.955601930618286,-0.008974701166152954,-0.016917705535888672,0.0037908554077148438,-0.04984098672866821,0.012946132570505142,-0.015514407306909561,-0.26467171821413205,0.24737224774883435,0.15890652751290138
2.965708017349243,-0.0112382173538208,-0.01628720760345459,0.00140458345413208,-0.023131079971790314,0.012703252024948597,-0.007492433302104473,-0.26499865137328754,0.24749804378030577,0.15887812975357343
2.9767539501190186,-0.010269224643707275,-0.010096549987792969,-0.0031761527061462402,0.006667079403996468,0.020339466631412506,0.005606004502624273,-0.26498744914828787,0.24765213325713958,0.1588841111778256
2.9876720905303955,-0.010277912020683289,0.0009762048721313477,-0.008087635040283203,0.035300854593515396,0.02854413352906704,0.013191220350563526,-0.2646449501550112,0.2478825426933786,0.15892041973460516
2.9955220222473145,-0.012625038623809814,-0.00047665834426879883,-0.009453773498535156,0.04897141084074974,0.04164959490299225,0.016836395487189293,-0.26407924471781236,0.24819960674372712,0.15895514062639768
3.0055949687957764,-0.015542685985565186,-0.006289690732955933,-0.005996823310852051,0.05516192689538002,0.04597216844558716,0.01592293195426464,-0.26341484679938654,0.24861412634070876,0.15898233777025103
3.0155532360076904,-0.018851131200790405,-0.0070677101612091064,-0.003277122974395752,0.04488344117999077,0.0463111475110054,0.00911658350378275,-0.26281414221902505,0.24904292205466821,0.1589743866931006
3.0253851413726807,-0.01870673894882202,-0.008149564266204834,-0.001693427562713623,0.026328666135668755,0.04985261708498001,-0.0013123551616445184,-0.2623701208821353,0.24946151589264673,0.15890266361347674
3.0355420112609863,-0.020400628447532654,-0.012969166040420532,0.002697288990020752,0.004667545668780804,0.052060022950172424,-0.01367618702352047,-0.2621625159022521,0.24988771206945937,0.15876609664330738
3.0455620288848877,-0.021939650177955627,-0.01922890543937683,0.003366231918334961,-0.009358791634440422,0.050071973353624344,-0.018088245764374733,-0.26216630585753353,0.2502770748263899,0.15858913266326957
3.055670976638794,-0.02094946801662445,-0.021015435457229614,0.0005988478660583496,-0.008933916687965393,0.046120285987854004,-0.015926716849207878,-0.26227819153115767,0.250628949994739,0.15842412885264062
3.0654709339141846,-0.014816388487815857,-0.018777519464492798,-0.0040177106857299805,0.009307138621807098,0.03711879998445511,-0.00842246226966381,-0.2623308833673929,0.25092716660182124,0.15826524747255075
3.075467109680176,-0.00926046073436737,-0.01279062032699585,-0.008360743522644043,0.03231215476989746,0.023634595796465874,0.0025349536444991827,-0.2621356444340781,0.25110758991460963,0.15815063522562386
