timestamp,accel_x,accel_y,accel_z,rotation_x,rotation_y,rotation_z, pitch,roll,yaw
0.04442596435546875,-0.0004569441080093384,0.003586605191230774,0.015472710132598877,-0.024059491232037544,0.0011461982503533363,-0.0029680957086384296,-0.0933353892082392,0.1737747723545605,0.008135998631692534
0.05848097801208496,-0.0016608089208602905,0.0067408084869384766,0.011863172054290771,0.004425946623086929,0.007882663980126381,0.004726842045783997,-0.09344706238142567,0.1738527994745747,0.008163077434410564
0.0703740119934082,-0.0007704347372055054,0.011949963867664337,0.008163511753082275,0.030106525868177414,0.003070998005568981,0.010103870183229446,-0.09325721124134041,0.17390643177352347,0.008220873040753435
0.07770204544067383,0.0022395700216293335,0.011706233024597168,0.00821995735168457,0.03350178897380829,0.0030867105815559626,0.013854666613042355,-0.09290433113118081,0.17394323978719106,0.008286543879818477
0.08027791976928711,0.0025116056203842163,0.011903539299964905,0.009750604629516602,0.015709195286035538,0.0007744207978248596,0.009265614673495293,-0.09262954415775092,0.17397254078425872,0.008367722098279391
0.08941507339477539,0.0020588189363479614,0.006961487233638763,0.011685550212860107,-0.012673977762460709,0.004885009955614805,0.004715603310614824,-0.09261242084308541,0.17399830200318026,0.00842773058422689
0.09369993209838867,0.0006834119558334351,-0.002378620207309723,0.01467806100845337,-0.029611598700284958,0.003503672778606415,0.0012004438322037458,-0.09282870457335782,0.17405068058164808,0.008491613228207523
0.10257291793823242,-0.00032588839530944824,-0.0025768131017684937,0.013109147548675537,-0.029367387294769287,-0.0027550216764211655,-8.213461842387915e-05,-0.09311969153534026,0.1740576985970345,0.008550427396401718
0.11335897445678711,0.0005729645490646362,0.003510311245918274,0.01050955057144165,-0.018950914964079857,0.0002778302878141403,0.001863198122009635,-0.0933660373999445,0.1740476330052028,0.008604048014438391
0.12258481979370117,0.0013213157653808594,0.010038524866104126,0.006059169769287109,0.002399647142738104,-0.00036638835445046425,0.00671387929469347,-0.09344523116544497,0.17406383060359695,0.00866134562295754
0.13259100914001465,-1.0862946510314941e-05,0.014607183635234833,7.50422477722168e-05,0.01640399731695652,-0.0021120458841323853,0.010744573548436165,-0.09333164782226715,0.17405115347062727,0.00872530888292134
0.14260005950927734,0.0017537623643875122,0.01837366819381714,-0.001724541187286377,0.013904886320233345,0.0006126337684690952,0.011548582464456558,-0.09315019038014649,0.17405366925722132,0.008806679198056748
0.15272808074951172,0.001916736364364624,0.017404086887836456,-0.0010640621185302734,-0.0016406013164669275,0.0006358474493026733,0.008141973055899143,-0.09306655239872717,0.17407281767104088,0.00890590509663262
0.16355395317077637,-0.0004460662603378296,0.01109914481639862,0.0024662017822265625,-0.014016576111316681,-0.0004736254923045635,0.003205537796020508,-0.0931462498480606,0.17408734705791254,0.008973841445373934
0.17262601852416992,0.0001507401466369629,0.004853561520576477,0.0037454962730407715,-0.014863993972539902,-0.011836002580821514,-0.00016256212256848812,-0.0932889398394628,0.17402568780922967,0.009007893666491594
0.18251609802246094,0.0012130886316299438,0.005637630820274353,0.0055997371673583984,-0.010538754984736443,-0.012044261209666729,-0.0012786928564310074,-0.09342097130986819,0.1739092655160891,0.009018886737909555
0.19262099266052246,0.0031406134366989136,0.010881565511226654,0.007129251956939697,0.0032702679745852947,-0.013188089244067669,0.002631626557558775,-0.0934567390463598,0.17378035842190528,0.009033352908669537
0.20274996757507324,0.003977939486503601,0.01138191670179367,0.002941727638244629,0.018795166164636612,-0.01295346487313509,0.006020765285938978,-0.09339863648476104,0.1736724218373737,0.009058075485185382
0.21371889114379883,0.0028685778379440308,0.012228243052959442,0.00218278169631958,0.020601853728294373,-0.011401641182601452,0.009635473601520061,-0.09326890996126734,0.17354121610401177,0.009105224154702598
0.22269797325134277,0.0032620877027511597,0.011957034468650818,0.0033599138259887695,0.010526582598686218,-0.0062524182721972466,0.009617630392313004,-0.09321946914431957,0.1734658860304364,0.009175008661866992
0.2327289581298828,-0.001390010118484497,0.005448818206787109,0.009572267532348633,-1.5057623386383057e-05,-0.0038650278002023697,0.00828796811401844,-0.09325812362183804,0.1734335310330241,0.00925445015049595
0.24274897575378418,-0.002860531210899353,0.0006695166230201721,0.013214468955993652,-0.008661010302603245,-0.0022777835838496685,0.007749742362648249,-0.09335339689640478,0.17340975570002917,0.009330060995302142
0.25304198265075684,-0.0007380843162536621,0.0032628774642944336,0.014479219913482666,-0.017169909551739693,0.0013399431481957436,0.008697721175849438,-0.09350728880247318,0.17342633611281205,0.009442800873120305
0.2635619640350342,0.00011017918586730957,0.0043080151081085205,0.014536261558532715,-0.017249006778001785,-0.002685158047825098,0.005279554519802332,-0.09369894262675796,0.17343582750849584,0.009542738297986441
0.2729380130767822,0.001730889081954956,0.0018677562475204468,0.015291810035705566,-0.020316101610660553,-0.003910567611455917,0.005200511775910854,-0.09394300889742173,0.17343651640382332,0.009625305149735166
0.2827799320220947,0.004189983010292053,0.0033638477325439453,0.016560018062591553,-0.03149338811635971,-0.0011352873407304287,0.0014766135718673468,-0.09424881526756554,0.17343910528226925,0.009704094248517366
0.2929668426513672,0.0034868568181991577,0.004098154604434967,0.01628321409225464,-0.043794743716716766,0.005666824989020824,-0.002328564180061221,-0.09469140439797351,0.173478819963888,0.009768575100682818
0.3029308319091797,0.003357797861099243,0.002066589891910553,0.016140758991241455,-0.04278620332479477,0.010863451287150383,-0.004137649200856686,-0.09519938161100046,0.17358780103208313,0.009821978398970439
0.313507080078125,0.0024847090244293213,0.0008593350648880005,0.012178242206573486,-0.021255146712064743,0.015090687200427055,-0.0017835214966908097,-0.09555375097255539,0.17372165074773283,0.009841486621578572
0.3229219913482666,0.004659980535507202,0.006504729390144348,0.007443070411682129,0.005608423613011837,0.01699191704392433,0.0023728739470243454,-0.09563075663923298,0.17388545819739615,0.009869994310848177
0.333773136138916,0.007741257548332214,0.0168149471282959,0.001201033592224121,0.027562659233808517,0.01702396385371685,0.00876653753221035,-0.0954668894176103,0.1740704595775388,0.009901984474300294
0.3429088592529297,0.008263513445854187,0.01989974081516266,-0.0012157559394836426,0.03201066702604294,0.019445577636361122,0.008389167487621307,-0.09517312191244515,0.17426433402545263,0.009933189508625888
0.3531019687652588,0.007133513689041138,0.01690676063299179,-0.0014489293098449707,0.030141348019242287,0.014588459394872189,0.003621683456003666,-0.09485349007316644,0.17446215064461798,0.009953622878029193
0.3634200096130371,0.0044629573822021484,0.009193889796733856,0.001109004020690918,0.017619164660573006,0.010018741711974144,-0.0010564253898337483,-0.09463079537014021,0.1746143390712014,0.009928983912686826
0.37308192253112793,0.0027896463871002197,0.00453813374042511,0.005932807922363281,0.01157042570412159,0.010238097049295902,-0.004093920346349478,-0.09452533636258947,0.1747473988203774,0.009882076426975198
0.3832430839538574,0.0014538615942001343,0.0010136738419532776,0.007663249969482422,0.008456657640635967,0.00228163693100214,-0.004219621419906616,-0.09446370987466797,0.1748326333734812,0.009819965241110451
0.3930778503417969,0.0003875643014907837,0.0012502968311309814,0.0070670247077941895,0.010576900094747543,0.005296246148645878,-0.0022165514528751373,-0.09439463016987132,0.17487630292392325,0.00976844997234999
0.40329408645629883,0.0005977600812911987,0.00328836590051651,0.005014955997467041,0.013876823708415031,0.005059491377323866,-0.0005273084389045835,-0.09432463400330288,0.17495646216581506,0.009745509254592687
0.41383790969848633,-0.0007154941558837891,0.004205465316772461,0.0017099380493164062,0.013642880134284496,0.005840463563799858,0.002663105260580778,-0.09427706893408543,0.17503451147374943,0.009733240797760319
0.42314696311950684,-0.0025211870670318604,0.0027254968881607056,0.006252706050872803,0.013449535705149174,0.009630674496293068,0.005824010819196701,-0.09424628384755554,0.17516376758994023,0.00976381963617836
0.4331698417663574,-0.0031066685914993286,0.005039393901824951,0.006708741188049316,0.019566399976611137,0.012935790233314037,0.01179194264113903,-0.09415978094672355,0.1753081520487281,0.00982604602148131
0.4429659843444824,-0.003536611795425415,0.0038641616702079773,0.005060732364654541,0.0376143753528595,0.008483517915010452,0.01810949295759201,-0.09389954192060807,0.17544665894237985,0.00993124675703184
0.4532470703125,-0.001639634370803833,0.008576415479183197,0.004170417785644531,0.04649239033460617,0.004265692085027695,0.01889730989933014,-0.09347312602901621,0.17552793871786462,0.010036482603579358
0.46477198600769043,0.0006233155727386475,0.015727952122688293,0.0029064416885375977,0.03891915827989578,0.00033992622047662735,0.017075972631573677,-0.09301822467374121,0.17557792269090494,0.010132976290131357
0.4731740951538086,-0.0024495869874954224,0.013340689241886139,0.0030375123023986816,0.013016671873629093,-0.0013038208708167076,0.00418318435549736,-0.09274930848776225,0.17557948959931943,0.010195793349404752
0.4834470748901367,-0.0035413652658462524,0.005630381405353546,0.007829368114471436,-0.012159787118434906,-0.00396538432687521,0.0001876436872407794,-0.09278459312366928,0.17555750708138884,0.010218886973126147
0.49349212646484375,-0.0021368414163589478,0.0027385950088500977,0.011473238468170166,-0.014128413051366806,-0.009395791217684746,-0.005475088953971863,-0.09296107857351248,0.17548188802324333,0.010211755571013692
0.5034430027008057,-0.0035826414823532104,0.004583828151226044,0.010587811470031738,-0.00019288994371891022,-0.015643300488591194,-0.0030705209355801344,-0.0930694299336822,0.1753397223797885,0.010175026279682925
0.5141339302062988,-0.0005388557910919189,0.010690845549106598,0.007950246334075928,0.011878985911607742,-0.0165976881980896,0.0021532163955271244,-0.09305059529099832,0.1751607874403287,0.010159543752788804
0.5233299732208252,-0.0007834881544113159,0.018783949315547943,0.003959536552429199,0.01638585329055786,-0.010242587886750698,0.003829409833997488,-0.09293735462822339,0.1750037975922691,0.010165098835334115
0.5333449840545654,-0.001991763710975647,0.01912718266248703,0.004535317420959473,0.01581500470638275,-0.00528680020943284,0.0025983904488384724,-0.09282250443918529,0.1749114151251801,0.010163362607264454
0.5434150695800781,-0.002274632453918457,0.013364486396312714,0.00694119930267334,0.016511155292391777,-0.0018457300029695034,0.0027816160582005978,-0.09275604963664115,0.17488756211679482,0.010164479320956573
0.5534899234771729,-0.005212500691413879,0.014074690639972687,0.009618163108825684,0.022887278348207474,0.00622582295909524,0.0028522429056465626,-0.09264045073709554,0.1749095883468573,0.010160874098999656
0.5641579627990723,-0.0043230801820755005,0.015648916363716125,0.010686993598937988,0.03237718716263771,0.004441238474100828,0.0035252240486443043,-0.09239268101537253,0.17494769823859302,0.010149048674227584
0.5735089778900146,-0.0038211941719055176,0.01704900711774826,0.008205890655517578,0.03388180583715439,0.005459276493638754,0.00506266625598073,-0.09207461375314614,0.17499087655190548,0.010136195810734654
0.5846450328826904,-0.0026984810829162598,0.015812955796718597,0.01142263412475586,0.02505076304078102,0.009581317193806171,0.002690056338906288,-0.09181419342982301,0.1750554297590617,0.010114796769651333
0.5934967994689941,-0.00412316620349884,0.011125609278678894,0.014698624610900879,0.014176244847476482,0.00945135485380888,-0.0007420125184580684,-0.09167920351029847,0.17515233569155958,0.010099516989011539
0.6034388542175293,-0.0049707889556884766,0.005062103271484375,0.01751840114593506,0.0024807073641568422,0.01005136501044035,-0.0012876942055299878,-0.09171562755787425,0.17523927632269728,0.010070952239201434
0.6143219470977783,-0.003419741988182068,0.0013676732778549194,0.019219279289245605,-0.0037967462558299303,0.005166816525161266,-0.0007449420518241823,-0.0918400369994929,0.17530901938012633,0.010070508297420677
0.623478889465332,8.42362642288208e-05,0.004088655114173889,0.01788550615310669,-0.005965092219412327,0.008784454315900803,-0.0007193756755441427,-0.0919730074585752,0.17536353388305856,0.010069532481559224
0.6334939002990723,0.0008688271045684814,0.0051038265228271484,0.014430642127990723,0.002763068536296487,0.008065090514719486,0.001404814887791872,-0.09207214932356868,0.17543644858876756,0.010074399370829722
0.6434779167175293,0.0017551183700561523,0.006975032389163971,0.010764241218566895,0.015401632525026798,0.0018436801619827747,-0.0010836428264155984,-0.09206247469602452,0.1754661147779106,0.010069068863461678
0.6536540985107422,0.0039075762033462524,0.013787887990474701,0.004409372806549072,0.019412551075220108,0.0015839328989386559,-0.003091133665293455,-0.09197838825766208,0.17546374578878987,0.010012858725344206
0.663856029510498,0.004485607147216797,0.014884546399116516,0.0037126541137695312,0.010982050560414791,0.0008331877179443836,-0.009488578885793686,-0.09191907812195063,0.17546460378863077,0.009930089749506734
0.6735458374023438,0.0025494545698165894,0.01318155974149704,0.0030559897422790527,0.006526432000100613,1.7595011740922928e-05,-0.014871999621391296,-0.09192838100279892,0.17546302872538008,0.009790811504771483
0.683506965637207,0.003237783908843994,0.01021651178598404,0.003800511360168457,0.007876122370362282,-0.007247774861752987,-0.01910429634153843,-0.09191791510643345,0.17539889149832108,0.009612022794128743
0.6935920715332031,0.005337938666343689,0.009571284055709839,0.003104984760284424,0.0038609569892287254,-0.011352638714015484,-0.017713060602545738,-0.09190696731953614,0.17527986937906476,0.00941762888734553
0.7035341262817383,0.006478160619735718,0.014327749609947205,0.0028009414672851562,0.005977637600153685,-0.01337104756385088,-0.019247839227318764,-0.09192658055720661,0.17517551729703218,0.009235488111890055
0.7143559455871582,0.006576672196388245,0.012215837836265564,0.0018672943115234375,0.0063406927511096,-0.016361422836780548,-0.021524576470255852,-0.09193280664664108,0.175012912066714,0.009032048923134153
0.7235288619995117,0.005057409405708313,0.007746614515781403,0.0038751959800720215,0.01284200232475996,-0.010756267234683037,-0.014947899617254734,-0.0919158867968105,0.17488140337782995,0.008830806184874794
0.7338659763336182,0.00467170774936676,0.008801743388175964,0.006702899932861328,0.02567918784916401,-0.005227589048445225,-0.01077328808605671,-0.09183698830310129,0.1748066371628112,0.008670536529788742
0.743506908416748,0.002012699842453003,0.009316332638263702,0.005925416946411133,0.04344753175973892,-0.004795891232788563,-0.003224557964131236,-0.0915807186035947,0.17475984064797517,0.008546936635291614
0.753817081451416,0.0005332082509994507,0.009959995746612549,0.007982373237609863,0.05861964449286461,-0.0006090025417506695,0.0028996472246944904,-0.09114887637356314,0.17473668526448902,0.008446330953065986
0.7642068862915039,-0.00010915100574493408,0.010516494512557983,0.008874356746673584,0.07388754189014435,-0.001268134918063879,0.008098670281469822,-0.09054410949644962,0.17474404334721097,0.008388733796114108
0.7738189697265625,0.0002702474594116211,0.009673871099948883,0.008479118347167969,0.07783504575490952,-0.0028637233190238476,0.010490668006241322,-0.08982741820363893,0.17475026474415425,0.008343392431485335
0.7835798263549805,0.0017350316047668457,0.007711686193943024,0.010284423828125,0.07299421727657318,-0.0055284821428358555,0.007107920944690704,-0.08913179389107335,0.17472374921320066,0.008306143195153501
0.7938299179077148,0.0020707696676254272,0.006128750741481781,0.014029979705810547,0.0736742913722992,0.002900155959650874,0.008936287835240364,-0.08848439039626584,0.17474463537214222,0.008242783787250832
0.8036320209503174,0.0020726025104522705,0.004701212048530579,0.014763951301574707,0.08909319341182709,-0.003788372967392206,0.011259629391133785,-0.08772698732159029,0.17476207388885712,0.008207576384516113
0.8148410320281982,0.0020955950021743774,0.004639975726604462,0.010422945022583008,0.11863630264997482,-0.0003402894362807274,0.019093157723546028,-0.08676221461469838,0.1747548515015999,0.008173038508871529
0.8237509727478027,0.00538499653339386,0.013780646026134491,0.00960451364517212,0.19456303119659424,0.008498475886881351,0.03720078989863396,-0.08527595905103501,0.1748321433191558,0.008177085070183348
0.8340630531311035,0.0062496960163116455,0.02156764268875122,0.0030133724212646484,0.3043765723705292,-0.0041154976934194565,0.055669281631708145,-0.0828361835359719,0.1748476354759712,0.008214332349320133
0.8436310291290283,0.007903680205345154,0.036440230906009674,-0.008054554462432861,0.43482086062431335,-0.007490255869925022,0.08026915788650513,-0.07916677437371913,0.17480441157338433,0.008232280236311052
0.853950023651123,0.012760937213897705,0.0597846582531929,-0.013244569301605225,0.5686094164848328,-0.03042961284518242,0.1029999852180481,-0.07414867040098312,0.17462253741058695,0.00829286506550232
0.863926887512207,0.015704289078712463,0.07357335090637207,-0.023460984230041504,0.6623859405517578,-0.06071454659104347,0.1033715009689331,-0.06795847873619494,0.17417372639251402,0.008241554090618516
0.8739039897918701,0.020040735602378845,0.07989266514778137,-0.01906818151473999,0.66843581199646,-0.07801622152328491,0.09408580511808395,-0.06128953870883804,0.1734584474009636,0.008064084011360195
0.8837928771972656,0.017029881477355957,0.07293766736984253,-0.005847454071044922,0.5726557374000549,-0.06922885775566101,0.06577693670988083,-0.055142068437353,0.1727180376333513,0.0077819780957548036
0.8939499855041504,0.00943039357662201,0.04598589986562729,0.006246626377105713,0.4338199496269226,-0.07417536526918411,0.026520127430558205,-0.050257214779635906,0.17200685826352677,0.007379145365124843
0.9037909507751465,0.0016713887453079224,0.013108596205711365,0.017027318477630615,0.3090532422065735,-0.08245726674795151,-0.010126831941306591,-0.046600692129817385,0.17119309625526208,0.006821341250436743
0.9141550064086914,0.002368837594985962,-0.004333484917879105,0.02774059772491455,0.21408610045909882,-0.10261264443397522,-0.03467617183923721,-0.044066416982988646,0.17023231601101088,0.006151051408400082
0.9238629341125488,0.003445059061050415,-0.008544936776161194,0.03301292657852173,0.14091788232326508,-0.10373783111572266,-0.044965825974941254,-0.0424016750155901,0.16915802949715456,0.0054449469372182405
0.9340248107910156,0.003974154591560364,-0.003018796443939209,0.032859206199645996,0.09626314789056778,-0.11463531106710434,-0.04378519579768181,-0.04129961451740673,0.16807077507595072,0.004809722664529566
0.9438290596008301,0.0025404691696166992,-0.0040167272090911865,0.028274714946746826,-0.005310886539518833,-0.12116777151823044,-0.06202811375260353,-0.04086285562876684,0.1668435334458771,0.004211481922370636
0.9539699554443359,0.0008647292852401733,-0.0073917098343372345,0.03150773048400879,-0.19237640500068665,-0.11160130053758621,-0.08146428316831589,-0.041919408812602,0.16567121610770777,0.003669675579895681
0.964806079864502,-0.006003618240356445,-0.03022163361310959,0.052788496017456055,-0.5020796656608582,-0.12412800639867783,-0.15649139881134033,-0.04541978798155075,0.1645063583427461,0.003114785432034706
0.9738688468933105,-0.016620516777038574,-0.08037225902080536,0.0742042064666748,-1.042480707168579,-0.08822131901979446,-0.30450478196144104,-0.05328264547241816,0.16332852424252833,0.0020482904069048773
0.9838910102844238,-0.028786465525627136,-0.12145314365625381,0.12057673931121826,-1.644271969795227,-0.11776535958051682,-0.4264533221721649,-0.06713654319441836,0.16229311254418083,0.0006337792599027153
0.993988037109375,-0.0453953742980957,-0.20720526576042175,0.1641293168067932,-2.374959707260132,-0.22118838131427765,-0.6537322402000427,-0.0877346799663452,0.16045179718136107,-0.0014161052902792479
1.0039470195770264,-0.044137224555015564,-0.2883993089199066,0.2006821632385254,-3.3397107124328613,-0.345357209444046,-0.8420571684837341,-0.11705085106608666,0.15730745376715283,-0.004410636319107491
1.0143039226531982,-0.05167679488658905,-0.2997482120990753,0.2593975067138672,-4.60365104675293,-0.45587894320487976,-1.0686426162719727,-0.15757730787854088,0.15280473014246673,-0.007705429188644854
1.0238890647888184,-0.04897303879261017,-0.37045401334762573,0.26231396198272705,-6.170285701751709,-0.5703165531158447,-1.3679521083831787,-0.21259759281507176,0.14696027564457467,-0.011816782943325351
1.0338730812072754,-0.03494061529636383,-0.4490627348423004,0.25578439235687256,-7.76253604888916,-0.7995748519897461,-1.7121046781539917,-0.28382111405818516,0.1387905930387169,-0.017204360342551097
1.0439701080322266,-0.01358041912317276,-0.46980947256088257,0.27684980630874634,-9.773414611816406,-1.1225662231445312,-2.1219725608825684,-0.3730395529320862,0.127201303586486,-0.025002521133893986
1.0552010536193848,0.013830527663230896,-0.4579406678676605,0.329425573348999,-11.775856018066406,-1.4690616130828857,-2.5900981426239014,-0.4828826934494378,0.10914703627418464,-0.03673827374732598
1.0637550354003906,-0.01794874668121338,-0.3727215528488159,0.43252646923065186,-14.565054893493652,-1.8398516178131104,-3.027052879333496,-0.616553906923988,0.08257662304506512,-0.054757915461002976
1.073915958404541,-0.023734521120786667,-0.3906429409980774,0.5015637278556824,-17.638378143310547,-1.82059907913208,-3.293287992477417,-0.7793146942183092,0.04609908837186027,-0.08278851018264029
1.0844550132751465,-0.07286755740642548,-0.29035329818725586,0.5982652902603149,-20.87185287475586,-1.691054105758667,-3.28969669342041,-0.972782873804434,-0.007278362689047541,-0.1287434447128549
1.0940139293670654,-0.17725883424282074,-0.1502719521522522,0.6386466026306152,-23.19175148010254,-1.0565625429153442,-3.017357587814331,-1.1923733040255071,-0.10419030513308919,-0.22243834903225884
1.1040759086608887,-0.15981042385101318,0.03741401433944702,0.7141124606132507,-24.108476638793945,-0.30946817994117737,-2.934251070022583,-1.415966142280555,-0.4624197680046584,-0.5842630851029397
1.114400863647461,-0.14518088102340698,0.3123363256454468,0.6283544301986694,-23.105993270874023,0.08766311407089233,-3.185822010040283,-1.4308988478280118,-2.3503721521308027,-2.48140900169519
1.1240060329437256,-0.223371684551239,0.7039151787757874,0.5415019989013672,-20.156539916992188,-0.15985587239265442,-3.6776487827301025,-1.228191438552582,-2.73588749851005,-2.876509973375652
1.1340599060058594,-0.2533208131790161,1.0428848266601562,0.2774214744567871,-17.45189666748047,-0.8985186219215393,-3.7984602451324463,-1.039186194728026,-2.8111116547433497,-2.9530139385420853
1.1441540718078613,-0.10963740944862366,1.0468467473983765,-0.048266708850860596,-14.741548538208008,-1.4600598812103271,-3.4445433616638184,-0.8745033830438433,-2.844602319927455,-2.9794391087506447
1.1556758880615234,0.15239201486110687,1.0800989866256714,-0.13041263818740845,-11.868390083312988,-1.6869698762893677,-3.0474274158477783,-0.7374716596015266,-2.8674708015024266,-2.988768561617468
1.1661770343780518,0.17526553571224213,1.256378173828125,-0.28693604469299316,-8.805682182312012,-1.7349363565444946,-2.6423885822296143,-0.6300532152471312,-2.8843655148970675,-2.9883744240345327
1.174088954925537,0.08286380767822266,1.2211604118347168,-0.4648280143737793,-5.812716960906982,-1.8562591075897217,-2.255934238433838,-0.5530671896069838,-2.8987135375509836,-2.9817374723097383
1.184103012084961,0.07726484537124634,1.0174651145935059,-0.57874596118927,-3.1999871730804443,-1.896047830581665,-1.8768529891967773,-0.504993052639307,-2.912007648409202,-2.970465634966875
1.1941189765930176,0.10577176511287689,0.8397064208984375,-0.59914231300354,-1.7280964851379395,-1.5908416509628296,-1.5535619258880615,-0.47793408401190224,-2.9234495371034557,-2.9575506046138367
1.2040390968322754,0.11174166202545166,0.6137739419937134,-0.5316145420074463,-1.4333932399749756,-1.1644184589385986,-1.2384300231933594,-0.459968179230772,-2.9319518873977874,-2.9459172307282184
1.2145609855651855,0.07502810657024384,0.3050641715526581,-0.3204820156097412,-1.6832664012908936,-0.8047884702682495,-1.0626428127288818,-0.4425472752109036,-2.937812232500167,-2.9370444958536295
1.2241969108581543,0.06403784453868866,0.03546145558357239,-0.09744536876678467,-1.9087966680526733,-0.7533199191093445,-0.9480203986167908,-0.42287642049438856,-2.9424686692156454,-2.9301918590495095
1.234226942062378,0.05318848788738251,-0.09973597526550293,0.0907469391822815,-1.9267956018447876,-0.8768957257270813,-0.9323962330818176,-0.40197865643124164,-2.9482098074261147,-2.924270809783823
1.2441439628601074,0.05603043735027313,-0.07882016897201538,0.2043975591659546,-1.7116414308547974,-1.0370121002197266,-0.9241343140602112,-0.38215195522044415,-2.955496884958883,-2.9180834485703464
1.254310131072998,0.06537295877933502,-0.015945881605148315,0.19174861907958984,-1.296638011932373,-1.1257630586624146,-0.867986798286438,-0.3658169235705395,-2.9639549074693456,-2.911652750104249
1.2643239498138428,0.02730584144592285,0.060330331325531006,0.11435592174530029,-1.0805027484893799,-1.149367094039917,-0.7909860014915466,-0.35279596441262234,-2.9732776551153384,-2.9050701572205475
1.2741990089416504,-0.0018458664417266846,0.10198575258255005,0.036512017250061035,-1.0375291109085083,-1.0222872495651245,-0.7362745404243469,-0.3410822203844115,-2.9819301420069726,-2.8988003485167892
1.2841949462890625,0.002143487334251404,0.016053587198257446,0.021298766136169434,-1.0364012718200684,-0.9719854593276978,-0.6423528790473938,-0.329781081220178,-2.990081505721601,-2.893321041161305
1.2942218780517578,-0.037298306822776794,-0.05455455183982849,0.06662464141845703,-1.0442485809326172,-0.9033021330833435,-0.5992544889450073,-0.31851915922508844,-2.9979650988724327,-2.8884801110831244
1.3042168617248535,-0.01461048424243927,-0.04621821641921997,0.14287519454956055,-0.9426201581954956,-0.8243618011474609,-0.518210232257843,-0.30781587963230234,-3.005307058943281,-2.8840803698415485
1.3145220279693604,-0.011239789426326752,-0.08978661894798279,0.1852220892906189,-0.8133822083473206,-0.691098153591156,-0.40630263090133667,-0.29849959725561,-3.011828215304243,-2.880478142686396
1.3242669105529785,-0.02122451364994049,-0.08084312081336975,0.1650325059890747,-0.6369403004646301,-0.5110620260238647,-0.294951856136322,-0.29085953889824306,-3.0170978573190377,-2.8778330324225787
1.3346939086914062,-0.027395598590373993,-0.047075510025024414,0.1269165277481079,-0.5499463081359863,-0.3246212303638458,-0.2171037197113037,-0.2847488622222357,-3.0207589858382202,-2.8759374439495664
1.3442368507385254,-0.033295370638370514,-0.04960775375366211,0.10439920425415039,-0.5532786846160889,-0.20502769947052002,-0.19020313024520874,-0.2791086803723165,-3.0229659506025164,-2.874576895960711
1.3543949127197266,-0.04804655909538269,-0.05947944521903992,0.0656437873840332,-0.6240635514259338,-0.12640109658241272,-0.20179277658462524,-0.27300204632940867,-3.024252753767665,-2.8732759233959326
1.3646488189697266,-0.06504929810762405,-0.05949944257736206,0.0876457691192627,-0.5967395305633545,-0.09930397570133209,-0.206143319606781,-0.26661102546119564,-3.0249592547214617,-2.8719009521695895
1.3744750022888184,-0.06852305680513382,-0.04509866237640381,0.10076570510864258,-0.533177375793457,-0.11398550122976303,-0.216708242893219,-0.26078259750935306,-3.0256786133178672,-2.8703968811134213
1.3842129707336426,-0.0640290379524231,-0.005758464336395264,0.06793272495269775,-0.4727225601673126,-0.08122648298740387,-0.2168283462524414,-0.2555713865965432,-3.0262432919618636,-2.868775608337152
1.3944368362426758,-0.07880440354347229,0.0016322582960128784,0.02939927577972412,-0.35946425795555115,-0.07960861176252365,-0.18665803968906403,-0.2511839036062942,-3.0266177499340574,-2.8671989005376086
1.4044089317321777,-0.09059570729732513,-0.005485400557518005,-0.020223677158355713,-0.27959683537483215,-0.10334030538797379,-0.16809339821338654,-0.2478213612520499,-3.0271722473926457,-2.8657612712163396
1.414654016494751,-0.08578726649284363,0.02619244158267975,-0.06384998559951782,-0.23559391498565674,-0.11458661407232285,-0.14889520406723022,-0.2450830099400275,-3.0279459905574395,-2.8644085457457575
1.4244928359985352,-0.08151274919509888,0.005298107862472534,-0.07466185092926025,-0.20539206266403198,-0.09236812591552734,-0.11721264570951462,-0.24274535987792184,-3.028753819330491,-2.863322113149507
1.4346528053283691,-0.07241873443126678,-0.0015012472867965698,-0.06512618064880371,-0.22520937025547028,-0.032625481486320496,-0.10791166126728058,-0.2404761777423874,-3.0291336177542934,-2.8624200021600967
1.4444289207458496,-0.07239624112844467,-0.018734782934188843,-0.05723452568054199,-0.2052236646413803,-0.02212436869740486,-0.10067984461784363,-0.23818952854321468,-3.029204929453363,-2.861616196930841
1.454512119293213,-0.07136707752943039,-0.06447908282279968,-0.022258520126342773,-0.10435708612203598,-0.04096699133515358,-0.059749141335487366,-0.23650816945012462,-3.029354323423809,-2.860953555290967
1.464601993560791,-0.04265853762626648,-0.03385123610496521,0.036426842212677,-0.04614198952913284,-0.012646934948861599,-0.03745874762535095,-0.23582965449800788,-3.0295868313060956,-2.8605525800718787
1.4743869304656982,-0.021516665816307068,0.009158015251159668,0.06295913457870483,-0.0708678588271141,0.07336664199829102,-0.0039622001349925995,-0.23527018007545142,-3.0292615857123715,-2.8603961073892106
1.484745979309082,-0.018244415521621704,-0.00650709867477417,0.0807502269744873,-0.08093833178281784,0.15902695059776306,0.03698895871639252,-0.23446429829922644,-3.0281236561847553,-2.860660236459872
1.494431972503662,-0.0207822322845459,-0.01732337474822998,0.09224975109100342,0.03855776786804199,0.17771773040294647,0.06868595629930496,-0.2342737751001871,-3.026539051275425,-2.8612356302395443
1.5046019554138184,-0.010523974895477295,0.009738147258758545,0.08993971347808838,0.17116081714630127,0.18586993217468262,0.0968552753329277,-0.23542690386269174,-3.024891311205993,-2.861956052361827
1.5144729614257812,0.0052070096135139465,0.04109473526477814,0.07636892795562744,0.23856765031814575,0.20170389115810394,0.12251269817352295,-0.23764023567582498,-3.023169643093295,-2.8628159861273983
1.524461030960083,0.007183574140071869,0.04447074234485626,0.06867682933807373,0.2521201968193054,0.22994297742843628,0.14620019495487213,-0.24027472328914354,-3.0212809747055727,-2.863906467785213
1.5347800254821777,0.00942518562078476,0.041020467877388,0.06677454710006714,0.2705315947532654,0.24793179333209991,0.1649738848209381,-0.24304242032083584,-3.019172780659395,-2.8651699284068948
1.5445199012756348,0.012232758104801178,0.037033066153526306,0.056437551975250244,0.36286312341690063,0.239315927028656,0.1751394271850586,-0.24633445664053116,-3.0170422661070653,-2.8665280510498232
1.555406093597412,0.01381518691778183,0.036554619669914246,0.04433596134185791,0.5185096263885498,0.20542916655540466,0.1867656707763672,-0.2509370310543674,-3.0151222940946063,-2.8678044221726697
1.5657129287719727,0.024547860026359558,0.05418404936790466,0.038167715072631836,0.6190700531005859,0.1948644071817398,0.19234739243984222,-0.2569060107326419,-3.0134717939858997,-2.86900342717046
1.5747709274291992,0.03957931697368622,0.07863509654998779,0.028199076652526855,0.6509078145027161,0.2305399775505066,0.19242015480995178,-0.26348375454534445,-3.0116666110133563,-2.870121992962954
1.58461594581604,0.04131029546260834,0.06602093577384949,0.009499907493591309,0.7417192459106445,0.2562093734741211,0.2088497281074524,-0.2705659521493017,-3.0094735567748194,-2.8712479293769304
1.5947439670562744,0.03217726945877075,0.03544270992279053,-0.007462263107299805,0.975792646408081,0.19728706777095795,0.2152828425168991,-0.27933294439619,-3.0074714551685404,-2.8722608306263178
1.604565143585205,0.03601276874542236,0.05728235840797424,-0.02112799882888794,1.2762879133224487,0.15176619589328766,0.24436962604522705,-0.29076085818209524,-3.0059682151400895,-2.8730287863266675
1.615346908569336,0.05307637155056,0.08991697430610657,-0.03675556182861328,1.6316702365875244,0.126069575548172,0.29126858711242676,-0.30559499433401127,-3.004807108849885,-2.8737490166797093
1.6246650218963623,0.05298541486263275,0.09056353569030762,-0.07287073135375977,1.9045708179473877,0.10169818997383118,0.34534966945648193,-0.3236415552041621,-3.0039144237003756,-2.874502006370947
1.6352910995483398,0.035302937030792236,0.07604026794433594,-0.10210227966308594,2.1621718406677246,0.09073298424482346,0.4125620126724243,-0.344279653134317,-3.0033087882384586,-2.8754985498255645
1.6445770263671875,0.03331238031387329,0.06580859422683716,-0.09253501892089844,2.4498398303985596,0.08208329975605011,0.511662483215332,-0.3678952138335633,-3.002996471621539,-2.876981461823542
1.6547961235046387,0.025024548172950745,0.04116097092628479,-0.07235229015350342,2.726341724395752,0.12136772274971008,0.6046361923217773,-0.39423446334907103,-3.002770563164024,-2.87908680314309
1.6649880409240723,0.02479839324951172,0.011859923601150513,-0.053455650806427,3.2302684783935547,0.1380862593650818,0.7084717750549316,-0.42454601681410087,-3.002490038353685,-2.881706491589339
1.6747031211853027,0.03687618672847748,-0.0001188516616821289,-0.04117286205291748,3.907428026199341,0.16650700569152832,0.7957146167755127,-0.46092329178598,-3.002178019792366,-2.8844809947105228
1.6847028732299805,0.045537516474723816,0.01234525442123413,-0.046817243099212646,4.544234752655029,0.20952504873275757,0.8837469816207886,-0.5040788143727808,-3.001597723529961,-2.887225260687664
1.6947650909423828,0.04973457753658295,0.024469435214996338,-0.03195828199386597,5.171947956085205,0.38806381821632385,0.9595880508422852,-0.5534317773481913,-3.000026938640297,-2.8899189417582405
1.7047209739685059,0.04933337867259979,0.01467353105545044,0.013097286224365234,5.968061923980713,0.5017158389091492,1.0859099626541138,-0.6100168149424029,-2.9969204408451184,-2.892509624571723
1.7153730392456055,0.037138842046260834,-0.003999769687652588,0.0714104175567627,6.9038825035095215,0.5806550979614258,1.2325128316879272,-0.6753686127716337,-2.9930503914141964,-2.8951210460040393
1.7247490882873535,0.04716849327087402,0.0444636344909668,0.13845670223236084,8.025764465332031,0.646230936050415,1.3519293069839478,-0.7510045924653949,-2.9882755828804264,-2.897242115947667
1.7347829341888428,0.05528613179922104,0.11999326944351196,0.19768959283828735,9.401366233825684,0.6134955286979675,1.4338297843933105,-0.839341614311506,-2.9820768061565195,-2.8975310932839893
1.7448539733886719,0.027156241238117218,0.14950698614120483,0.2507535219192505,10.725285530090332,0.5547629594802856,1.4375438690185547,-0.9411077985708185,-2.9736341977288547,-2.894040225461151
1.7546899318695068,0.011389151215553284,0.17659378051757812,0.32765457034111023,12.175993919372559,0.6333043575286865,1.4413498640060425,-1.056485950621931,-2.9585468413681277,-2.883267468015989
1.765061855316162,0.007450826466083527,0.22782641649246216,0.4197861850261688,13.517963409423828,0.6233630180358887,1.4247602224349976,-1.1855333983206897,-2.9291341798270842,-2.8576090073578504
1.7747530937194824,-0.016245953738689423,0.28786414861679077,0.4804426431655884,14.691020011901855,0.5432673692703247,1.2427550554275513,-1.326086962139351,-2.8562537998622664,-2.7874394424758253
1.7847850322723389,-0.02556345984339714,0.379024863243103,0.5791099071502686,15.172043800354004,0.7608233690261841,0.8365982174873352,-1.46758381780652,-2.5336638256402826,-2.467093858797145
1.7952790260314941,-0.0719500482082367,0.3433331847190857,0.6680144667625427,15.078624725341797,1.1830781698226929,0.5972112417221069,-1.4856050258209317,-0.6562959933901324,-0.5953917626316573
1.8048710823059082,-0.17105704545974731,0.17688608169555664,0.6902515888214111,14.407868385314941,1.4755704402923584,0.5075729489326477,-1.3501805589616103,-0.20522700000492955,-0.15364809553753173
1.8153049945831299,-0.22673405706882477,0.1508839726448059,0.6763744354248047,13.150212287902832,1.7856128215789795,0.5104867219924927,-1.2142228665424553,-0.10096335028710761,-0.06209618578490571
1.8249139785766602,-0.23402169346809387,0.22563058137893677,0.7482449412345886,11.757353782653809,2.2036330699920654,0.7091585397720337,-1.0903002932397905,-0.046700866441426445,-0.024650260903627833
1.8351988792419434,-0.23453184962272644,0.1771104335784912,0.776991605758667,10.351232528686523,2.3565115928649902,0.9161761403083801,-0.9799019177088462,-0.005004518592102529,-0.002867752740363245
1.8450469970703125,-0.1890215128660202,0.0806206464767456,0.7271018028259277,9.1180419921875,2.4228265285491943,1.0113239288330078,-0.8824297129238189,0.030334048535904257,0.011344553832328479
1.8549449443817139,-0.2016558051109314,0.056325316429138184,0.702673614025116,8.112451553344727,2.451197624206543,0.9938613772392273,-0.7959571128582817,0.061844830585069295,0.02049623617641375
1.8656558990478516,-0.22557902336120605,0.013210177421569824,0.6586532592773438,7.351643085479736,2.1490118503570557,0.902721107006073,-0.7180902705251164,0.08853115513921017,0.025626296639501372
1.87556791305542,-0.20428624749183655,-0.04480201005935669,0.6297682523727417,6.734851837158203,1.8850059509277344,0.7455969452857971,-0.6472361367528364,0.10966761851364588,0.027200013030077998
1.8849210739135742,-0.15264634788036346,-0.09648764133453369,0.6373496055603027,6.234716892242432,1.668422818183899,0.6470450758934021,-0.5820284295545701,0.12688653170559588,0.026248842890366574
1.8949041366577148,-0.10611393302679062,-0.10147082805633545,0.5395152568817139,5.783123970031738,1.4284203052520752,0.6088711023330688,-0.5215032907881143,0.14122349590316916,0.024095997107454085
1.9049758911132812,-0.060238227248191833,-0.04046928882598877,0.42826539278030396,5.216897010803223,1.3246678113937378,0.566783607006073,-0.466099053505668,0.15360968814731754,0.0215031917670076
1.9152708053588867,-0.027998819947242737,-0.00922057032585144,0.34887421131134033,4.571810722351074,1.2980549335479736,0.5681522488594055,-0.41678195877410085,0.16572698802243138,0.019077881170502867
1.9250588417053223,-0.03924557566642761,-0.05852985382080078,0.25376349687576294,3.990993022918701,1.3509496450424194,0.563409149646759,-0.3736848220518456,0.17814823866280172,0.017191736243203835
1.9350810050964355,-0.04974237084388733,-0.0965408980846405,0.1731770634651184,3.5231549739837646,1.3154479265213013,0.6114336252212524,-0.33565752680531075,0.1911781282332949,0.015983253569758542
1.9450709819793701,-0.04375140368938446,-0.09185808897018433,0.10893702507019043,3.108816146850586,1.3472068309783936,0.6442714333534241,-0.30191407227626404,0.2043918906197714,0.01562573241389637
1.9559509754180908,-0.02974770963191986,-0.05146858096122742,0.06824338436126709,2.7397468090057373,1.329728126525879,0.6329683065414429,-0.2720039308590103,0.21778435517639017,0.01581953923194691
1.9653129577636719,-0.021032467484474182,-0.03846873342990875,0.035984694957733154,2.4959473609924316,1.242587924003601,0.6113381385803223,-0.24512455990320184,0.23092537621784165,0.016044648875702353
1.974958896636963,-0.012915149331092834,-0.04883280396461487,0.013946771621704102,2.212002992630005,1.0611796379089355,0.5395702123641968,-0.22075704628780965,0.24240574245144486,0.016181361065111494
1.9850788116455078,0.017309606075286865,-0.03748324513435364,0.000680088996887207,1.8687046766281128,1.0275896787643433,0.43811464309692383,-0.19979000627917756,0.2527527800039481,0.015863205788605547
1.9949979782104492,0.03355678915977478,-0.027832254767417908,0.004233360290527344,1.5598405599594116,0.9209730625152588,0.3910181522369385,-0.1821583367059066,0.26246604868495116,0.015524258792120804
2.0050809383392334,0.026693254709243774,-0.05313490331172943,-0.03623533248901367,1.3308625221252441,0.8322362899780273,0.3517706096172333,-0.16728691277860483,0.2712550604116957,0.015289531269536012
2.015225887298584,0.043081313371658325,-0.04287157952785492,-0.037645578384399414,1.1824768781661987,0.715961754322052,0.3341611325740814,-0.15430783555139077,0.2789650461160076,0.015175382318547183
2.0250439643859863,0.05362468957901001,-0.0064056068658828735,-0.028068363666534424,1.1140040159225464,0.5361408591270447,0.3574203848838806,-0.14229181633283408,0.2852882285862447,0.01528861592846104
2.0353310108184814,0.0539780855178833,0.025477513670921326,-0.014966130256652832,1.001069188117981,0.42795056104660034,0.34352555871009827,-0.13111737766046908,0.2900673202040714,0.01566233402470777
2.0450639724731445,0.052846938371658325,0.028581880033016205,0.004164457321166992,0.8387705683708191,0.3933073878288269,0.35289907455444336,-0.12129729391343919,0.29422408372035447,0.016329192178831033
2.055081844329834,0.031600505113601685,0.006211042404174805,0.0009253621101379395,0.6936981678009033,0.4090728163719177,0.3582228124141693,-0.11292534418500098,0.2984118759410646,0.01751645631140214
2.0653879642486572,0.010957330465316772,-0.02519625425338745,-0.027618885040283203,0.5850627422332764,0.39602306485176086,0.32903560996055603,-0.10582277641683399,0.30257149344732953,0.01894865199314772
2.0751960277557373,0.0026925504207611084,-0.04692228138446808,-0.034282147884368896,0.5444856882095337,0.3782903850078583,0.3043586313724518,-0.09950036607197713,0.30662209749481584,0.020288052660027794
2.085192918777466,0.0010268092155456543,-0.05467734485864639,-0.02245938777923584,0.5296878218650818,0.3282034993171692,0.2717202603816986,-0.09350989600568635,0.3102693273536074,0.021421931700780345
2.095235824584961,0.004522085189819336,-0.03493243455886841,-0.021394670009613037,0.5283908247947693,0.2958185374736786,0.25393593311309814,-0.08765700024438725,0.31347749007203224,0.02228176278049612
2.105257987976074,0.013935238122940063,-0.006661266088485718,-0.02322971820831299,0.48646068572998047,0.24778737127780914,0.21710893511772156,-0.08205548118732292,0.3162390552014615,0.022985209098800592
2.115507125854492,0.025728315114974976,-4.410743713378906e-06,-0.03752601146697998,0.42625677585601807,0.2067061960697174,0.16509605944156647,-0.07712250571322242,0.31856090771018813,0.02336437783475956
2.1254758834838867,0.02651447057723999,0.000999845564365387,-0.03155338764190674,0.3610072135925293,0.17225714027881622,0.12076561897993088,-0.07294793109361022,0.3204633732584733,0.023488079862691337
2.1395010948181152,0.028507143259048462,-0.009608827531337738,-0.023743748664855957,0.32671499252319336,0.11075475811958313,0.08775104582309723,-0.06937213665738176,0.3219167512855396,0.023386073066101635
2.1451499462127686,0.03430676460266113,0.003539927303791046,-0.022081851959228516,0.2826173007488251,0.06665042042732239,0.05248253792524338,-0.06625650286567471,0.3227476680578799,0.023080183422242242
2.1552629470825195,0.03684639930725098,0.024406276643276215,-0.019789159297943115,0.22872179746627808,0.04629228264093399,0.03163456916809082,-0.06369529487288918,0.3232814641697908,0.022663101488409144
2.1654458045959473,0.02949020266532898,0.023679211735725403,-0.022287368774414062,0.18383528292179108,0.044809434562921524,0.005827207118272781,-0.06168710131188802,0.3236922490376987,0.02219461518724519
2.1753268241882324,0.019619792699813843,0.01471317932009697,-0.030605554580688477,0.1657390296459198,0.06428401917219162,-0.002045842818915844,-0.06004522978024906,0.3242370331986096,0.02164394539188348
2.1853489875793457,0.004953473806381226,0.01312042772769928,-0.02679818868637085,0.16362154483795166,0.060777969658374786,-0.001388841075822711,-0.05849194768076408,0.32482166769386334,0.021110218966072375
2.1953048706054688,-0.00847741961479187,0.01640060544013977,-0.026108145713806152,0.15991084277629852,0.06168819218873978,-0.00032304401975125074,-0.05696397807738669,0.32540811476867554,0.02057703357216337
2.2053918838500977,-0.008961677551269531,0.02052059769630432,-0.01583874225616455,0.13441906869411469,0.09161120653152466,0.0023401170037686825,-0.05555781976312417,0.3261191638100821,0.020114891642161632
2.2155189514160156,-0.01919490098953247,0.019106730818748474,-0.0033649206161499023,0.10674818605184555,0.1469227522611618,0.013261367566883564,-0.054391202000688046,0.3272856971864572,0.01980735153747934
2.2253289222717285,-0.031558841466903687,0.017111659049987793,-0.0016292333602905273,0.10702702403068542,0.17212292551994324,0.009095384739339352,-0.05334825483480459,0.32888531765127205,0.019593921582000164
2.235363006591797,-0.038596391677856445,0.01199176162481308,0.0006908774375915527,0.11613887548446655,0.17797347903251648,-0.0274061132222414,-0.052317420607851765,0.3306466319152701,0.019148245986253292
2.245387077331543,-0.04115593433380127,0.0036371611058712006,0.026687324047088623,0.10792569071054459,0.15232856571674347,-0.06243520230054855,-0.05137816419709747,0.3322577403716954,0.018347576131907593
2.255396842956543,-0.04728364944458008,-0.004582345485687256,0.05500882863998413,0.07345283776521683,0.17735616862773895,-0.08514466881752014,-0.05076202055092885,0.3338406655890321,0.01733556671404608
2.265738010406494,-0.05132478475570679,-0.007955364882946014,0.06790363788604736,0.05607171356678009,0.20863018929958344,-0.07925455272197723,-0.05045728963820565,0.33574155736939054,0.01634653590697133
2.2753090858459473,-0.06159788370132446,0.011919025331735611,0.05870997905731201,0.07209272682666779,0.21450601518154144,-0.07375912368297577,-0.05017481454864922,0.337747975434551,0.015425444387694037
2.285642147064209,-0.06666439771652222,0.036234863102436066,0.049244046211242676,0.11281964927911758,0.20385895669460297,-0.07427044957876205,-0.04960093984783506,0.3397309192391563,0.014426710204406354
2.2955210208892822,-0.06121093034744263,0.039294157177209854,0.04445606470108032,0.16498823463916779,0.17969512939453125,-0.086260586977005,-0.048600378649142996,0.341506144280314,0.01320883741817498
2.3056020736694336,-0.061245471239089966,0.043837204575538635,0.04287135601043701,0.19628331065177917,0.17454244196414948,-0.11017098277807236,-0.04724486908152342,0.3430927547247737,0.011652598899163173
2.315704822540283,-0.0638832151889801,0.04851725324988365,0.04889249801635742,0.1829959899187088,0.19786547124385834,-0.1281788945198059,-0.04587448384707034,0.34473895149512435,0.00988487567205626
2.32545804977417,-0.06801217794418335,0.02948855608701706,0.04739648103713989,0.16312402486801147,0.2418513000011444,-0.14620210230350494,-0.04474516338605535,0.3467758381774211,0.00799162913712412
2.335576057434082,-0.06704062223434448,0.015570439398288727,0.03791016340255737,0.17383116483688354,0.24753205478191376,-0.14649342000484467,-0.04367810242054185,0.34908741615399064,0.006052850585084708
2.345457077026367,-0.06271129846572876,0.02002624049782753,0.020091474056243896,0.19871468842029572,0.2496442049741745,-0.15541872382164001,-0.04245604137786565,0.35144660922257964,0.003982740281279559
2.3556020259857178,-0.043361544609069824,0.028524160385131836,0.010119318962097168,0.21282559633255005,0.2418588101863861,-0.15523961186408997,-0.04106750714062385,0.35375060876266656,0.0017986628851576242
2.3655059337615967,-0.030966073274612427,0.03335469216108322,0.0025253891944885254,0.19639283418655396,0.2489476054906845,-0.15556956827640533,-0.03971486573035567,0.3560373179553233,-0.0003837996082429179
2.375581979751587,-0.022652745246887207,0.026278741657733917,-0.0035379528999328613,0.17009052634239197,0.2619873285293579,-0.15586718916893005,-0.038550179277663535,0.35853335569920025,-0.0024934755911821356
2.385633945465088,-0.009389936923980713,0.010285180062055588,-0.017190754413604736,0.17688584327697754,0.22624479234218597,-0.15526345372200012,-0.03748363805019792,0.3609294178430188,-0.004548433635506853
2.395526885986328,0.009058088064193726,0.004581015557050705,-0.030258655548095703,0.1896047592163086,0.17817841470241547,-0.16192424297332764,-0.03632055908276924,0.362872226834492,-0.0066856429720149515
2.405534029006958,0.03374090790748596,0.0027463026344776154,-0.03052067756652832,0.17717790603637695,0.10972185432910919,-0.15670044720172882,-0.03514855422688524,0.36423487521126535,-0.008832443759367195
2.4157209396362305,0.04635047912597656,0.011725064367055893,-0.037053704261779785,0.1369640827178955,0.07044466584920883,-0.16864265501499176,-0.034256400317437895,0.3650502627307212,-0.010929033319144969
2.4256811141967773,0.05538693070411682,0.0071383751928806305,-0.04541122913360596,0.09368371963500977,0.027328088879585266,-0.16772226989269257,-0.03377690977258159,0.36546556316013107,-0.012907995248785647
2.4356751441955566,0.050216078758239746,0.0017727911472320557,-0.04636448621749878,0.040356382727622986,0.0020771503914147615,-0.1750238537788391,-0.033771395011438214,0.36552886407240875,-0.014757407909684285
2.445708990097046,0.042326539754867554,-0.0007787905633449554,-0.04458200931549072,0.00818566419184208,-0.025114521384239197,-0.17260676622390747,-0.034186990150101015,0.3653715962134723,-0.016472987849439093
2.455772876739502,0.04080688953399658,-0.002064034342765808,-0.04840230941772461,0.0029810983687639236,-0.06522878259420395,-0.1651771366596222,-0.03475539842609841,0.3648657048719294,-0.018052455400934846
2.4657530784606934,0.04288220405578613,0.0033648088574409485,-0.05594801902770996,0.00432652747258544,-0.09555153548717499,-0.15925931930541992,-0.035308333585253114,0.3640232058594437,-0.019596555619451433
2.475719928741455,0.047435373067855835,0.00866735354065895,-0.049845218658447266,0.009396636858582497,-0.120867058634758,-0.15292830765247345,-0.03578918808870325,0.3628634395519347,-0.021085319143764474
2.4855918884277344,0.04001748561859131,0.013530351221561432,-0.03961461782455444,0.0041187843307852745,-0.13040436804294586,-0.14326395094394684,-0.03625179697465923,0.3615494306999223,-0.022502702915084567
2.495767116546631,0.029395252466201782,0.015619270503520966,-0.03188884258270264,-0.00865664891898632,-0.13232721388339996,-0.13237608969211578,-0.036772480723694344,0.36018800149315694,-0.023775744378004754
2.505687952041626,0.022967249155044556,0.009905733168125153,-0.03161698579788208,0.00015521841123700142,-0.1383158564567566,-0.12205768376588821,-0.03726784970848131,0.35884528003609734,-0.024945628973533678
2.5156688690185547,0.022573500871658325,0.007098142057657242,-0.028181850910186768,0.01790563575923443,-0.14833010733127594,-0.11922077089548111,-0.03760375480490571,0.35741211027156383,-0.026101962042789376
2.5256450176239014,0.018623411655426025,0.01124073937535286,-0.019758641719818115,0.03108109161257744,-0.15790976583957672,-0.11518235504627228,-0.037764251672029625,0.35586423377941623,-0.027284843276644002
2.5358519554138184,0.013591080904006958,0.020437724888324738,-0.010073840618133545,0.026721347123384476,-0.15537820756435394,-0.12080061435699463,-0.037890473151093694,0.3542830593374817,-0.028500113199272783
2.5457990169525146,0.011834561824798584,0.02463482692837715,-0.006050765514373779,0.0040858108550310135,-0.14861564338207245,-0.12859036028385162,-0.038164404112306434,0.35272624760099475,-0.029725739048184468
2.555928945541382,0.007618039846420288,0.01988561823964119,-0.0009053945541381836,-0.014590904116630554,-0.13522739708423615,-0.13003799319267273,-0.03867203998778243,0.35129102502298337,-0.03092211798748533
2.565747022628784,0.004395574331283569,0.010529041290283203,0.006983578205108643,-0.004497257526963949,-0.12786056101322174,-0.12709280848503113,-0.039239983214903136,0.3499851446739926,-0.032102195120685184
2.575727939605713,0.004487782716751099,0.008191607892513275,0.010702073574066162,0.011244437657296658,-0.12552855908870697,-0.1201881468296051,-0.03963985909614368,0.3487062423335814,-0.03327824139566353
2.585815906524658,0.004209756851196289,0.013092324137687683,0.013862907886505127,0.01611083187162876,-0.12027041614055634,-0.1097877025604248,-0.03989682646966949,0.3474626765989457,-0.03441370304009728
2.5957930088043213,0.003112196922302246,0.014390900731086731,0.013677477836608887,0.0037709088064730167,-0.09886552393436432,-0.10529106110334396,-0.040170116632549074,0.34636128697048335,-0.035460341686119105
2.605855941772461,0.003835022449493408,0.004596419632434845,0.012544631958007812,-0.01879032701253891,-0.0847419872879982,-0.0945499986410141,-0.04059605354882435,0.3454686629250606,-0.03637352293929266
2.615847110748291,-0.0008429586887359619,-0.007009051740169525,0.014094889163970947,-0.031807493418455124,-0.07932005822658539,-0.0953444167971611,-0.0412309801233718,0.34469216616728454,-0.03717218500459536
2.625901937484741,0.004300117492675781,-0.010332658886909485,0.01455235481262207,-0.02045363560318947,-0.08600033074617386,-0.089328333735466,-0.04188487253734227,0.34393846525850424,-0.03794234872063987
2.6359479427337646,0.012223690748214722,-0.00877000018954277,0.01538914442062378,-0.005515933036804199,-0.09450744837522507,-0.08156724274158478,-0.04239785579470002,0.3431144515372494,-0.03871176459171736
2.6493210792541504,0.013612240552902222,-0.004437532275915146,0.014682948589324951,0.0015592866111546755,-0.09886784106492996,-0.06949993222951889,-0.04270433511704302,0.3422272241511444,-0.0394156306370934
2.657676935195923,0.01611343026161194,-0.004138823598623276,0.00809776782989502,-0.002956802025437355,-0.09144569933414459,-0.059755586087703705,-0.04295517358276516,0.34135701316848427,-0.04002333543220986
2.6671390533447266,0.018402576446533203,-0.006139717996120453,0.002749145030975342,-0.009798462502658367,-0.08576784282922745,-0.05002465844154358,-0.04326262270631312,0.34056729992802387,-0.04051628736141499
2.6758840084075928,0.020165711641311646,-0.010395489633083344,-0.00018894672393798828,-0.009518630802631378,-0.07245869189500809,-0.0392453558743,-0.04358194131573296,0.3398666579906013,-0.04090898503477721
2.685914993286133,0.025132864713668823,-0.016780290752649307,-0.00047463178634643555,0.008675818331539631,-0.07717088609933853,-0.0244126133620739,-0.04371076345516805,0.33919599415004875,-0.041202501043493406
2.6960058212280273,0.02826520800590515,-0.014858625829219818,-5.161762237548828e-05,0.018338965252041817,-0.08737212419509888,-0.005542573519051075,-0.043574245587752344,0.3384443862385214,-0.041390348558657884
2.7059130668640137,0.03213769197463989,-0.00846150517463684,0.0020189285278320312,0.022105740383267403,-0.1008455902338028,0.009623861871659756,-0.04329563823415906,0.3376179249493082,-0.04144751239687167
2.7159879207611084,0.03693684935569763,-0.009100716561079025,0.007379472255706787,0.040994808077812195,-0.1243945062160492,0.011579954996705055,-0.04291214654907823,0.3366812570379436,-0.041447518694572534
2.7260208129882812,0.03540953993797302,-0.018379289656877518,0.018072068691253662,-0.0002498319372534752,-0.11325423419475555,0.00998125784099102,-0.0426537359223051,0.3356596659278903,-0.04139616966160367
2.7359519004821777,0.029239624738693237,-0.024501152336597443,0.03161334991455078,-0.05057045817375183,-0.09150207042694092,0.024169888347387314,-0.04284010437209286,0.33482711687023375,-0.04113979676123005
2.7459819316864014,0.01813867688179016,-0.0367160402238369,0.031574785709381104,-0.05471327155828476,-0.06927958875894547,0.03816240280866623,-0.04324506217792526,0.33424320554607095,-0.04066469073190778
2.755941867828369,0.010230422019958496,-0.03974531218409538,0.026032328605651855,-0.04858267679810524,-0.05620213598012924,0.043318018317222595,-0.043528015437327816,0.33379926333836296,-0.04008748349993638
2.765982151031494,0.010499566793441772,-0.025504514575004578,0.02670586109161377,-0.044643595814704895,-0.035761307924985886,0.0470576286315918,-0.04372222779784801,0.33358174204277735,-0.03951082271454742
2.7760190963745117,0.004193246364593506,-0.023401528596878052,0.028934776782989502,-0.04617544636130333,-0.021128036081790924,0.053905148059129715,-0.0438929601861241,0.333556686432878,-0.038862482633078094
2.7862069606781006,-0.0009183287620544434,-0.028162401169538498,0.02980804443359375,-0.05494390428066254,-0.003068077377974987,0.060043469071388245,-0.044106924448142834,0.3337053169483268,-0.03814203365316035
2.7960150241851807,-0.0025026798248291016,-0.024233441799879074,0.025785386562347412,-0.0750662162899971,0.0072767059318721294,0.06661614775657654,-0.04445075729906095,0.33406354222458207,-0.03731064649006542
2.8061671257019043,0.0021194815635681152,-0.022783879190683365,0.01932656764984131,-0.081321582198143,0.010891148820519447,0.07137206941843033,-0.04484790411514832,0.33449142753179884,-0.03638286995653608
2.816089153289795,0.003922939300537109,-0.017751362174749374,0.011390626430511475,-0.0792304202914238,0.00011826213449239731,0.07671379297971725,-0.04521738089742923,0.33486607825690307,-0.03539773476007319
2.8261430263519287,0.00708356499671936,-0.005832094699144363,0.0045601725578308105,-0.0768122673034668,-0.010961286723613739,0.07539712637662888,-0.04549016257719167,0.3350461005040963,-0.03441981642343777
2.836052894592285,0.007842034101486206,0.004230659455060959,-0.0022979378700256348,-0.06633026897907257,-0.02171708270907402,0.06843380630016327,-0.04571205064416387,0.33503818227532534,-0.03349428275527335
2.847705841064453,0.00483354926109314,0.011296499520540237,-0.009542107582092285,-0.06500294804573059,-0.04542960599064827,0.05190702900290489,-0.04598598278714502,0.3348511471856801,-0.03270201928472272
2.8561339378356934,0.0016572773456573486,0.02022658661007881,-0.012182116508483887,-0.07961806654930115,-0.05077270418405533,0.03225242346525192,-0.046394706079036535,0.33447214092436767,-0.03206973872949527
2.8661270141601562,-0.0014583170413970947,0.02285763993859291,-0.009579718112945557,-0.08470071107149124,-0.05144914612174034,0.013198836706578732,-0.046938074203950624,0.3340473536668623,-0.03157484678404159
2.8761301040649414,-0.0071416497230529785,0.026066798716783524,-0.008900821208953857,-0.08039011061191559,-0.06118473410606384,-0.011252284049987793,-0.04759012766508955,0.3335158211285488,-0.03128429422272338
2.886197090148926,-0.010558009147644043,0.03346965089440346,-0.010769784450531006,-0.07248025387525558,-0.06605831533670425,-0.028787337243556976,-0.04829048791888819,0.33292760513011155,-0.031228803745619548
2.8989758491516113,-0.012705683708190918,0.03712970018386841,-0.009473919868469238,-0.06223475560545921,-0.0685674175620079,-0.04309069737792015,-0.04898001459690988,0.33227248037742324,-0.031354416634472436
2.9062271118164062,-0.015149146318435669,0.04224025458097458,-0.010553717613220215,-0.04483019933104515,-0.06947609037160873,-0.049003444612026215,-0.0496228095307421,0.3316069175249255,-0.03162224845696691
2.9165120124816895,-0.01510193943977356,0.043709080666303635,-0.009304702281951904,-0.020927229896187782,-0.06897656619548798,-0.054491955786943436,-0.05009242489490535,0.33093490865033637,-0.03200737640496255
2.92606782913208,-0.015963584184646606,0.042643845081329346,-0.007684588432312012,-0.00548116210848093,-0.07156595587730408,-0.05446931719779968,-0.0504103874607489,0.3302210999553729,-0.03248130340649073
2.936253070831299,-0.011160731315612793,0.0361500158905983,-0.009106218814849854,0.0016174768097698689,-0.07251008599996567,-0.05515572056174278,-0.05064841982512789,0.3294862544802682,-0.03298408203133697
2.9476449489593506,-0.011876612901687622,0.030603792518377304,-0.0065972208976745605,-0.010886597447097301,-0.07298572361469269,-0.05983009934425354,-0.05093071846109082,0.32871481351267706,-0.03350765906805148
2.9568190574645996,-0.011357337236404419,0.024014484137296677,-0.00048422813415527344,-0.027832074090838432,-0.06272683292627335,-0.05905266851186752,-0.051417150683815846,0.32799646321948267,-0.03400726271295199
2.9671120643615723,-0.01089566946029663,0.016209084540605545,0.0047158002853393555,-0.03119298443198204,-0.06956050544977188,-0.05761110037565231,-0.052051762561399886,0.32724502127126975,-0.03445548869544915
2.9763119220733643,-0.013431817293167114,0.01288585364818573,0.0018863081932067871,-0.02436199225485325,-0.06659503281116486,-0.05583205446600914,-0.05269032899967399,0.32645304456298324,-0.034927081093752206
2.9862418174743652,-0.006635904312133789,0.015404533594846725,0.004490911960601807,-0.01197855919599533,-0.07922108471393585,-0.04823032766580582,-0.05323943442580222,0.32561806423919537,-0.03535219430238651
2.9978489875793457,-0.006523340940475464,0.01990169659256935,0.006546139717102051,-0.00629031378775835,-0.08231611549854279,-0.04673144593834877,-0.05368675561651029,0.32470088795928814,-0.03577973223492664
3.0062379837036133,-0.00945398211479187,0.021093986928462982,0.011760294437408447,-0.018907038494944572,-0.07922365516424179,-0.04463047906756401,-0.054158362278722845,0.3237754290821888,-0.03618268251795459
3.0162668228149414,-0.01264256238937378,0.01761849969625473,0.013742029666900635,-0.040162261575460434,-0.07028990238904953,-0.04584546759724617,-0.0547508201193347,0.3229637771322185,-0.0365232452918403
3.026355028152466,-0.018870234489440918,0.0123642198741436,0.015880227088928223,-0.0556594617664814,-0.05716690793633461,-0.04703723266720772,-0.05550489744615073,0.3222547569209644,-0.03682284147884094
3.036367893218994,-0.022653788328170776,0.009315229952335358,0.0188024640083313,-0.0632585734128952,-0.043484605848789215,-0.04482744634151459,-0.05632738656670601,0.321705612461397,-0.037071033358193534
3.0478157997131348,-0.02339756488800049,0.010233208537101746,0.017862021923065186,-0.058824941515922546,-0.028668111190199852,-0.03692052140831947,-0.05710439407064201,0.32131347508841124,-0.03726460199511166
3.0563130378723145,-0.02231612801551819,0.011697497218847275,0.013157248497009277,-0.04346374794840813,-0.02864338830113411,-0.03570489585399628,-0.05776214851931633,0.3209737123107165,-0.03745092946611883
3.066416025161743,-0.02067086100578308,0.014930199831724167,0.012750625610351562,-0.024972088634967804,-0.029526226222515106,-0.028940735384821892,-0.05823813604425881,0.32067972859016447,-0.037660807032338886
3.0763049125671387,-0.018397659063339233,0.014307968318462372,0.014727592468261719,-0.014449406415224075,-0.03407055884599686,-0.026357147842645645,-0.058586308819605304,0.3203486359841647,-0.0378726745818161
3.086513042449951,-0.014960706233978271,0.01524348184466362,0.015421628952026367,-0.015937581658363342,-0.034062035381793976,-0.028462376445531845,-0.05888727781644165,0.31998022141175325,-0.038098137912639836
3.097360134124756,-0.010809123516082764,0.014335572719573975,0.01540309190750122,-0.03322822228074074,-0.027433250099420547,-0.0272100530564785,-0.05926177640620664,0.3196320361908618,-0.03828823274966386
3.106576919555664,-0.008989900350570679,0.00851556658744812,0.01199430227279663,-0.0474335215985775,-0.01986987143754959,-0.027855869382619858,-0.059772630142193466,0.31936479023319647,-0.03843578707379151
3.1163511276245117,-0.00999179482460022,0.003468092530965805,0.008540749549865723,-0.04891883209347725,-0.023336417973041534,-0.028553936630487442,-0.060350324485595915,0.31908101669293626,-0.038550987935684886
3.1262919902801514,-0.006913572549819946,0.002688150852918625,0.008988499641418457,-0.05159424617886543,-0.026535140350461006,-0.024908600375056267,-0.060948250648807586,0.3187591831767683,-0.03866626178681028
3.136263847351074,-0.0020367205142974854,0.005013208836317062,0.007721662521362305,-0.049422021955251694,-0.022427082061767578,-0.021518556401133537,-0.0615387285304549,0.3184554804473133,-0.038728601295017526
3.147761821746826,0.0013321936130523682,0.0066641271114349365,0.0031986236572265625,-0.03846817463636398,-0.03165653347969055,-0.022640813142061234,-0.062070839750893746,0.31813175514044495,-0.038807735731436144
3.156320095062256,0.004461020231246948,0.006636887788772583,-0.002182304859161377,-0.02946336194872856,-0.03599473461508751,-0.023178664967417717,-0.06251092361001268,0.317737599242892,-0.03893610948442812
3.1663451194763184,0.006665915250778198,0.005938641726970673,-0.0020348429679870605,-0.028339240700006485,-0.0433913990855217,-0.021432165056467056,-0.06290477212318324,0.31728707216011104,-0.039061097962427245
3.1762959957122803,0.00824272632598877,0.009816788136959076,0.0006412267684936523,-0.03793295845389366,-0.03920219838619232,-0.024560419842600822,-0.06334573489752926,0.3168402328210159,-0.039181740234964915
3.186345100402832,0.0039520263671875,0.00961553305387497,0.00310671329498291,-0.045477960258722305,-0.032675594091415405,-0.024508753791451454,-0.06385317966951509,0.31646779334281416,-0.039284827594426884
3.197239875793457,0.001942753791809082,0.002551250159740448,0.0024294257164001465,-0.046874042600393295,-0.02818634733557701,-0.02693718485534191,-0.06438780422161643,0.31613604224910313,-0.03938666292775249
3.2063379287719727,-0.0006570219993591309,0.0020971447229385376,0.0016998648643493652,-0.03875672444701195,-0.029036160558462143,-0.02849007397890091,-0.0648887327440838,0.3158309411675254,-0.03952017375151
3.216392993927002,0.0004990994930267334,0.005894795060157776,0.0038241147994995117,-0.014483628794550896,-0.03119194693863392,-0.022146370261907578,-0.06524221979943194,0.31555270106811495,-0.03969187118264575
3.2263410091400146,-0.00141066312789917,0.004084266722202301,0.0064751505851745605,0.011830000206828117,-0.04076121747493744,-0.01848425716161728,-0.06532869646264669,0.3152032217531102,-0.03987998949005641
3.2364048957824707,0.0015459954738616943,0.007675349712371826,0.004384219646453857,0.02716919220983982,-0.04596223682165146,-0.015624129213392735,-0.06520108525432028,0.3147860857981228,-0.04010677555713904
3.247438907623291,0.0015236437320709229,0.009981721639633179,0.004270732402801514,0.027565203607082367,-0.03611200302839279,-0.015528787858784199,-0.06499999698287509,0.31440337246431355,-0.04034290576901828
3.2564620971679688,-0.00303572416305542,0.004658818244934082,0.008028686046600342,0.02143830433487892,-0.029506031423807144,-0.012876599095761776,-0.06484466691458156,0.31412356885333864,-0.040545072101466816
3.2665460109710693,-0.010382324457168579,-0.0010086894035339355,0.00952988862991333,0.010846910998225212,-0.01834259182214737,-0.009706638753414154,-0.06477472876002525,0.3139206080491409,-0.04070688623215642
3.2767739295959473,-0.010984271764755249,-0.004143573343753815,0.007798910140991211,0.0037696105428040028,-0.011397024616599083,-0.007489397190511227,-0.06475099392256548,0.3137987387080465,-0.040808975710966346
3.286515951156616,-0.012719690799713135,-0.005576319992542267,0.008002221584320068,0.0014635792467743158,-0.005757248494774103,-0.003966568037867546,-0.064764699950269,0.31373038874068304,-0.04086581923798929
3.297646999359131,-0.013367176055908203,-0.0030584409832954407,0.009445369243621826,0.012521256692707539,-0.000948022585362196,-0.0013534744502976537,-0.06474921802060124,0.3137048757889085,-0.04090955583369811
3.3066110610961914,-0.013762891292572021,-0.0028573572635650635,0.009768843650817871,0.0358516126871109,0.004759664181619883,0.002872429322451353,-0.06456301709806894,0.313732064265878,-0.040975587595231615
3.316594123840332,-0.013433665037155151,-0.0007597059011459351,0.005369663238525391,0.0685742050409317,0.003378459718078375,0.01167156733572483,-0.06408180098860979,0.3137931245221203,-0.04106899223967293
3.3265819549560547,-0.014152377843856812,0.009399190545082092,-0.0002518296241760254,0.08765389025211334,0.0004087686538696289,0.01454831287264824,-0.06333606346116429,0.31381145880954914,-0.041185594661864285
3.3366708755493164,-0.013768225908279419,0.01653658226132393,-0.0047324299812316895,0.0820377990603447,0.0009855655953288078,0.015505081042647362,-0.06249889178217576,0.31380760422620785,-0.04130764771692955
3.3474719524383545,-0.011534839868545532,0.012813732028007507,-0.006693899631500244,0.05704376846551895,0.00020339526236057281,0.007870330475270748,-0.061795337869683095,0.31377142533330843,-0.041419956354506654
3.356621026992798,-0.010041028261184692,0.003972534090280533,-0.0049343109130859375,0.024926744401454926,-0.0069959284737706184,-0.0003627251135185361,-0.06138893983323317,0.31368453197682145,-0.041518167858982546
3.3665409088134766,-0.011090636253356934,-0.0009843595325946808,-0.0014740824699401855,0.0016160954255610704,-0.014617095701396465,-0.00819428265094757,-0.061279709428453066,0.31351824816000196,-0.041604934694884875
3.376981019973755,-0.00879812240600586,-0.0013228729367256165,-0.00047641992568969727,-0.0020721997134387493,-0.02562824636697769,-0.014046259224414825,-0.06132840246646359,0.31324211851974254,-0.04170974308155019
3.3869760036468506,-0.008198738098144531,0.003319956362247467,-0.0019519925117492676,0.0013584843836724758,-0.03734855353832245,-0.01576905883848667,-0.0613853813173863,0.31286918892207194,-0.041843587568685885
3.4003469944000244,-0.0064859092235565186,0.004437316209077835,-0.0031990408897399902,0.0036642157938331366,-0.042071133852005005,-0.016513997688889503,-0.06142777123243871,0.31240005940805093,-0.04200535024541982
3.408025026321411,-0.004585981369018555,0.006275773048400879,-0.0061689019203186035,0.009753533639013767,-0.03651658073067665,-0.012376511469483376,-0.061466211684200335,0.31192665143703474,-0.04216264450549733
3.416774034500122,-0.003831714391708374,0.010446533560752869,-0.005672931671142578,0.015758046880364418,-0.041702333837747574,-0.009663281962275505,-0.06146109682598022,0.31145385218964217,-0.042318278751741684
3.4268569946289062,-0.004233121871948242,0.010277457535266876,-0.004283487796783447,0.014660557731986046,-0.04262485355138779,-0.012138690799474716,-0.06141646507693624,0.3109601021449059,-0.04247012082020828
3.436829090118408,-0.0005318820476531982,0.009023547172546387,0.002207338809967041,0.008475100621581078,-0.04688200354576111,-0.011011002585291862,-0.06135800984203028,0.31045213568048274,-0.042615915288207545
3.448050022125244,0.0008456707000732422,0.006332848221063614,0.005010128021240234,-0.0012648790143430233,-0.03932661563158035,-0.013863513246178627,-0.06136317239187928,0.30996611427184256,-0.04275718799621141
3.456900119781494,1.6629695892333984e-05,0.004817839711904526,0.00822138786315918,0.003231469076126814,-0.0391782782971859,-0.01230391301214695,-0.061382858169108295,0.3095384605735685,-0.04287740504776788
3.467221975326538,-0.0018319487571716309,0.0010567419230937958,0.010314345359802246,0.005013389978557825,-0.03641711175441742,-0.015046436339616776,-0.061405593313083505,0.30912400495148595,-0.04303258053873949
3.476836919784546,0.0006026923656463623,0.001332394778728485,0.01326143741607666,0.004985393490642309,-0.030401740223169327,-0.009762192144989967,-0.06141988559451291,0.30876230252894327,-0.043161627852629114
3.4868760108947754,0.00024941563606262207,0.0050332210958004,0.011799812316894531,-4.238821566104889e-05,-0.01928757131099701,-0.007486254908144474,-0.061457531901325406,0.30849271761345376,-0.04325507865236543
3.498629093170166,0.0011804401874542236,0.002119012176990509,0.010338127613067627,0.0009334105998277664,-0.021850019693374634,0.00021624600049108267,-0.061518464162388674,0.3082690332149028,-0.04329035175931307
3.5069708824157715,0.0006178319454193115,0.0010107383131980896,0.010698020458221436,0.01335279643535614,-0.02080472931265831,0.005586510524153709,-0.0614975489646395,0.3080419377576852,-0.04329235179862765
3.5168709754943848,0.005903810262680054,0.006482623517513275,0.012526392936706543,0.017635757103562355,-0.023900477215647697,0.011365623213350773,-0.06136598845790859,0.3078240503903195,-0.04325029463946276
3.5268211364746094,0.006435990333557129,0.009174708276987076,0.015088260173797607,0.021236084401607513,-0.022003240883350372,0.011844992637634277,-0.061175995354210026,0.3076137752169264,-0.043205325078650963
3.5368728637695312,0.005049794912338257,0.006536737084388733,0.017794668674468994,0.01475435122847557,-0.010675395838916302,0.013186000287532806,-0.06099073759482339,0.3074793914169082,-0.04314649400340174
3.5502970218658447,0.0034533441066741943,0.003499221056699753,0.02041471004486084,0.008757710456848145,-0.006234575062990189,0.014303196221590042,-0.06083888999484869,0.307422314300051,-0.043038796884619056
3.5575270652770996,0.00043764710426330566,0.005135856568813324,0.019837915897369385,0.005958994850516319,-0.0013646301813423634,0.013890192843973637,-0.060743211594319,0.30743064504928486,-0.04292021381942626
3.566849946975708,-0.0003293752670288086,0.0055297017097473145,0.021305859088897705,0.005609055981040001,0.007555627729743719,0.013499241322278976,-0.06068495863498792,0.30748196248128495,-0.04281104747112091
3.576718807220459,5.266070365905762e-05,0.006772279739379883,0.02223026752471924,0.012473885901272297,0.004704181104898453,0.01315542683005333,-0.060571314365609454,0.3075753904645186,-0.04271863603271072
3.586939811706543,0.0012063384056091309,0.011834505945444107,0.018744945526123047,0.012157502584159374,0.012094186618924141,0.008445094339549541,-0.060422146640383576,0.30767507748545503,-0.042661089829474495
3.598686933517456,0.003517836332321167,0.012918192893266678,0.01673215627670288,0.008363563567399979,0.02225867286324501,0.008754819631576538,-0.06033011383877437,0.3078900607089544,-0.04261565307227144
3.607016086578369,0.002457171678543091,0.009858481585979462,0.01838994026184082,0.004797590430825949,0.026806553825736046,0.006509775295853615,-0.0602769374729474,0.30816997116311684,-0.04256015857679869
3.6169838905334473,0.0004093348979949951,0.009556155651807785,0.017484188079833984,0.0009322785772383213,0.030350955203175545,0.0030205014627426863,-0.0602587980617819,0.3084938111257596,-0.042517840685639505
3.626929998397827,0.0014626085758209229,0.009544558823108673,0.016151010990142822,-0.0015500537119805813,0.038721270859241486,0.003607461927458644,-0.06027041031055569,0.3088626030490898,-0.04247906469532628
3.637021064758301,0.0007796883583068848,0.007752139121294022,0.01553577184677124,-0.0016230243491008878,0.039501309394836426,0.003918519243597984,-0.06029285138092478,0.30927635032732137,-0.04243999870877946
3.648782968521118,-0.001358717679977417,0.01023641973733902,0.012938082218170166,-0.005423621274530888,0.03935909643769264,0.0002976855030283332,-0.06034162124291455,0.3096808258238678,-0.042414924866697894
3.6570920944213867,0.0009797215461730957,0.009432245045900345,0.011430621147155762,-0.016016760841012,0.04084456339478493,-0.005003656260669231,-0.06047464925735717,0.3100966537953884,-0.042405976782695434
3.6671929359436035,-0.0010416805744171143,0.007221214473247528,0.014026284217834473,-0.02461317926645279,0.04511707276105881,-0.00863540917634964,-0.06073302782084768,0.3105427781544664,-0.04240493485065492
3.677091121673584,-0.007201552391052246,0.007449038326740265,0.016366124153137207,-0.03432399779558182,0.053670793771743774,-0.011868059635162354,-0.061085697586356305,0.3110585544610301,-0.04241243311312863
3.687140941619873,-0.010782301425933838,0.006262682378292084,0.012549281120300293,-0.03453705087304115,0.06085919588804245,-0.01230242196470499,-0.06147933437193463,0.3116391347825277,-0.04242120522637343
3.698762893676758,-0.011870354413986206,0.007104083895683289,0.006310939788818359,-0.0242420993745327,0.06406936794519424,-0.012646022252738476,-0.06182877996892584,0.3122614435630773,-0.042449227634629924
3.7074170112609863,-0.00932285189628601,0.006559431552886963,0.0012121200561523438,-0.00565003976225853,0.0663631483912468,-0.008201739750802517,-0.06203814429925955,0.3129251239551057,-0.042505346690494245
3.7179160118103027,-0.005941957235336304,0.005801137536764145,-0.0017639398574829102,0.01818902976810932,0.05135726183652878,-0.008062456734478474,-0.06201819892779875,0.31352620361435013,-0.0425846464481715
3.7275969982147217,-0.0014473795890808105,0.012145087122917175,-0.003038465976715088,0.030134104192256927,0.0413333885371685,-0.016452744603157043,-0.06185374086034899,0.31398008001768535,-0.04279061224817252
3.737250804901123,0.0014615058898925781,0.011652305722236633,-3.6835670471191406e-05,0.019124865531921387,0.039980944246053696,-0.024186085909605026,-0.061705376834571626,0.31436871765470126,-0.04305652238267608
3.748044967651367,-0.0036700963973999023,0.006293069571256638,0.002953052520751953,0.00021801888942718506,0.04212452471256256,-0.030621614307165146,-0.06173935760961125,0.31476016387727745,-0.04334481554745132
3.757244110107422,-0.0063211917877197266,0.004912994801998138,-0.0003643631935119629,-0.002799309091642499,0.043956954032182693,-0.033692505210638046,-0.06189903855072478,0.3151450822267652,-0.043648800447446005
3.7672810554504395,-0.007423609495162964,0.0022416450083255768,-0.006528973579406738,0.013286982662975788,0.035299818962812424,-0.029884450137615204,-0.0619918293187332,0.3154726189101856,-0.043967761427706926
3.777169942855835,-0.006780415773391724,0.005713466554880142,-0.01279151439666748,0.03467649221420288,0.02828265354037285,-0.026132483035326004,-0.06189200733638051,0.3157093486242324,-0.044324925921551704
3.787338972091675,-0.002984941005706787,0.01116529107093811,-0.01529240608215332,0.04143080115318298,0.016941849142313004,-0.020659420639276505,-0.06162766924314418,0.3158529439131588,-0.04468160348779605
3.7990450859069824,-0.001175522804260254,0.009051650762557983,-0.016095638275146484,0.0336148738861084,0.012485005892813206,-0.02158614806830883,-0.06136042471128272,0.3159346945693925,-0.04500836582222785
3.807361125946045,-0.002177596092224121,0.0009529665112495422,-0.013316452503204346,0.026269875466823578,0.008620226755738258,-0.023593373596668243,-0.06120381116932477,0.31600669479381344,-0.04531428606826372
