timestamp,accel_x,accel_y,accel_z,rotation_x,rotation_y,rotation_z, pitch,roll,yaw
0.044680118560791016,-0.008440643548965454,0.0006715906783938408,-0.0025472044944763184,-0.00990055501461029,-0.14981967210769653,-0.0711662545800209,-0.011245769628237177,0.15766263790759064,0.0008883690568975305
0.058500051498413086,-0.007030129432678223,-0.006457139737904072,0.003644704818725586,-0.009464911185204983,-0.1416001319885254,-0.06609789282083511,-0.0114470222732422,0.15620394580983105,0.0002230496121102121
0.07066893577575684,-0.003629148006439209,-0.012210228480398655,0.007471859455108643,-0.003275458700954914,-0.13202659785747528,-0.06027595326304436,-0.011600145343172124,0.1548312756515143,-0.0003891006655861425
0.07847094535827637,0.0014016032218933105,-0.01739664375782013,0.011572957038879395,-0.0001942811068147421,-0.12095015496015549,-0.05287140980362892,-0.011705391331671495,0.1535543931142746,-0.0009405276038869948
0.08148193359375,0.00614851713180542,-0.02229214459657669,0.013850152492523193,0.0053488221019506454,-0.10435306280851364,-0.04216843098402023,-0.011748601400077174,0.15242589392779896,-0.0014108547606475335
0.0871129035949707,0.01001150906085968,-0.02563519775867462,0.012866437435150146,0.011647331528365612,-0.08617468923330307,-0.031428538262844086,-0.011734721192142278,0.15146618545148477,-0.0017930716292821945
0.09131813049316406,0.012033343315124512,-0.03082125261425972,0.012420654296875,0.020166782662272453,-0.06998106837272644,-0.016553454101085663,-0.011610709606306321,0.1506864135371955,-0.002062215143338243
0.10117816925048828,0.01478816568851471,-0.03551523759961128,0.010217785835266113,0.03260710835456848,-0.06055179238319397,-0.0036928898189216852,-0.011360830588555077,0.1500294186567835,-0.0022022509699114036
0.11092305183410645,0.020360425114631653,-0.036631617695093155,0.007606565952301025,0.03505854681134224,-0.05437139421701431,0.013246945105493069,-0.01101234355334361,0.14945499876351673,-0.0022046880851747746
0.12093305587768555,0.02471540868282318,-0.04272821545600891,0.004953444004058838,0.029498400166630745,-0.04632101580500603,0.026436729356646538,-0.010654453839320666,0.14895432929948718,-0.002060056317274025
0.1309370994567871,0.027774661779403687,-0.050159014761447906,0.005170226097106934,0.026448281481862068,-0.03635120391845703,0.04490654915571213,-0.010318509631101586,0.1485450178497302,-0.001760950285227639
0.14095497131347656,0.02573227882385254,-0.0588650107383728,0.006958723068237305,0.019773336127400398,-0.027182385325431824,0.061202485114336014,-0.010021805738258005,0.14823368560021102,-0.0012763545301856148
0.15101385116577148,0.02459876239299774,-0.06260106712579727,0.011389672756195068,0.018248675391077995,-0.020375609397888184,0.07917375862598419,-0.009729524397133753,0.14800623695576715,-0.0006046688935970712
0.16118288040161133,0.024586334824562073,-0.065367691218853,0.014116525650024414,0.014714360237121582,-0.013503856025636196,0.09789600223302841,-0.00942911842568581,0.14784867190914153,0.0002497068411133729
0.1712779998779297,0.02353791892528534,-0.06796649098396301,0.018178939819335938,0.00200815312564373,-0.011748299933969975,0.1173463985323906,-0.00918977126982595,0.14773585353226232,0.0013061644386547454
0.18117713928222656,0.022897198796272278,-0.06752372533082962,0.02012532949447632,-0.0034076846204698086,0.000504370778799057,0.13528992235660553,-0.00900640188393039,0.1476891667661156,0.0025622396329129035
0.1912839412689209,0.01704515516757965,-0.06835952401161194,0.02929973602294922,-0.013149261474609375,0.010571119375526905,0.15033811330795288,-0.008880889045746451,0.14777414950766102,0.003989131740180689
0.2013089656829834,0.004930093884468079,-0.06113719940185547,0.03666269779205322,-0.021039210259914398,0.010004487819969654,0.15409578382968903,-0.00786885591447863,0.14818902119035973,0.00552301106805282
0.21120786666870117,-0.0010917633771896362,-0.05286693572998047,0.0441095232963562,-0.034848764538764954,0.008646808564662933,0.15689289569854736,-0.007014339789658352,0.14853752150098118,0.007107728882614874
0.2211141586303711,-0.006497606635093689,-0.04905913770198822,0.05242502689361572,-0.04829421639442444,0.022111883386969566,0.16010381281375885,-0.00633458178868971,0.14888055405653516,0.008743696229327021
0.23121213912963867,-0.020709708333015442,-0.043846286833286285,0.05889546871185303,-0.06022438034415245,0.032340288162231445,0.1588185727596283,-0.005928236533438564,0.14930303872499415,0.010422194429245723
0.24104785919189453,-0.0374801903963089,-0.031187767162919044,0.06123387813568115,-0.06430039554834366,0.04532039910554886,0.15705642104148865,-0.00572088684620368,0.14979774840780494,0.012074571449181117
0.25115203857421875,-0.04578600823879242,-0.01925978809595108,0.060515761375427246,-0.06185641139745712,0.061540115624666214,0.1483667939901352,-0.005618466855042647,0.15042006278271114,0.013682149446914163
0.2610759735107422,-0.055333465337753296,-0.004539750516414642,0.05059176683425903,-0.055485814809799194,0.07256990671157837,0.1363033652305603,-0.005562127392891315,0.15117168491335942,0.01518249453466829
0.27117300033569336,-0.06165866553783417,0.010092383250594139,0.04061001539230347,-0.05520724877715111,0.08151626586914062,0.11720370501279831,-0.005532650147034861,0.15199790051912748,0.016525623248006174
0.281829833984375,-0.06440503895282745,0.019627247005701065,0.032899320125579834,-0.05731913819909096,0.0830853134393692,0.09905463457107544,-0.005626087042125585,0.15283143815499048,0.017689064633786312
0.29114699363708496,-0.06293492019176483,0.02948724292218685,0.02517038583755493,-0.06176714971661568,0.08460678160190582,0.0774388238787651,-0.005836897939377829,0.15367549810555586,0.018649678160564696
0.3011770248413086,-0.06127648055553436,0.03803284838795662,0.018999457359313965,-0.07197697460651398,0.0800134465098381,0.05075639858841896,-0.006187168983262252,0.1544990597354504,0.019392201178058895
0.31115293502807617,-0.05809462070465088,0.04459559917449951,0.012324094772338867,-0.08138113468885422,0.07166736572980881,0.02668594941496849,-0.006704509514222498,0.15521731804006508,0.019898358680705296
0.3214399814605713,-0.050460636615753174,0.04904878884553909,0.003346085548400879,-0.08752769231796265,0.06292762607336044,0.0006415114039555192,-0.00737828523026351,0.15581580185281022,0.020160883982059213
0.33186912536621094,-0.045884132385253906,0.052866268903017044,-0.004564881324768066,-0.08481526374816895,0.05513281747698784,-0.021094676107168198,-0.008168987491924169,0.15631221068299456,0.020192167638487853
0.3413820266723633,-0.04210421442985535,0.055073853582143784,-0.00908571481704712,-0.07426423579454422,0.04307007044553757,-0.03616896644234657,-0.00895214832421441,0.15668834944846483,0.020022289811316287
0.35146093368530273,-0.03943604230880737,0.05710117146372795,-0.013809382915496826,-0.06704653054475784,0.030967870727181435,-0.049182236194610596,-0.009747746199611032,0.15689250686444775,0.019708760274997524
0.3612630367279053,-0.03529161214828491,0.05877755582332611,-0.017843782901763916,-0.06217889115214348,0.0236206091940403,-0.06188764423131943,-0.01055858193157964,0.1569770754749004,0.019261142703418423
0.37145185470581055,-0.03351534903049469,0.05163586884737015,-0.020464003086090088,-0.06021400913596153,0.0203142948448658,-0.07133147865533829,-0.011413701521067538,0.15698771488001445,0.018701025152677363
0.38167595863342285,-0.033647701144218445,0.0451665036380291,-0.0226629376411438,-0.06540176272392273,0.01507137343287468,-0.0841064527630806,-0.012420493719957001,0.15692275138508632,0.018028613230931176
0.3915128707885742,-0.032149165868759155,0.037675194442272186,-0.022523105144500732,-0.07219788432121277,0.0057314010336995125,-0.0957023873925209,-0.013671064876892904,0.15670581691966087,0.017246975376880698
0.40160512924194336,-0.025636479258537292,0.02747296914458275,-0.020067870616912842,-0.07537838071584702,-0.0028852117247879505,-0.10410519689321518,-0.015114892371366295,0.15638751420427102,0.01637289216662485
0.41161394119262695,-0.020892754197120667,0.017933372408151627,-0.01939469575881958,-0.07463189959526062,-0.01677572727203369,-0.103566974401474,-0.016765906278260433,0.15591453604384758,0.015452987416297732
0.4215669631958008,-0.015960082411766052,0.010914474725723267,-0.01904386281967163,-0.07341716438531876,-0.03397734835743904,-0.0961022898554802,-0.018688672548355708,0.15520516619116395,0.014570896719793853
0.4317331314086914,-0.0101386159658432,0.002919193357229233,-0.014803647994995117,-0.06868153065443039,-0.04407498985528946,-0.08745180815458298,-0.020580804255116502,0.15438434285462774,0.013754597972529535
0.4413938522338867,-0.006582438945770264,-0.007589483633637428,-0.010501563549041748,-0.06622163206338882,-0.04787292331457138,-0.07545118033885956,-0.022407652605990095,0.1535400621558642,0.013044298941225115
0.45154500007629395,-0.005271613597869873,-0.015160657465457916,-0.008247196674346924,-0.06126948446035385,-0.0449405200779438,-0.059898849576711655,-0.023982546257675933,0.15272863561419875,0.012464925236774097
0.46146106719970703,-0.0026395171880722046,-0.023789959028363228,-0.007721245288848877,-0.06004860997200012,-0.04271345213055611,-0.045881304889917374,-0.02528802241812159,0.15196923116647906,0.012027415539620875
0.47148990631103516,0.0019987672567367554,-0.029776252806186676,-0.007986605167388916,-0.04735598340630531,-0.037343453615903854,-0.033007584512233734,-0.02625449737368304,0.15134034570125732,0.011717413520346349
0.48167896270751953,0.005186319351196289,-0.03136831521987915,-0.004572510719299316,-0.03412704914808273,-0.03222126141190529,-0.016817107796669006,-0.02688548239994658,0.15085037030313847,0.011529561273036181
0.4915919303894043,0.004827186465263367,-0.029450245201587677,-0.0012850165367126465,-0.027769017964601517,-0.029852915555238724,-0.005678968504071236,-0.027286893585414966,0.15042799287476694,0.011467330718897339
0.5016679763793945,0.005222931504249573,-0.03085007704794407,0.0031068921089172363,-0.02305721864104271,-0.02202180027961731,0.005655284970998764,-0.027557674131505144,0.15009046621780794,0.01150955175257861
0.511599063873291,0.006765902042388916,-0.03440579026937485,0.002892732620239258,-0.009144066832959652,-0.014053089544177055,0.01457234751433134,-0.027649678320375803,0.1498728725142663,0.011635467524131417
0.5216109752655029,0.006847366690635681,-0.03059050627052784,0.004492461681365967,-0.003412644611671567,-0.01271848939359188,0.017958663403987885,-0.027496446117784904,0.1497126248026173,0.011811108638638353
0.5319600105285645,0.006378173828125,-0.025756223127245903,0.008900761604309082,-0.0007779793813824654,-0.005742606241255999,0.027274401858448982,-0.02713285070517886,0.1495837531309145,0.012038702961450577
0.5416710376739502,0.006756007671356201,-0.02500508725643158,0.006814122200012207,-0.00010701268911361694,0.004085922613739967,0.03265894204378128,-0.026579882300247822,0.14955433138147917,0.01233176182144608
0.5516438484191895,0.0056457072496414185,-0.02222837507724762,0.002954721450805664,-0.0011163506424054503,0.010089486837387085,0.03615327551960945,-0.02595444364045479,0.14965626434330054,0.012679614356331357
0.5616331100463867,0.0050407350063323975,-0.017802050337195396,0.00208967924118042,-0.0015430724015459418,0.01293431967496872,0.03935876116156578,-0.025327350378306218,0.14983364657919973,0.0130555940000043
0.571666955947876,0.004241436719894409,-0.014012118801474571,0.0023792386054992676,0.0050000473856925964,0.016402021050453186,0.04802042618393898,-0.024726314518840265,0.1500379403400984,0.013490104104118822
0.5817699432373047,0.0013865530490875244,-0.011292271316051483,0.002682626247406006,0.002070204820483923,0.01394214853644371,0.0534539669752121,-0.02409673553986631,0.15025325765850825,0.013991904018043386
0.5916900634765625,0.0015538334846496582,-0.007842447608709335,0.0002593994140625,-0.0023405225947499275,0.009078151546418667,0.05563695728778839,-0.023454345189689484,0.1504367447050763,0.014538279015539283
0.6018900871276855,0.0019551217555999756,-0.00528717041015625,-0.0022829771041870117,-0.00030290475115180016,0.008031528443098068,0.05929939076304436,-0.022897822786987477,0.15058456511195206,0.015105761879800741
0.6116890907287598,-0.0012253522872924805,-0.003411564975976944,-0.004583179950714111,-0.0036936413962394,0.00491509772837162,0.05972709506750107,-0.02244116796079273,0.15072866571723428,0.015699907654379903
0.6216721534729004,-0.0029331594705581665,-0.0010844822973012924,-0.00913459062576294,-0.0037134820595383644,-1.2104865163564682e-05,0.05942524969577789,-0.022021329226042767,0.1508186678704578,0.01629318395008206
0.6318750381469727,-0.002868473529815674,0.0012946687638759613,-0.010271072387695312,-0.011142103001475334,-0.010475131683051586,0.06024124473333359,-0.021686776185867652,0.15081387428238865,0.01690138968851669
0.6416800022125244,-0.002663731575012207,0.0006689541041851044,-0.005676567554473877,-0.014436965808272362,-0.015262164175510406,0.05946679785847664,-0.021488469809837374,0.15072958044309748,0.017524003621519006
0.651796817779541,-0.006003513932228088,0.0008672494441270828,-0.00025409460067749023,-0.022934049367904663,-0.01955571211874485,0.056787654757499695,-0.021396963303978313,0.15060384961052609,0.018128170361103917
0.6617310047149658,-0.00755704939365387,-0.0007765423506498337,-0.00040990114212036133,-0.029538553208112717,-0.022974591702222824,0.05830177292227745,-0.02143859234187141,0.15041585142773384,0.018738451319116358
0.6718089580535889,-0.009726107120513916,-0.0003953315317630768,0.000868678092956543,-0.027959300205111504,-0.021524231880903244,0.05948900803923607,-0.021545685656807253,0.15021786976449786,0.01936714498039213
0.6819369792938232,-0.010833591222763062,0.0006088148802518845,0.0024785995483398438,-0.015171648934483528,-0.018184319138526917,0.062167614698410034,-0.021594407618324485,0.15005718288687442,0.020002329348574075
0.691735029220581,-0.015890315175056458,0.0034256335347890854,0.0039255619049072266,-0.0015394604997709394,-0.016007184982299805,0.061454154551029205,-0.02153942004505347,0.14987792156719415,0.02062899326106969
0.7018229961395264,-0.01765996217727661,0.006728123873472214,0.006654560565948486,0.006913729012012482,-0.013974969275295734,0.061038702726364136,-0.021410727223214278,0.14970734730719462,0.021232609577941503
0.7118029594421387,-0.018511071801185608,0.006857624277472496,0.008889496326446533,0.011065597645938396,-0.006238752976059914,0.056819722056388855,-0.021250670773498924,0.14957991430958267,0.021797502664197995
0.7218561172485352,-0.022466197609901428,0.007032278925180435,0.008890748023986816,0.013974267989397049,0.012698719277977943,0.04937107488512993,-0.021060717127666616,0.1495978968147325,0.022296701794306834
0.7321739196777344,-0.027752935886383057,0.004755532369017601,0.00678563117980957,0.019971974194049835,0.01749134436249733,0.04209824651479721,-0.020834968942138495,0.14972792050062209,0.02272175155854344
0.7419860363006592,-0.02928522229194641,0.005599701777100563,0.0071710944175720215,0.022921158000826836,0.01615763269364834,0.03540545701980591,-0.02055531721093205,0.14984159705111266,0.02306890840585825
0.7529158592224121,-0.025809168815612793,0.010449431836605072,0.0094071626663208,0.016588693484663963,0.014500346966087818,0.02686523087322712,-0.020313689753055593,0.1499209964806174,0.02334268383009399
0.761815071105957,-0.02509927749633789,0.008736813440918922,0.009950578212738037,0.0035217939876019955,0.012329693883657455,0.01685243844985962,-0.020210493335161932,0.14997434983561056,0.02353644711260052
0.7719030380249023,-0.02774590253829956,0.0038476530462503433,0.012864291667938232,-0.010447017848491669,0.010198099538683891,0.006759059149771929,-0.02030841207895647,0.14996613501290673,0.02365339193939461
0.7820291519165039,-0.02890317142009735,0.0006059333682060242,0.014390230178833008,-0.012823273427784443,0.01106935366988182,-0.00234256056137383,-0.020544202001275155,0.14993357091105675,0.023692833482984944
0.7919020652770996,-0.030701681971549988,0.0030332375317811966,0.014005601406097412,0.0028235961217433214,0.019085466861724854,-0.00564541295170784,-0.02071092692880102,0.14993205051784544,0.023653938467586642
0.8019640445709229,-0.032554835081100464,0.00839356891810894,0.009888827800750732,0.023525744676589966,0.0318082757294178,-0.011479866690933704,-0.020691165951769504,0.15001608184807544,0.023550162744713082
0.8119590282440186,-0.03817068040370941,0.013062043115496635,0.0039171576499938965,0.03942188620567322,0.04202336445450783,-0.011592252179980278,-0.02046295329765832,0.15018577094980842,0.023389508405494325
0.8219709396362305,-0.03737708926200867,0.014534056186676025,-0.0011584162712097168,0.050487589091062546,0.04433472082018852,-0.017063982784748077,-0.02010475276556366,0.15040063949671217,0.02317536370525974
0.8320779800415039,-0.03346291184425354,0.014185676351189613,-0.0038010478019714355,0.05821714550256729,0.04697231575846672,-0.019469084218144417,-0.019751163056647078,0.1506694183497094,0.022905797868843367
0.8419408798217773,-0.031034409999847412,0.012576904147863388,-0.005719542503356934,0.055407147854566574,0.03564304858446121,-0.021645525470376015,-0.0193456980042713,0.15089737120062535,0.022612714332349685
0.8522748947143555,-0.026528313755989075,0.01183244027197361,-0.008253037929534912,0.05254131928086281,0.019613750278949738,-0.02955538034439087,-0.018930416314142575,0.15095310718391777,0.022278130955789052
0.8620040416717529,-0.019960254430770874,0.01004006527364254,-0.00941765308380127,0.05251917988061905,0.0021799872629344463,-0.0337943360209465,-0.01849492940209494,0.1508369402574099,0.021874442268303238
0.8720309734344482,-0.01266530156135559,0.006031826138496399,-0.01606053113937378,0.04679897800087929,-0.020602822303771973,-0.03426118195056915,-0.018123836049369756,0.15051048130728126,0.02144973061778643
0.882300853729248,-0.005386278033256531,0.00730607844889164,-0.018935799598693848,0.038788869976997375,-0.03738531097769737,-0.03240549564361572,-0.017902407130444564,0.14996907178492785,0.021050985011842167
0.8923149108886719,-0.00033570826053619385,0.0036721155047416687,-0.019709110260009766,0.029205219820141792,-0.05203083157539368,-0.028226463124155998,-0.017828469344364595,0.14922815327333885,0.020693412833227953
0.9021799564361572,0.003183409571647644,-0.0019224826246500015,-0.018577516078948975,0.02041032910346985,-0.06247113272547722,-0.021547840908169746,-0.017853616419737855,0.1483851944857724,0.020413310562514435
0.9122319221496582,0.003912925720214844,-0.004679739475250244,-0.014096617698669434,0.011026681400835514,-0.0731743723154068,-0.018236465752124786,-0.017940598246892182,0.14747800433286656,0.02018563095491232
0.9221768379211426,0.004956275224685669,-0.0074965693056583405,-0.007911086082458496,0.005794735625386238,-0.0829307809472084,-0.012014202773571014,-0.018071902939532602,0.14648518556918916,0.02002661898447736
0.9321408271789551,0.004711121320724487,-0.0073173269629478455,-0.0015401840209960938,0.004618683829903603,-0.08496197313070297,-0.007181897293776274,-0.01821311674940669,0.1454685061526374,0.019923783814285057
0.9421720504760742,0.00447767972946167,-0.010904060676693916,0.002089560031890869,0.0015671835280954838,-0.08304720371961594,-0.001929504331201315,-0.018320864727998293,0.1445171679279892,0.01987057362638059
0.9525790214538574,0.002808317542076111,-0.013438113033771515,0.008897364139556885,0.0027365777641534805,-0.07801330089569092,0.0013674889924004674,-0.018367740813707203,0.14364451291551006,0.019873607080555692
0.9622259140014648,0.0010827183723449707,-0.016074778512120247,0.01469576358795166,0.0040630982257425785,-0.06919530779123306,0.007110596168786287,-0.018410417844724206,0.14289043666385368,0.01991584941512092
0.9728999137878418,0.0018351227045059204,-0.015501527115702629,0.018357515335083008,0.008359309285879135,-0.061916086822748184,0.009850189089775085,-0.018371221499663533,0.14225343131768348,0.019998416721937282
0.9821310043334961,0.0023643821477890015,-0.014624224975705147,0.022189199924468994,0.008904541842639446,-0.053954966366291046,0.011870996095240116,-0.01824157792669179,0.14171836907594626,0.020093339059023135
0.9921200275421143,0.0010828077793121338,-0.016266565769910812,0.023746490478515625,0.007880556397140026,-0.039688143879175186,0.013523487374186516,-0.0180680920925223,0.1413015344358242,0.020212709956503726
1.0022339820861816,-0.0005999952554702759,-0.016781680285930634,0.02734386920928955,0.0069183893501758575,-0.02573513425886631,0.013093919493258,-0.0178660128074481,0.1410279403756345,0.020331101665110297
1.0122649669647217,-0.0026473253965377808,-0.016342436894774437,0.027396440505981445,0.006132224574685097,-0.013693118467926979,0.01192425936460495,-0.01770140185651188,0.1408914726879782,0.020450939176381796
1.0222480297088623,-0.0024318546056747437,-0.012798216193914413,0.02221667766571045,0.004282043315470219,-0.004118833225220442,0.008857682347297668,-0.017498822338352912,0.14085826300443685,0.020550267352727677
1.0322580337524414,-0.002828270196914673,-0.013894660398364067,0.022379398345947266,-0.00025811372324824333,0.006473624147474766,0.007505862507969141,-0.01729824084128402,0.1409191175874156,0.02062469070818859
1.0422229766845703,-0.005452781915664673,-0.011571845039725304,0.024362027645111084,-0.0024339831434190273,0.0144533421844244,0.0035451562143862247,-0.017111630376823336,0.14105739607098394,0.020682772499536987
1.0523419380187988,-0.007894262671470642,-0.009190486744046211,0.023939549922943115,-0.002391106216236949,0.01891307160258293,0.002063639461994171,-0.016973289844268786,0.1412575005451412,0.02071373114870701
1.06219482421875,-0.012772008776664734,-0.009285753592848778,0.022047877311706543,0.002524307230487466,0.020129648968577385,-0.0018673461163416505,-0.016870176936284762,0.14148336840555165,0.020717668271305553
1.0724101066589355,-0.013500884175300598,-0.003348724916577339,0.016144216060638428,0.011387839913368225,0.022405585274100304,-0.0037669790908694267,-0.016685687106465095,0.14171057557113287,0.02068521898745519
1.0822820663452148,-0.015601962804794312,-0.00015315040946006775,0.012255668640136719,0.01567436382174492,0.02299485355615616,-0.004815785214304924,-0.016450286709788042,0.14193657604263374,0.020614385657407888
1.0922729969024658,-0.01967500150203705,0.0023172609508037567,0.010242700576782227,0.008509662002325058,0.02355704829096794,-0.006055752746760845,-0.0162534090897018,0.1421662831617373,0.02054815024338318
1.1023321151733398,-0.020212233066558838,0.0008409526199102402,0.007619202136993408,-0.0011312643764540553,0.019911935552954674,-0.010761665180325508,-0.016158049748521596,0.1423851010328502,0.020460106861864343
1.11234712600708,-0.018717870116233826,-0.0035395920276641846,0.004600346088409424,-0.00369801907800138,0.021125536412000656,-0.012870888225734234,-0.01612879925022796,0.14258646136726597,0.020346609166135076
1.1223649978637695,-0.018843933939933777,-0.0035072267055511475,0.0032501220703125,-0.007462097331881523,0.01235157623887062,-0.01490213442593813,-0.016142214190298536,0.14274470817340798,0.02021392272653871
1.132317066192627,-0.017636597156524658,-0.0018644332885742188,0.0004201531410217285,-0.010531124658882618,0.0019772318191826344,-0.014613181352615356,-0.016193150926177766,0.1427891527211257,0.020078345835759622
1.142305850982666,-0.014724045991897583,-0.0008184239268302917,-0.0006253719329833984,-0.012987041845917702,-0.006077632308006287,-0.015498735941946507,-0.016261043121095345,0.14272955242861984,0.019949417080703188
1.1523661613464355,-0.014653906226158142,-0.0017395112663507462,0.0006293058395385742,-0.018362365663051605,-0.013558718375861645,-0.01609395258128643,-0.01640394989914862,0.14258193296253494,0.019819984310558994
1.162567138671875,-0.015165984630584717,-0.0012275706976652145,0.001266181468963623,-0.015601333230733871,-0.015624087303876877,-0.013840492814779282,-0.016578676979597518,0.14237511935524516,0.019683045642916484
1.1724648475646973,-0.01443411409854889,-0.003997642546892166,0.0002624392509460449,-0.01089606061577797,-0.021271320059895515,-0.016437074169516563,-0.01677004187715613,0.14211404611278816,0.019555037957556278
1.1825339794158936,-0.011179059743881226,-0.0010372400283813477,0.0019986629486083984,-0.014329574070870876,-0.018650859594345093,-0.014721625484526157,-0.01687666844274304,0.1418010032463244,0.019434334644954872
1.1923651695251465,-0.013482674956321716,-0.0021564140915870667,0.005117177963256836,-0.021711058914661407,-0.015039878897368908,-0.013859027065336704,-0.017049827677209157,0.14152349012688437,0.01931404981704834
1.2024099826812744,-0.011581405997276306,-0.006504364311695099,0.005270242691040039,-0.019348766654729843,-0.012595984153449535,-0.014394535683095455,-0.01721689271452412,0.14128340400761175,0.019210384715654356
1.2124218940734863,-0.012747138738632202,-0.006017221137881279,0.007074952125549316,-0.025128625333309174,-0.01994497701525688,-0.017505107447504997,-0.017416423545865284,0.14101255995981152,0.019084664696814344
1.2226500511169434,-0.008408546447753906,-0.0017956681549549103,0.00819462537765503,-0.03898373991250992,-0.02060459926724434,-0.022292353212833405,-0.01772678093379688,0.14071531961123865,0.018937786498865326
1.2324471473693848,-0.005149349570274353,-0.005944093689322472,0.00904536247253418,-0.06342356652021408,-0.014983465895056725,-0.02250939980149269,-0.018228437266847784,0.14046082277783084,0.01877210027050597
1.2426669597625732,-0.005996629595756531,-0.006594335660338402,0.013665556907653809,-0.07398124784231186,-0.025903090834617615,-0.017089495435357094,-0.01889405387443903,0.14017785010033001,0.018685436046467906
1.2536768913269043,-0.0028963088989257812,-0.007786296308040619,0.01796501874923706,-0.08026125282049179,-0.01545710675418377,-0.03245992958545685,-0.019628383296253445,0.13988418605987823,0.01854055959749935
1.2660369873046875,-0.0035842210054397583,-0.017501987516880035,0.022829651832580566,-0.09730394929647446,-0.016025159507989883,-0.017614509910345078,-0.02049415449426725,0.13967213681722213,0.01840899250692123
1.275540828704834,-0.006859377026557922,-0.00927959568798542,0.025117039680480957,-0.10402630269527435,-0.01846887543797493,-0.006681435741484165,-0.02139671593691294,0.1394380763023762,0.01844238929835865
1.2872920036315918,-0.007767796516418457,-0.011314593255519867,0.031652867794036865,-0.14085456728935242,-0.013655081391334534,-0.02523093856871128,-0.022470665313870132,0.13923382872834655,0.018440451900586893
1.2949810028076172,-0.005322903394699097,-0.027811594307422638,0.02760756015777588,-0.1976185142993927,-0.005535368341952562,-0.030231822282075882,-0.02412131532493379,0.13908158955343605,0.018400095873312358
1.303269863128662,-0.00344674289226532,-0.01935630664229393,0.02294456958770752,-0.21991388499736786,-0.012615070678293705,-0.0323360376060009,-0.02617998457099728,0.1389970490372838,0.018380092718023298
1.3147389888763428,-0.004406630992889404,-0.016396265476942062,0.01750713586807251,-0.20839011669158936,-0.033773086965084076,-0.023757997900247574,-0.02825611258418425,0.1387414839803282,0.018402696177221498
1.322606086730957,-0.0004656463861465454,-0.015027664601802826,0.02030313014984131,-0.19975905120372772,-0.03271377086639404,-0.01855870895087719,-0.03018423615107089,0.1384214269906772,0.018461429586332564
1.332758903503418,0.0004951506853103638,-0.010558098554611206,0.020667552947998047,-0.20374447107315063,-0.04937610402703285,-0.016901956871151924,-0.032063234722236045,0.13801391312960062,0.018565416893192722
1.3426518440246582,-0.004884973168373108,-0.009278420358896255,0.03269851207733154,-0.2351534515619278,-0.05360289663076401,-0.024877270683646202,-0.03409582354361724,0.13747748954770778,0.018673582360762473
1.3528461456298828,-0.006685018539428711,-0.022303611040115356,0.04007953405380249,-0.28367388248443604,-0.045103415846824646,-0.037225283682346344,-0.036594008144279,0.1369805414892648,0.018728141636043895
1.364792823791504,-0.007876023650169373,-0.032516758888959885,0.036550819873809814,-0.3294428884983063,-0.07251600176095963,-0.051790378987789154,-0.039561388073194155,0.1364112061781795,0.018702145580785427
1.3726558685302734,-0.0038031190633773804,-0.025047391653060913,0.03870910406112671,-0.3966405689716339,-0.10403717309236526,-0.09384036064147949,-0.043081354279982026,0.1355228968356953,0.018478537048020077
1.382659912109375,0.006302863359451294,-0.0178133025765419,0.03902566432952881,-0.4672102630138397,-0.15194571018218994,-0.1230078786611557,-0.04737204117149006,0.13423431325251148,0.017974686862538877
1.3926820755004883,0.011347293853759766,-0.017341628670692444,0.03433018922805786,-0.5609229207038879,-0.20497749745845795,-0.17245613038539886,-0.05249147304187863,0.13240973363675018,0.01720854884389292
1.4027180671691895,0.015013068914413452,-0.016897831112146378,0.0334850549697876,-0.7121326327323914,-0.24504351615905762,-0.22999989986419678,-0.05890883747751864,0.13009474711241573,0.016035326149571958
1.4141669273376465,0.012545362114906311,-0.0349435955286026,0.035211145877838135,-0.8840668797492981,-0.2852575182914734,-0.27164191007614136,-0.06715960520287505,0.1273674605919479,0.014571973730224886
1.4227619171142578,0.013232260942459106,-0.05002424120903015,0.03667324781417847,-1.0752414464950562,-0.3234824240207672,-0.32223230600357056,-0.07723112281551597,0.12419010389703365,0.012862231717794239
1.4330520629882812,0.013773754239082336,-0.0593266636133194,0.040416717529296875,-1.307397484779358,-0.3629121482372284,-0.3860677480697632,-0.08950595116123378,0.12057527260296659,0.010821086490654552
1.4427008628845215,0.009372219443321228,-0.06865069270133972,0.04238408803939819,-1.5325889587402344,-0.33462798595428467,-0.42676812410354614,-0.10414772097832506,0.11681484641050392,0.008421438639121615
1.4527969360351562,-0.0003379210829734802,-0.09241405874490738,0.029481828212738037,-1.672169804573059,-0.3243069052696228,-0.4655240476131439,-0.120614634398693,0.11324791002273553,0.005829728565137353
1.464350938796997,-0.0059594810009002686,-0.08849011361598969,0.020701587200164795,-1.8175820112228394,-0.35182055830955505,-0.5129455327987671,-0.13850837981077638,0.10948913223833642,0.0028608723141326335
1.4731309413909912,-0.01360456645488739,-0.08145537972450256,0.04398089647293091,-2.0839643478393555,-0.3939930498600006,-0.5957959294319153,-0.15844194718208351,0.10520184077509956,-0.0005803460309434227
1.4827549457550049,-0.010828770697116852,-0.11603428423404694,0.07429027557373047,-2.5036673545837402,-0.4162690043449402,-0.6890506148338318,-0.18183881202866373,0.10043458778419444,-0.00470568372813058
1.4928250312805176,-0.013693071901798248,-0.17499323189258575,0.1031227707862854,-2.973360538482666,-0.4449552595615387,-0.7786558866500854,-0.2098241717031433,0.0952222840883309,-0.009411205676422556
1.5027940273284912,-0.019300192594528198,-0.2122899740934372,0.12829101085662842,-3.5013980865478516,-0.4894741475582123,-0.8893723487854004,-0.24282166009256376,0.08934319719625525,-0.014880931577212417
1.5138180255889893,-0.0223785862326622,-0.22034233808517456,0.14156436920166016,-3.950317144393921,-0.49843651056289673,-0.9601448178291321,-0.28087513147209053,0.08271759286698906,-0.02115996107028984
1.5227270126342773,-0.02163565903902054,-0.20030829310417175,0.13554060459136963,-4.287499904632568,-0.4738246202468872,-0.9941693544387817,-0.32278174069288457,0.07585404818867546,-0.027930232934560314
1.5327579975128174,-0.025337152183055878,-0.178966224193573,0.10216784477233887,-4.577305793762207,-0.49160709977149963,-1.0447463989257812,-0.36783895384132426,0.06849774758382406,-0.035353298115440725
1.5429069995880127,-0.030703935772180557,-0.1286144256591797,0.08515530824661255,-4.916119575500488,-0.5568180084228516,-1.0759912729263306,-0.41590758050709614,0.060124265819943845,-0.043567163759421254
1.5527169704437256,-0.015492554754018784,-0.12515902519226074,0.08576411008834839,-5.250629901885986,-0.6068651676177979,-1.073713779449463,-0.46731603265599975,0.050514828549156746,-0.05231067753904575
1.5640480518341064,0.013031229376792908,-0.14326432347297668,0.0749620795249939,-5.511576175689697,-0.5886425375938416,-1.063926339149475,-0.5217844372080159,0.0400174911093804,-0.06173198874801468
1.572709083557129,0.022401830181479454,-0.1070021390914917,0.03452885150909424,-5.589992523193359,-0.6176848411560059,-1.0224255323410034,-0.5777615004023041,0.028818558646705295,-0.0717016407244938
1.582758903503418,0.007461272180080414,-0.051549434661865234,0.020393073558807373,-5.61618709564209,-0.7164457440376282,-1.0293675661087036,-0.6339932528637372,0.016061709187775258,-0.0825921012153889
1.5925970077514648,0.004564664792269468,-0.014783501625061035,0.036499083042144775,-5.789588451385498,-0.8639699816703796,-1.045540690422058,-0.6911827299622982,0.0003140850851763461,-0.0952458357926365
1.602613925933838,0.025952961295843124,-0.008402109146118164,0.05362313985824585,-5.968276023864746,-0.9534063935279846,-0.9914004802703857,-0.7500368336394787,-0.018350129754802765,-0.10955888903459336
1.61378812789917,0.041393496096134186,-0.019425630569458008,0.05538523197174072,-5.9344401359558105,-0.9787655472755432,-0.890130341053009,-0.8094291349060383,-0.03897461215152455,-0.125217397075025
1.6226038932800293,0.025460414588451385,0.03309905529022217,0.010497212409973145,-5.729506015777588,-1.0310851335525513,-0.7881291508674622,-0.8673010476832408,-0.061617064234868846,-0.14209325546989077
1.6326260566711426,0.014875594526529312,0.08391743898391724,-0.012279033660888672,-5.522218227386475,-1.0702097415924072,-0.6698275208473206,-0.9230497741216301,-0.08641370082529953,-0.1603978492884974
1.6426358222961426,0.011411957442760468,0.07564997673034668,-0.0324254035949707,-5.345556259155273,-1.0111967325210571,-0.5678508281707764,-0.9765498772501172,-0.11314922614532474,-0.18029570686721383
1.6527280807495117,0.01931917667388916,0.03332722187042236,-0.11212664842605591,-5.232407569885254,-0.8226258158683777,-0.4661318361759186,-1.028428796813608,-0.14100650408964288,-0.20242914902899634
1.6651320457458496,0.014629863202571869,0.019514799118041992,-0.1888166069984436,-5.147289752960205,-0.7448791265487671,-0.29993078112602234,-1.079161979463618,-0.16956421635533445,-0.22635810845408796
1.6733620166778564,0.010151438415050507,0.039977431297302246,-0.18628758192062378,-5.058199882507324,-0.646620512008667,-0.1321156769990921,-1.128874264368396,-0.19930525034541424,-0.2518475930038466
1.6832079887390137,0.028302043676376343,0.03240764141082764,-0.17155778408050537,-4.685131549835205,-0.45468348264694214,0.014419961720705032,-1.1766152469574576,-0.22941937120872016,-0.27874266470833015
1.6931469440460205,0.016672872006893158,-0.013271689414978027,-0.17702153325080872,-4.142975330352783,-0.3219102621078491,-0.009350082837045193,-1.2196436577351035,-0.26047130881838904,-0.3079501696041945
1.7031779289245605,-0.0452716127038002,-0.0404849648475647,-0.1272965967655182,-3.5516371726989746,-0.2855859100818634,-0.1055828258395195,-1.2563796548920714,-0.29564036807149824,-0.3419915516727742
1.7152149677276611,-0.08774225413799286,-0.0010883212089538574,-0.033734798431396484,-3.226428508758545,-0.3338272273540497,-0.06829164922237396,-1.2881908615972446,-0.3353687173168222,-0.38040579818418874
1.7231931686401367,-0.04878774285316467,0.08874291181564331,0.03402513265609741,-3.1911888122558594,-0.2784564197063446,-0.007584087550640106,-1.3181277548580421,-0.38110086233049933,-0.42461692253959904
1.7329258918762207,0.009336695075035095,0.04404515027999878,0.03781677782535553,-3.1754584312438965,-0.3244452178478241,-0.0389646477997303,-1.3472613226976673,-0.43672155131994755,-0.47866344992679616
1.7428679466247559,0.018783017992973328,-0.044297754764556885,0.011303842067718506,-3.213595151901245,-0.3135119676589966,-0.041045479476451874,-1.3755731009939955,-0.5108770108395833,-0.5511700116289452
1.7529869079589844,0.015491612255573273,0.002539396286010742,-0.05689692497253418,-3.198134660720825,-0.22990310192108154,-0.018561478704214096,-1.402728137509442,-0.6076704086782803,-0.646809426645686
1.764298915863037,0.022744104266166687,0.04086184501647949,-0.10325945913791656,-3.038435459136963,-0.24159987270832062,-0.06984586268663406,-1.4269444955807091,-0.7359118656844214,-0.7742291721344812
1.7730741500854492,0.012139558792114258,0.06290149688720703,-0.1016399934887886,-2.883056163787842,-0.2702493667602539,-0.07438734918832779,-1.446660314052941,-0.9030166241098981,-0.9402430764920373
1.7830159664154053,0.011433377861976624,0.08605760335922241,-0.08737438917160034,-2.876673698425293,-0.28562435507774353,-0.055666182190179825,-1.4615245474073062,-1.1165745941152057,-1.1524674047037877
1.793199062347412,0.009182929992675781,0.04090052843093872,-0.053444743156433105,-2.929326057434082,-0.25655943155288696,-0.07277859002351761,-1.4701787348044117,-1.384322339485675,-1.4189264054450195
1.8043439388275146,-0.007061570882797241,-0.006739795207977295,-0.024282455444335938,-2.965000867843628,-0.255759060382843,-0.12000331282615662,-1.4703552416209789,-1.680179195118394,-1.713695412818545
1.8142030239105225,-0.018464766442775726,-0.024689853191375732,-0.03252685070037842,-2.8712446689605713,-0.28553637862205505,-0.11737903207540512,-1.4619377981624633,-1.9516591753007089,-1.9839055542395625
1.8232100009918213,-0.008170366287231445,0.017276763916015625,-0.04564225673675537,-2.5778138637542725,-0.25715819001197815,-0.0029161523561924696,-1.4485291055477485,-2.161282707322038,-2.1921971204224455
1.8331890106201172,0.013328365981578827,0.09888941049575806,-0.08477962762117386,-2.175863742828369,-0.27745333313941956,0.016224253922700882,-1.4339356303573794,-2.3085403628647843,-2.3379657093323
1.8431949615478516,0.006222300231456757,0.11435341835021973,-0.08957706391811371,-1.7782537937164307,-0.27076485753059387,0.01682005450129509,-1.420046860942457,-2.4079997968255897,-2.4356890058360103
1.8532390594482422,-0.017149709165096283,0.08773183822631836,-0.0540318638086319,-1.5769981145858765,-0.251849502325058,0.03338704630732536,-1.4074289881901247,-2.479699218823696,-2.5056512901718944
1.864698886871338,-0.0278191938996315,0.05640542507171631,-0.018381252884864807,-1.4702428579330444,-0.24542708694934845,0.006996878422796726,-1.395303770168097,-2.5357432794509815,-2.559987149306694
1.8732471466064453,-0.031070612370967865,0.007923901081085205,0.03438638150691986,-1.4641804695129395,-0.25142693519592285,-0.010620730929076672,-1.3830776759512742,-2.5819557315512496,-2.604454281426746
1.8833069801330566,-0.029874533414840698,-0.012117981910705566,0.06395745277404785,-1.418677806854248,-0.22037535905838013,-0.027735481038689613,-1.3706062345786323,-2.621266684483334,-2.6420750050227078
1.8934459686279297,-0.02875266969203949,-0.012795746326446533,0.042077645659446716,-1.334787130355835,-0.19026219844818115,-0.0538158193230629,-1.3582744174719177,-2.6535518422079067,-2.672965415182089
1.903331995010376,-0.03190528601408005,-0.012809276580810547,0.00938311219215393,-1.158690333366394,-0.18797516822814941,-0.05376191437244415,-1.3468501014021745,-2.679081291993941,-2.697211913537058
1.914337158203125,-0.022898800671100616,0.02863335609436035,0.0008322298526763916,-0.8541640043258667,-0.19701819121837616,-0.029391327872872353,-1.3375589040145972,-2.6984917702918043,-2.715158940597832
1.9235649108886719,-0.010844118893146515,0.07205647230148315,-0.0036351680755615234,-0.545993447303772,-0.19483570754528046,-0.006779439747333527,-1.3311885250781716,-2.711899027844676,-2.7269386407479193
1.9335460662841797,-0.018422409892082214,0.08173388242721558,0.005203962326049805,-0.40951070189476013,-0.21956181526184082,-0.004090446513146162,-1.3269040911470262,-2.7216929222794612,-2.734878677759593
1.943485975265503,-0.026850387454032898,0.056326448917388916,0.02479386329650879,-0.47804611921310425,-0.2203347086906433,-0.02909177727997303,-1.3228986908625453,-2.7302669463005858,-2.741414567276415
1.9547090530395508,-0.022844336926937103,-0.016111016273498535,0.03168460726737976,-0.6358069777488708,-0.20654219388961792,-0.04291677847504616,-1.31762144527224,-2.7397126915278944,-2.748958371212389
1.9643988609313965,-0.026199884712696075,-0.0608900785446167,0.030321359634399414,-0.7090827226638794,-0.194763645529747,-0.04957670345902443,-1.3111622289092877,-2.7500927662000336,-2.7576170978369636
1.9734809398651123,-0.020862556993961334,-0.053360164165496826,0.0032029002904891968,-0.7196224331855774,-0.18009255826473236,-0.05018656700849533,-1.3043268910195995,-2.760305963137163,-2.7662454674069887
1.9835259914398193,-0.020814605057239532,-0.015536487102508545,-0.021049469709396362,-0.7106119990348816,-0.15837426483631134,-0.04170248284935951,-1.2975273063926698,-2.7699536338662414,-2.7744993122596564
1.993299961090088,-0.018902838230133057,0.0018382072448730469,-0.03863656520843506,-0.6787736415863037,-0.15137015283107758,-0.006511473096907139,-1.2908959150234594,-2.7795113563020197,-2.782824652918981
2.0037779808044434,-0.0015622824430465698,0.02257484197616577,-0.05044606328010559,-0.5899071097373962,-0.1282251477241516,0.010376430116593838,-1.2849914352036431,-2.788708497797396,-2.7909253100298117
2.015592098236084,-0.004123300313949585,0.04949843883514404,-0.028226017951965332,-0.5375682711601257,-0.09195317327976227,0.005284466780722141,-1.2797097775797899,-2.796545810089985,-2.7979432731868963
2.023529052734375,-0.025326654314994812,0.03267848491668701,0.010252326726913452,-0.46857932209968567,-0.08326136320829391,0.001686109695583582,-1.2749782319011222,-2.803100047272051,-2.8039129028965286
2.0334830284118652,-0.02432413399219513,0.033844172954559326,0.032954663038253784,-0.39928945899009705,-0.09007479250431061,-0.01530539058148861,-1.270850949467899,-2.8084695748960136,-2.8086027650506376
2.0435500144958496,-0.016380496323108673,0.03366285562515259,0.037459492683410645,-0.38037776947021484,-0.06267450749874115,-0.03110203705728054,-1.2671488514708011,-2.8125255624227945,-2.8120459634389574
2.0535600185394287,-0.024760283529758453,0.01286238431930542,0.03774142265319824,-0.3743654191493988,-0.04539432004094124,-0.0254521407186985,-1.2634039921170783,-2.816137112051658,-2.8152528516082502
2.0651910305023193,-0.03033052384853363,0.013371646404266357,0.02750226855278015,-0.28794997930526733,-0.024309322237968445,-0.04253450781106949,-1.2601735441478077,-2.8187981282989263,-2.81767962004954
2.073917865753174,-0.025941967964172363,0.0012114644050598145,0.004779398441314697,-0.16542725265026093,0.007056856527924538,-0.029134279116988182,-1.2578816346450354,-2.8199863490409522,-2.8188403188427875
2.0837249755859375,-0.02917824685573578,0.016449034214019775,-0.006497412919998169,-0.0852031260728836,0.022289426997303963,0.009733862243592739,-1.2566644754804122,-2.8207715403030114,-2.819822373890766
2.093703031539917,-0.02312612533569336,0.05452781915664673,-0.024077773094177246,-0.053450264036655426,0.036630015820264816,0.004112728871405125,-1.2560957133070836,-2.8213195208786543,-2.820722130234222
2.104628086090088,-0.017533592879772186,0.031420886516571045,-0.015176624059677124,-0.0618402324616909,0.04018280655145645,0.0009403179865330458,-1.2555708308981277,-2.8215679604826778,-2.8214091808846122
2.115406036376953,-0.019724838435649872,-0.0010761022567749023,0.008499056100845337,-0.07034503668546677,0.038526855409145355,-0.011553369462490082,-1.2549180136161655,-2.8216919828474127,-2.821945332347002
2.123708963394165,-0.01389920711517334,-0.002490997314453125,0.008991748094558716,-0.09567882865667343,0.03563821315765381,-0.019144710153341293,-1.254070524804168,-2.821630550294761,-2.8222780650601598
2.1337838172912598,-0.01058252900838852,-0.002309441566467285,0.003352731466293335,-0.08486320078372955,0.017614737153053284,-0.010949897579848766,-1.2531454079795405,-2.821771941421527,-2.8227080932056867
2.143798828125,-0.007403410971164703,0.011741578578948975,0.005242645740509033,-0.08017808198928833,0.0033693555742502213,-0.00769311748445034,-1.2523230824008178,-2.822169365115242,-2.823221816148293
2.1539080142974854,-0.0038258731365203857,0.015380799770355225,-0.004156976938247681,-0.02420242875814438,-0.0025945273227989674,0.013730947859585285,-1.251812219870887,-2.822760287268539,-2.8238660976472167
2.1647989749908447,-0.0030177608132362366,0.019312143325805664,-0.01572069525718689,0.058657750487327576,-0.026337450370192528,0.022681087255477905,-1.2521707234285964,-2.8229168760206065,-2.8239391900643054
2.1735949516296387,-0.005466781556606293,0.027137935161590576,-0.013650655746459961,0.07884345203638077,-0.03370029479265213,0.026846537366509438,-1.253250277517371,-2.8227852845969807,-2.8235005962670607
2.183722972869873,-0.007412746548652649,0.006043136119842529,-0.0032995641231536865,0.020924802869558334,-0.03399479389190674,0.01464782189577818,-1.2540563906156375,-2.822826899370833,-2.8232312112541496
2.1936378479003906,-0.012719102203845978,-0.031116247177124023,0.003109455108642578,-0.024036813527345657,-0.031037088483572006,0.001836418523453176,-1.2539224626331897,-2.8233097789437482,-2.823406935072287
2.2037570476531982,-0.01194722205400467,-0.04198342561721802,0.005830168724060059,-0.053626298904418945,-0.02641792595386505,-0.010871547274291515,-1.2533449146517766,-2.8237045361367277,-2.823526157549918
2.2149291038513184,-0.007499143481254578,-0.03048461675643921,-0.0038860440254211426,-0.05974624305963516,-0.03193040192127228,-0.0025310590863227844,-1.252730860804313,-2.8242409756803712,-2.82380352235788
2.2237730026245117,-0.004893667995929718,-0.005584537982940674,0.0024917423725128174,-0.09254453331232071,-0.04659021645784378,-0.01207918394356966,-1.2519578996235992,-2.825073779620117,-2.824270628588801
2.23376202583313,-0.0016808584332466125,-0.009199857711791992,0.011471271514892578,-0.12000732123851776,-0.048109281808137894,-0.02516276203095913,-1.2510307961872593,-2.8258089942384683,-2.8245606744062504
2.243781089782715,-0.00382184237241745,-0.024731218814849854,0.015049397945404053,-0.16479146480560303,-0.04431889206171036,-0.03150976449251175,-1.249813597504104,-2.826512690565469,-2.824833943844843
2.2538280487060547,-0.007812313735485077,-0.01920837163925171,0.013836950063705444,-0.2178056836128235,-0.039064474403858185,-0.05055136978626251,-1.248271123556933,-2.8270302201144166,-2.825000891772802
2.2643518447875977,-0.008893311023712158,-0.02860283851623535,0.014917612075805664,-0.21894431114196777,-0.04134875908493996,-0.06256499141454697,-1.246144299509424,-2.8275704453782313,-2.8251903448174813
2.2737109661102295,-0.00513102114200592,-0.03176754713058472,0.016774475574493408,-0.15518158674240112,-0.03860010951757431,-0.06955473124980927,-1.2440173081012196,-2.827681417390369,-2.8248807171970682
2.283884048461914,-0.003245517611503601,-0.015153110027313232,0.004983991384506226,-0.07638411968946457,-0.03760644048452377,-0.07298141717910767,-1.242507209425103,-2.8270031058871847,-2.823779546220848
2.293804168701172,-0.006083548069000244,0.0023233890533447266,0.004088550806045532,-0.02447325550019741,-0.03835239261388779,-0.06368272751569748,-1.241924333458366,-2.825671023876376,-2.8219974839599864
2.304229974746704,-0.0035039857029914856,0.011626780033111572,0.012056469917297363,-0.028294675052165985,-0.04394747316837311,-0.056703802198171616,-1.2416072461464855,-2.824481246781503,-2.8203282500658755
2.31606388092041,0.002984769642353058,-0.00047719478607177734,0.01383092999458313,-0.0414445661008358,-0.04817177727818489,-0.053151413798332214,-1.2409589042424933,-2.823801520962543,-2.819101416641759
2.3256330490112305,0.0023698359727859497,-0.0010737180709838867,0.019388258457183838,0.04347643628716469,-0.04541163146495819,-0.03433852642774582,-1.2405871160917152,-2.823331459061844,-2.8180954773445377
2.338179111480713,-0.00028651952743530273,0.017812371253967285,0.013377994298934937,0.11732909083366394,-0.030509648844599724,-0.03156750649213791,-1.2410232757640216,-2.8220715462072934,-2.8163351689514586
2.350883960723877,-0.00671657919883728,0.026874423027038574,0.00023171305656433105,0.1908080130815506,-0.025216838344931602,0.00537410844117403,-1.2421136865056563,-2.820684775301428,-2.814565305627871
2.3584330081939697,-0.0029403790831565857,0.034912705421447754,-0.004872769117355347,0.24392209947109222,-0.033470507711172104,0.03103952296078205,-1.2438777069364026,-2.8198341645751155,-2.8133118486353106
2.368565082550049,0.0015545710921287537,0.034748077392578125,-0.0031538009643554688,0.24140417575836182,-0.010324263945221901,0.02599586918950081,-1.2461555726348013,-2.8187086846844656,-2.811871406035504
2.3739349842071533,-0.006469808518886566,-0.0040244460105896,0.011228293180465698,0.20478065311908722,0.004250417463481426,0.02455803006887436,-1.2482185180065624,-2.8173487918972313,-2.8104103603967516
2.3840219974517822,-0.011272229254245758,-0.023428380489349365,0.020939111709594727,0.15586109459400177,0.011147250421345234,0.02557019144296646,-1.249794304987196,-2.8165077598082355,-2.809586121218335
2.3938469886779785,-0.00647551566362381,-0.01698899269104004,0.018677979707717896,0.1149328425526619,0.026469748467206955,0.007831407710909843,-1.2508112192550447,-2.815916435126373,-2.809104617588023
2.4043798446655273,-0.007949404418468475,-0.025539159774780273,0.02419126033782959,0.09432773292064667,0.0358612947165966,-0.00027605408104136586,-1.2513617561927963,-2.8151793950355994,-2.8086167084240823
2.41428804397583,-0.012419886887073517,-0.020180463790893555,0.028644561767578125,0.10276355594396591,0.03006812185049057,0.0017740472685545683,-1.2520335352441834,-2.81423192517756,-2.807931675154327
2.424185037612915,-0.008212469518184662,0.0039046406745910645,0.023825258016586304,0.14574658870697021,0.02574283815920353,0.004017227794975042,-1.2531822061529896,-2.8128006021073646,-2.8067129711619216
2.434053897857666,-0.0067602843046188354,0.01194983720779419,0.014801889657974243,0.16743271052837372,0.02544962428510189,0.013733237981796265,-1.2547869528475522,-2.8111176325248413,-2.8052319163847406
2.444226026535034,-0.012713499367237091,0.01512598991394043,0.0063822269439697266,0.16661204397678375,0.022558271884918213,0.022524598985910416,-1.2565021403797898,-2.809733045263821,-2.8040198873851696
2.453986167907715,-0.01200500875711441,0.00977998971939087,-0.0028885602951049805,0.1481078565120697,0.028042521327733994,0.018541043624281883,-1.2577560208351277,-2.8087423575981325,-2.803213169783355
2.4648938179016113,-0.01326039433479309,-0.009051680564880371,-0.0028912127017974854,0.12725010514259338,0.03596564754843712,0.008593284524977207,-1.258556946074168,-2.8077407692679723,-2.8024666567175744
2.4739949703216553,-0.022194430232048035,-0.018371880054473877,0.0023909807205200195,0.13822738826274872,0.039253853261470795,-4.9472437240183353e-05,-1.2593434508634436,-2.806551050126973,-2.8016020242880333
2.484127998352051,-0.02079080045223236,-0.011981427669525146,0.0006084442138671875,0.15607479214668274,0.022814471274614334,-0.003444310277700424,-1.2601508600541085,-2.8050945596246795,-2.800345608677752
2.4939699172973633,-0.01584514230489731,-0.000793159008026123,0.0066346824169158936,0.16053079068660736,0.010546086356043816,-0.002424319740384817,-1.261038775327568,-2.803639983619822,-2.798939954805457
2.504138946533203,-0.0097556933760643,0.01050955057144165,0.002715080976486206,0.1382487714290619,0.0009512053802609444,-0.01618892140686512,-1.2620044416671288,-2.8020925393927865,-2.7973443256436124
2.5144710540771484,-0.011096574366092682,0.003099501132965088,-9.417533874511719e-06,0.10314591228961945,0.009400350041687489,-0.03281903266906738,-1.2627902210638704,-2.8002525989178486,-2.7954381284991565
2.524169921875,-0.016001805663108826,-0.016269564628601074,0.0026836097240448,0.10724442452192307,0.009964361786842346,-0.03097979724407196,-1.263514201768528,-2.7980206625381356,-2.79321280795463
2.534176826477051,-0.015097737312316895,-0.006175994873046875,0.0018368661403656006,0.15686631202697754,0.0049288575537502766,-0.02904421277344227,-1.2646010295309915,-2.795539826746852,-2.7906975869805604
2.544041156768799,-0.01340482383966446,0.00941169261932373,-0.000720977783203125,0.21285998821258545,-0.0045067667961120605,-0.034186989068984985,-1.2661463325405216,-2.7924722119115044,-2.7874965938165692
2.554044008255005,-0.01193123310804367,0.006402432918548584,-0.0011937618255615234,0.2135433405637741,-0.005662578158080578,-0.04016551747918129,-1.2678404442459805,-2.7888331274400615,-2.7836302259959176
2.564913034439087,-0.012324720621109009,0.0032843351364135742,-0.0032147467136383057,0.15798701345920563,0.02394884265959263,-0.04843388870358467,-1.2692418374364764,-2.785244297531901,-2.7799886691162725
2.574079990386963,-0.015666626393795013,-0.01379859447479248,0.00040909647941589355,0.14789949357509613,0.027661822736263275,-0.056166112422943115,-1.2701965871010152,-2.781787430445108,-2.7766411114096474
2.584311008453369,-0.01459948718547821,-0.016586601734161377,0.006323963403701782,0.20691709220409393,0.02110205590724945,-0.04613015055656433,-1.2715250238802969,-2.77801263437314,-2.772941286264256
2.5942349433898926,-0.007992744445800781,0.006174981594085693,0.004521399736404419,0.2992036044597626,0.010440890677273273,-0.03581732511520386,-1.2736177272201379,-2.773738472837733,-2.7686400431653158
2.60518217086792,-0.0034672394394874573,0.030330300331115723,0.00247955322265625,0.3765460252761841,0.010479196906089783,-0.02642371505498886,-1.2763369346142455,-2.768781671603517,-2.763525759553526
2.6145119667053223,0.0007039383053779602,0.03582894802093506,-0.0020993947982788086,0.5122087597846985,0.011653650552034378,-0.022476110607385635,-1.2802336572394333,-2.762516019712998,-2.757112724096553
2.624107837677002,0.0020583122968673706,0.033048033714294434,-0.0030895471572875977,0.5277038216590881,0.035533107817173004,0.004821715410798788,-1.2848633491847359,-2.755435807016248,-2.7499450235481526
2.634165048599243,-0.011670693755149841,0.03238487243652344,0.016822844743728638,0.5079615712165833,0.06481216847896576,0.008916592225432396,-1.2894689917112037,-2.7486989423737245,-2.7434479391603683
2.6441211700439453,-0.017428815364837646,0.0002669095993041992,0.019307255744934082,0.597141444683075,0.08903881162405014,0.00312501541338861,-1.2942279745324352,-2.7409173117791,-2.7361622271877954
2.65427303314209,-0.01427864283323288,-0.015115499496459961,0.008823901414871216,0.7698929309844971,0.0902087390422821,0.03471410274505615,-1.3005636530143423,-2.730941039695513,-2.7267097793452404
2.6645610332489014,-0.01019924134016037,0.03454333543777466,0.001974061131477356,0.8474888801574707,0.0757620632648468,0.0904303565621376,-1.3084225855939866,-2.719959693405541,-2.716221737731055
2.6742379665374756,-0.006669811904430389,0.07086485624313354,0.0035460293292999268,0.9008157253265381,0.055370770394802094,0.08220811188220978,-1.3168285591386668,-2.7086642803709053,-2.705266840926399
2.6843039989471436,0.00038354843854904175,0.012210190296173096,0.018612027168273926,0.6033387184143066,0.07443958520889282,0.05660368502140045,-1.3240334744217055,-2.697613243054485,-2.6944523066350685
2.6943299770355225,-0.015561334788799286,-0.07446455955505371,0.05069290101528168,0.2816035747528076,0.14451906085014343,0.03567017614841461,-1.3282103743367537,-2.6907705484643754,-2.688554002230369
2.7045810222625732,-0.033032819628715515,-0.1140211820602417,0.05856454372406006,0.18634304404258728,0.14831122756004333,-0.02975788526237011,-1.330148189493309,-2.6853784365686524,-2.6845841829971557
2.7156870365142822,-0.02474253624677658,-0.11072832345962524,0.027126401662826538,0.25495484471321106,0.12212090939283371,-0.0007672475767321885,-1.3319599030585094,-2.679396532813604,-2.679807598253604
2.724307060241699,-0.0045705512166023254,-0.010758697986602783,0.0031209737062454224,0.35873231291770935,0.08948315680027008,0.03485780581831932,-1.3348399456095918,-2.673349259761735,-2.6746853582828276
2.734292984008789,0.009347766637802124,0.05024456977844238,-0.014998525381088257,0.41809791326522827,0.07025273889303207,0.0301061924546957,-1.338530318910829,-2.66625638029538,-2.6682128711438566
2.7441978454589844,0.006441228091716766,0.015390992164611816,-0.016935959458351135,0.3784499168395996,0.0827224999666214,0.0349070206284523,-1.3422153201029927,-2.6588108682139984,-2.661351496564656
2.7543258666992188,-0.0010957196354866028,-0.024453163146972656,-0.004489928483963013,0.3750666379928589,0.08067692816257477,0.040227483958005905,-1.3456904777364131,-2.6519221192967035,-2.6551279068756464
2.764457941055298,-0.0056290403008461,-0.031272172927856445,0.009281158447265625,0.4724515974521637,0.07107862830162048,0.04118664935231209,-1.3495441757557456,-2.6439692581497476,-2.6477527622002266
2.774343967437744,-0.0006728097796440125,-0.01967334747314453,0.007792457938194275,0.6573977470397949,0.06705379486083984,0.07456963509321213,-1.3547392756372159,-2.633287744936399,-2.6375149815116106
2.7843940258026123,0.0032501667737960815,0.020042240619659424,0.004590123891830444,0.9171181321144104,0.07599340379238129,0.12991774082183838,-1.3620642898760935,-2.618772891089684,-2.6233894036653815
2.794344902038574,-0.0007971227169036865,0.05503034591674805,0.00698089599609375,1.05699622631073,0.05089284107089043,0.16807524859905243,-1.3714802182452939,-2.599768836691243,-2.60467269950658
2.804586887359619,-0.001301683485507965,0.06147974729537964,0.017258882522583008,1.0302037000656128,0.02576911449432373,0.15238496661186218,-1.381463087148864,-2.5780528613216243,-2.5829036784403896
2.8147130012512207,0.0046962350606918335,0.0006133317947387695,0.030390262603759766,0.6942725777626038,0.08856219053268433,0.12020040303468704,-1.389490758804052,-2.5584814930410302,-2.5635345603285717
2.82436203956604,-0.004345990717411041,-0.10732340812683105,0.04262816905975342,0.42335212230682373,0.14655572175979614,0.07963060587644577,-1.3946182726846337,-2.545021365702049,-2.551078803904767
2.834425926208496,-0.02092093974351883,-0.13359695672988892,0.05179917812347412,0.4090072810649872,0.15315183997154236,0.0564456544816494,-1.3983008287011516,-2.5336622997128804,-2.5411005183064184
2.8445138931274414,-0.012473315000534058,-0.08274334669113159,0.029612883925437927,0.5598654747009277,0.12226715683937073,0.07299800217151642,-1.4025536715431397,-2.519210442114454,-2.527856026384617
2.8550479412078857,0.010067008435726166,0.0015025138854980469,0.0008829832077026367,0.7873175740242004,0.0895792543888092,0.09616857022047043,-1.4084769896425835,-2.4984397747118376,-2.5078545167591977
2.8647561073303223,0.028640002012252808,0.06261217594146729,-0.026966460049152374,1.1367969512939453,0.09130151569843292,0.1505228877067566,-1.4167208405022598,-2.4671064006420473,-2.4770134153947385
2.8745319843292236,0.03180944174528122,0.09757715463638306,-0.05085061490535736,1.8006548881530762,0.11266672611236572,0.2582874298095703,-1.4291005613285594,-2.413671712920285,-2.424024486193307
2.8848161697387695,0.023363113403320312,0.1638096570968628,-0.054464101791381836,2.6919150352478027,0.11211398988962173,0.39116233587265015,-1.4473861031637558,-2.311411437783526,-2.3220136184406592
2.894564151763916,0.0002181529998779297,0.24855870008468628,-0.014176256954669952,3.5881729125976562,0.1104993149638176,0.5733201503753662,-1.4701649421931056,-2.1109920506132105,-2.121469716223894
2.904628038406372,-0.01818176358938217,0.2852545976638794,0.03955209255218506,4.350304126739502,0.12583911418914795,0.6996540427207947,-1.4900647075667222,-1.7185260222799015,-1.7286068547365516
2.91499400138855,-0.02986714243888855,0.23194563388824463,0.07285512238740921,4.907618999481201,0.18231330811977386,0.7557372450828552,-1.4903788374977816,-1.1252744595115722,-1.1350699164679914
2.9248838424682617,-0.05225837230682373,0.16230040788650513,0.10545779019594193,5.257711887359619,0.252631813287735,0.8454508781433105,-1.463550931218043,-0.6453232382924512,-0.655286163872417
2.9347190856933594,-0.06646767258644104,0.1356518268585205,0.14827924966812134,5.478569030761719,0.3279731869697571,0.9096386432647705,-1.4204721205993478,-0.37830366269848253,-0.38905090515102064
2.9447710514068604,-0.0748283714056015,0.08240395784378052,0.1932321935892105,5.487492084503174,0.43198445439338684,0.8738564252853394,-1.370637528081602,-0.23247935525556648,-0.2448912447914977
2.9545769691467285,-0.10155405104160309,0.018383324146270752,0.24314728379249573,5.494001865386963,0.5971422791481018,0.8636120557785034,-1.3181932837338985,-0.14554858694423436,-0.1610039751940055
2.964974880218506,-0.11547806113958359,0.004108607769012451,0.2692636251449585,5.492520809173584,0.6796131730079651,0.9123123288154602,-1.264550138683101,-0.08625072731249349,-0.10599498201266246
2.974647045135498,-0.10179046541452408,0.036975979804992676,0.2732154428958893,5.409027099609375,0.717659056186676,0.9623973369598389,-1.2106148634013834,-0.041966588897444757,-0.06657794573203135
2.9847300052642822,-0.08004273474216461,0.03395688533782959,0.2743355929851532,5.256017208099365,0.742372989654541,0.9254137277603149,-1.1574091998167808,-0.008026572277822466,-0.037796047750466126
2.9946179389953613,-0.07068303227424622,-0.015658259391784668,0.26351720094680786,5.040816307067871,0.7891911268234253,0.8181645274162292,-1.1058198836710076,0.017706073538430154,-0.017839908774345648
3.0056610107421875,-0.08033782988786697,-0.06387472152709961,0.23184436559677124,4.778293609619141,0.834101676940918,0.7231404781341553,-1.0564036280259583,0.03775317796160631,-0.004342588380470752
3.015066146850586,-0.07903910428285599,-0.04942959547042847,0.1995757818222046,4.45059061050415,0.8656498193740845,0.6490566730499268,-1.0099555133922116,0.054157161335397434,0.004845227246261408
3.0247819423675537,-0.06905695796012878,-0.029696285724639893,0.19112145900726318,4.130507946014404,0.8472551703453064,0.6335160136222839,-0.9666467607743419,0.0684613438189227,0.011672610284776747
3.0359110832214355,-0.04843663424253464,-0.052299678325653076,0.1745384931564331,3.727341890335083,0.8117397427558899,0.5603720545768738,-0.9269320153592002,0.08103171198580965,0.01694056304377212
3.04465913772583,-0.02041330188512802,-0.0749582052230835,0.1507543921470642,3.273298740386963,0.8030198216438293,0.4535638391971588,-0.8915358193460529,0.09171789358987811,0.020226695859280552
3.054774045944214,-0.018660597503185272,-0.10099750757217407,0.14221090078353882,2.8121938705444336,0.7818399667739868,0.38255009055137634,-0.8608658227983021,0.10111891428601037,0.02211866751578409
3.0663671493530273,-0.03122860938310623,-0.10681134462356567,0.13446581363677979,2.4520182609558105,0.752039909362793,0.3356662094593048,-0.8343496064728173,0.10968912286086774,0.023329949759588606
3.0747780799865723,-0.0206005796790123,-0.10276579856872559,0.1170121431350708,2.255704879760742,0.7483841776847839,0.3105962872505188,-0.8106635982509736,0.11780156587871217,0.024135264697096415
3.085602045059204,-0.011861555278301239,-0.07019495964050293,0.07539784908294678,2.160388469696045,0.7230044603347778,0.2746776342391968,-0.7884313986157957,0.12542264557066402,0.02447474268190964
3.094715118408203,-0.017469555139541626,-0.02331531047821045,0.03031611442565918,2.1187541484832764,0.6934665441513062,0.23185373842716217,-0.7668819302834925,0.1322726283941372,0.024151884269881362
3.1059629917144775,-0.011489853262901306,-0.014546751976013184,0.01176464557647705,2.134965181350708,0.674291729927063,0.20462462306022644,-0.7455144386519742,0.13846385021473617,0.02317190447580414
3.1151490211486816,-0.009302526712417603,-0.007812440395355225,0.002494990825653076,2.144551992416382,0.6145684719085693,0.18213395774364471,-0.7239965155778156,0.1439396070963077,0.021682900287221755
3.1250858306884766,-0.00982239842414856,0.015958547592163086,0.005168497562408447,2.0873639583587646,0.5441088080406189,0.18228641152381897,-0.7027101582306882,0.1486313457014725,0.01997911578215125
3.1347780227661133,0.004548557102680206,0.019847333431243896,0.013159871101379395,1.9258403778076172,0.4577701687812805,0.17864826321601868,-0.6825282698145193,0.15263141098313207,0.018398362480636445
3.144958972930908,0.017753615975379944,0.004454433917999268,0.023488283157348633,1.712571144104004,0.3975714445114136,0.16394047439098358,-0.6642147223889104,0.15602027175052602,0.016972373582596293
3.1550300121307373,0.014838039875030518,-0.02546536922454834,0.02359294891357422,1.461415410041809,0.34000933170318604,0.171400785446167,-0.6482455412324121,0.15906041243128188,0.015893112438622126
3.1657471656799316,0.01316159963607788,-0.05068361759185791,0.01962488889694214,1.2219913005828857,0.29690343141555786,0.16447587311267853,-0.6347369567452947,0.161919899915557,0.015338397448600525
3.1748690605163574,0.01581425964832306,-0.059602439403533936,0.010484695434570312,1.0533045530319214,0.2555733025074005,0.12177954614162445,-0.6233296367377898,0.16436241440322932,0.014808091790117637
3.1849379539489746,0.012039795517921448,-0.0605926513671875,0.005872011184692383,0.9724982380867004,0.21175438165664673,0.11479615420103073,-0.6131600528078717,0.16633260419869436,0.014178174561074631
3.1949100494384766,0.013189315795898438,-0.03408747911453247,0.0017854571342468262,0.949284553527832,0.17241230607032776,0.11241049319505692,-0.6035086400456195,0.1679266900934772,0.013612030256959685
3.204960823059082,0.014596372842788696,0.00028330087661743164,-0.00756603479385376,0.9281258583068848,0.1447046548128128,0.10440998524427414,-0.5940777805039757,0.16916996677314075,0.012997208375044308
3.2151479721069336,0.013191461563110352,0.017176806926727295,-0.01737135648727417,0.9404357671737671,0.11984323710203171,0.1215737983584404,-0.584677276327199,0.17016165137334482,0.012418051885920673
3.2252800464630127,0.01678808033466339,0.015707314014434814,-0.013144493103027344,0.9919201731681824,0.10415451228618622,0.13976030051708221,-0.5749245566279206,0.1710286863412992,0.011984179274621193
3.2349600791931152,0.01701660454273224,0.025653541088104248,-0.011620879173278809,1.0355443954467773,0.0850609764456749,0.17783524096012115,-0.5646524658684298,0.1718758666823708,0.011779474231797841
3.245443820953369,0.014884695410728455,0.04680836200714111,-0.0046509504318237305,1.03397536277771,0.059450555592775345,0.1822533905506134,-0.5540956149412807,0.17260304064426726,0.011800004913509129
3.255703926086426,0.012617841362953186,0.03831273317337036,0.011557221412658691,0.980646014213562,0.059881456196308136,0.17997266352176666,-0.5438243343606355,0.17320465030648244,0.01184323338006093
3.265108108520508,0.006100252270698547,-0.00497668981552124,0.010275185108184814,0.8654810190200806,0.0733167976140976,0.15213042497634888,-0.5343830569325749,0.17391380505168264,0.011922382408374307
3.2749381065368652,0.004775777459144592,-0.03189629316329956,0.005949556827545166,0.7224809527397156,0.08568291366100311,0.11015580594539642,-0.5263382010951486,0.17464221944657665,0.011818971101588452
3.285037040710449,-0.002782866358757019,-0.041574835777282715,0.013238668441772461,0.6178376078605652,0.09271974116563797,0.09935338795185089,-0.5195449120931543,0.17547639067864765,0.011648435159986157
3.294948101043701,-0.001142457127571106,-0.05194884538650513,0.009859740734100342,0.4990212321281433,0.07062055915594101,0.08681868761777878,-0.513909046696237,0.17628862007485951,0.011596512779426865
3.3048980236053467,0.0035980790853500366,-0.04255318641662598,0.022838711738586426,0.4533473551273346,0.07606060057878494,0.057328756898641586,-0.5091362387557363,0.17690053695543106,0.011461276049840324
3.3154711723327637,0.0007973015308380127,-0.04497906565666199,0.03355276584625244,0.3581436276435852,0.08440082520246506,0.06877582520246506,-0.5050513474208157,0.17767410893290925,0.011354017758255737
3.3254971504211426,-0.003709167242050171,-0.021576672792434692,0.016968369483947754,0.33742383122444153,0.09271792322397232,0.0822320282459259,-0.5014857930269204,0.17863629674415762,0.011519108972613983
3.3350539207458496,0.0013712942600250244,-0.008178263902664185,0.015335559844970703,0.35485607385635376,0.09847833961248398,0.08489013463258743,-0.4979553639909475,0.17971910166341493,0.011765780294939306
3.345149040222168,-0.0010264813899993896,-0.008611679077148438,0.006802082061767578,0.41020628809928894,0.09926721453666687,0.09761738032102585,-0.49404137462294034,0.18081695394067393,0.012002187840705269
3.3579399585723877,-0.005406364798545837,0.012179076671600342,-0.0017715692520141602,0.46546047925949097,0.08881217241287231,0.11171828210353851,-0.48953133705435914,0.1818881752928317,0.012276767690169534
3.366663932800293,-0.0004667937755584717,0.015868782997131348,-0.0006919503211975098,0.5255798697471619,0.07084986567497253,0.1176588386297226,-0.48444114020380785,0.18281817078452303,0.012552239569131284
3.3753609657287598,-0.001853153109550476,0.015909522771835327,0.009711503982543945,0.5404022336006165,0.05985766649246216,0.12232495844364166,-0.47891987278829623,0.1835767099701455,0.012766151937954278
3.385222911834717,-0.007135838270187378,0.008923470973968506,0.01090240478515625,0.5345949530601501,0.05881863087415695,0.1266908496618271,-0.47340592017404165,0.18430860428190618,0.013059857787398278
3.395143985748291,-0.0072130560874938965,0.0021519362926483154,0.008897840976715088,0.5212793946266174,0.05960985645651817,0.10944900661706924,-0.46795785112216587,0.18501102417808893,0.013268027397141112
3.406097888946533,-0.010050401091575623,-0.011600315570831299,0.0030742883682250977,0.4801994562149048,0.05440817028284073,0.09703153371810913,-0.4628399668970017,0.18562277234422683,0.013366740343306505
3.41536283493042,-0.012752413749694824,-0.017255336046218872,0.007266879081726074,0.43689513206481934,0.05699463188648224,0.07787834852933884,-0.4581662028968354,0.1861759869421219,0.013392729795481341
3.4251770973205566,-0.012363404035568237,-0.021916359663009644,0.012062251567840576,0.41437453031539917,0.05309407785534859,0.07582499831914902,-0.4538572560301115,0.18672001206326896,0.013343801009163948
3.43538498878479,-0.014274954795837402,-0.015175819396972656,0.01692032814025879,0.3920753598213196,0.044960781931877136,0.07532592117786407,-0.4497401186118212,0.1872098743983581,0.013346297226603292
3.4451990127563477,-0.013288140296936035,0.0013051331043243408,0.019160151481628418,0.36739233136177063,0.03513771668076515,0.06515179574489594,-0.44586200709920104,0.18760315698973437,0.013328702889491333
3.4575681686401367,-0.011268511414527893,0.0019786953926086426,0.020678162574768066,0.3336554169654846,0.03287962079048157,0.05297555774450302,-0.4422941487792068,0.1878936424466963,0.013235789073890503
3.4657630920410156,-0.010748758912086487,0.0013853907585144043,0.015764176845550537,0.29709649085998535,0.03941918909549713,0.05070217698812485,-0.43910359427374923,0.18822445164015708,0.013155762529663844
3.4752259254455566,-0.013140499591827393,0.005194038152694702,0.005323171615600586,0.26287195086479187,0.04915304481983185,0.04970615357160568,-0.43626320230888566,0.1886526579955401,0.013129599277471017
3.4855198860168457,-0.013685718178749084,0.0029070377349853516,0.0005615353584289551,0.23455925285816193,0.057585276663303375,0.04326289892196655,-0.43372052124712646,0.18919300385894658,0.013107359074903681
3.4952850341796875,-0.014874458312988281,-0.0018916726112365723,-0.004703223705291748,0.20636489987373352,0.06039144843816757,0.04028921201825142,-0.4314765657714917,0.18977988253146244,0.013103910859081256
3.505218029022217,-0.012872010469436646,-0.0034182369709014893,-0.002471029758453369,0.18868973851203918,0.0643308013677597,0.028229834511876106,-0.4294624397427596,0.19038448834816568,0.013064333635188103
3.5153441429138184,-0.010734990239143372,-0.006922930479049683,0.004103124141693115,0.1814909428358078,0.05965668708086014,0.02603645622730255,-0.4276118131589935,0.19097217446964843,0.012964593786440637
3.5251920223236084,-0.011823773384094238,0.00572928786277771,0.010135293006896973,0.190983846783638,0.04768311232328415,0.025779569521546364,-0.42573159130533966,0.19147858463342907,0.01286750554351959
3.5353188514709473,-0.010049030184745789,0.015292972326278687,0.015945255756378174,0.20039227604866028,0.03397528827190399,0.016350647434592247,-0.42374262210233654,0.1918275897264814,0.012690205374074982
3.5451860427856445,-0.006798923015594482,0.0060419440269470215,0.010651469230651855,0.19644851982593536,0.026997186243534088,0.00323873246088624,-0.4217728845440403,0.19199633173994324,0.012373737521477945
3.555413007736206,-0.003440350294113159,-0.0010346174240112305,0.0017998218536376953,0.19952207803726196,0.02803049236536026,-0.0015696047339588404,-0.4198298235546567,0.19209791248591224,0.011951749249043273
3.565706968307495,-0.0009253323078155518,0.0022761523723602295,-0.004881441593170166,0.2296014130115509,0.03354847431182861,0.0028455969877541065,-0.4177424981057672,0.19222637582071903,0.011511426305395629
3.575343132019043,-0.0022606104612350464,0.010717928409576416,-0.006530642509460449,0.26693812012672424,0.03489603102207184,0.003206987865269184,-0.4153024231701119,0.19236484110854585,0.011024028368346327
3.585325002670288,-0.0031408220529556274,0.012586385011672974,-0.005827963352203369,0.30184465646743774,0.026545383036136627,0.000455249915830791,-0.412528320571683,0.19242771145951926,0.010451220130172984
3.595323085784912,-0.0026728808879852295,0.014874160289764404,0.0021848082542419434,0.3552362620830536,0.02602500095963478,0.018810288980603218,-0.4094501290826428,0.1924263545940162,0.009850351047199626
3.605412006378174,-0.0030399560928344727,0.01729649305343628,-0.003168940544128418,0.38414570689201355,0.03292578086256981,0.032277416437864304,-0.40624620286271,0.19247931442103594,0.009340196247864078
3.6155128479003906,-0.00341583788394928,0.021608948707580566,-0.00575488805770874,0.3999435603618622,0.04333527758717537,0.043644584715366364,-0.4030156743416809,0.19267690389543085,0.008918821947713568
3.6253881454467773,-0.003040596842765808,0.0037533342838287354,-0.007019519805908203,0.40485939383506775,0.05602768436074257,0.04179006814956665,-0.399471625201268,0.19301504632663358,0.00854468001778228
3.6355538368225098,-0.004371225833892822,-0.012500762939453125,-0.005018830299377441,0.41048747301101685,0.06562252342700958,0.04630119726061821,-0.39538788029390337,0.1934924170181036,0.008166946631575831
3.645552158355713,-0.00663246214389801,-0.013347029685974121,-0.0033226609230041504,0.42234909534454346,0.06224336847662926,0.04929352179169655,-0.39119942102383093,0.19401325883962528,0.007806751088137528
3.6554620265960693,-0.0025738775730133057,-0.008413940668106079,-0.001993715763092041,0.430303156375885,0.045745085924863815,0.04419916123151779,-0.3869068395536661,0.19440691429965845,0.007410701247707671
3.6657228469848633,0.00276358425617218,-0.00586014986038208,0.002469360828399658,0.4175311028957367,0.026555635035037994,0.03669176623225212,-0.3826534998305248,0.194591204863472,0.006953764403861402
3.675459861755371,0.005385100841522217,-0.008152097463607788,0.0016070008277893066,0.394764244556427,0.023473292589187622,0.03354177996516228,-0.37858098270911705,0.19465856593898812,0.0064737143026434366
3.6856651306152344,0.0036573708057403564,-0.009793072938919067,-0.005159735679626465,0.3636365830898285,0.028153620660305023,0.03196289390325546,-0.3747993366310256,0.19473535019653576,0.006027864957526162
3.695451021194458,0.0017581433057785034,-0.009477615356445312,-0.005803465843200684,0.34357258677482605,0.035926323384046555,0.040221355855464935,-0.3712489926529045,0.19493661728783024,0.005673453518862819
3.7055070400238037,-0.0034571290016174316,-0.00823548436164856,-0.006614863872528076,0.32204174995422363,0.03530873358249664,0.043668072670698166,-0.36788786058195394,0.19520957428935304,0.005436735664775771
3.7157609462738037,-0.005040913820266724,-0.0026202499866485596,-0.004508912563323975,0.2938378155231476,0.04063772037625313,0.03739073872566223,-0.364782657056643,0.19550356142095207,0.005228747781491112
3.7255449295043945,-0.005257546901702881,-0.005832552909851074,-6.258487701416016e-06,0.26121196150779724,0.04019470140337944,0.03254389017820358,-0.3619669612251889,0.19586042213240468,0.005022586498425226
3.735640048980713,-0.006412580609321594,-0.01425829529762268,0.0019227266311645508,0.20483577251434326,0.025601379573345184,0.009932056069374084,-0.3596215978153134,0.19609540221224525,0.00475322609463111
3.745576858520508,-0.007969319820404053,-0.018890976905822754,0.01193302869796753,0.11955007910728455,0.016774287447333336,-0.006170428358018398,-0.3580181076919949,0.19619225975466317,0.0044267106229993166
3.755600929260254,-0.0059025585651397705,-0.028637945652008057,0.01740407943725586,0.034402426332235336,0.016700251027941704,-0.02088812179863453,-0.3572977445068068,0.19624757468502718,0.004121344598461009
3.7656989097595215,-0.006844252347946167,-0.032861411571502686,0.01446765661239624,-0.021421056240797043,0.006933285854756832,-0.03393750637769699,-0.35731057860113524,0.19626038318618783,0.003822963769061672
3.7755019664764404,-0.007730334997177124,-0.03321114182472229,0.012796580791473389,-0.04095001891255379,0.0065873414278030396,-0.04337042197585106,-0.3577165288187189,0.19620867729354913,0.0034767715932694137
3.7863399982452393,-0.007524743676185608,-0.028398066759109497,0.010808944702148438,-0.026367461308836937,-0.0006667985580861568,-0.04162493348121643,-0.3581330705290563,0.19611549464017183,0.003100537234993333
3.7955939769744873,-0.00879824161529541,-0.015815556049346924,0.006191253662109375,-0.0012328141601756215,-0.008149748668074608,-0.043759457767009735,-0.3583513010960313,0.19592342517506017,0.002679835337060563
3.805562973022461,-0.007926419377326965,-0.007272630929946899,0.0030715465545654297,0.010142629034817219,-0.011630812659859657,-0.04208800196647644,-0.35835343798948643,0.19562232174523753,0.002208152824588764
3.8166260719299316,-0.009737715125083923,-0.009683877229690552,0.004603743553161621,0.027855578809976578,-0.004210711922496557,-0.03539600968360901,-0.3579953648662861,0.19534174706282686,0.0017454285077256725
3.825709819793701,-0.015020832419395447,-0.013624131679534912,0.007780134677886963,0.048145584762096405,0.006197232753038406,-0.030063457787036896,-0.35741261287954046,0.19516969158273537,0.0013033711449547682
3.835813045501709,-0.017722681164741516,-0.007872909307479858,0.008778870105743408,0.05836759880185127,0.00035452377051115036,-0.024506505578756332,-0.35651838191751345,0.1950551283753581,0.0008916831613639516
3.845688819885254,-0.014844059944152832,0.0018910467624664307,0.008693099021911621,0.06318991631269455,0.0007326039485633373,-0.019960064440965652,-0.35551084115183235,0.19490395335585065,0.0005208034860570397
3.8575830459594727,-0.009772107005119324,-0.003575921058654785,0.0075797438621521,0.05916454643011093,0.005719905719161034,-0.021004023030400276,-0.3545390212742744,0.1947930977623531,0.0001679311316530037
3.8664519786834717,-0.011649146676063538,-0.011340349912643433,0.00957345962524414,0.03215470537543297,0.0027073377277702093,-0.0235261432826519,-0.35383699536217855,0.19470894952640597,-0.00016786075938833534
3.875762939453125,-0.013329148292541504,-0.010318934917449951,0.007031798362731934,0.024077069014310837,0.010686967521905899,-0.01912766695022583,-0.3534801705353072,0.19466805370093,-0.0004473067804275404
3.8858120441436768,-0.0063920170068740845,-0.011097043752670288,0.0011554360389709473,0.021209677681326866,0.007314428687095642,-0.02234785445034504,-0.35331743477405436,0.19464575707526713,-0.0007069259418587302
3.8957719802856445,-0.004518777132034302,-0.008714437484741211,0.0050640106201171875,0.037576667964458466,-0.011771381832659245,-0.0163421593606472,-0.35302235002758586,0.19451220064848493,-0.0009782554592237065
3.905724048614502,-0.002852886915206909,-0.003162294626235962,0.005260467529296875,0.03865394741296768,-0.030381105840206146,-0.023646146059036255,-0.3526017615263696,0.19413078761090286,-0.001288436720778491
3.9159209728240967,0.0018358975648880005,-0.0027218759059906006,0.007804572582244873,0.02204780839383602,-0.02317645773291588,-0.023511122912168503,-0.35236009748128405,0.19367783636331112,-0.0016202224738912398
3.925808906555176,-0.0012600421905517578,-0.013812392950057983,0.008098125457763672,0.011817707680165768,-0.010878157801926136,-0.020126085728406906,-0.35237356665604563,0.19337887289208675,-0.0018863456685914292
3.9359140396118164,-0.005770564079284668,-0.015060663223266602,0.005477428436279297,0.010581734590232372,-0.00958013255149126,-0.018511943519115448,-0.35233791326989816,0.19317092576764747,-0.0021120422923592876
3.945949077606201,-0.004705756902694702,-0.008475184440612793,0.004824519157409668,0.01882709562778473,-0.011982615105807781,-0.01097642257809639,-0.3521333048980098,0.19294444046392267,-0.0023124125222931525
3.9560351371765137,0.0007303357124328613,-0.003780663013458252,0.006209015846252441,0.03331815451383591,-0.006097295321524143,-0.004728380125015974,-0.351797471480004,0.19275042981567028,-0.002478608195559653
3.9660370349884033,-6.008148193359375e-05,-0.004441589117050171,0.007836520671844482,0.03982625529170036,-0.002583164721727371,0.000661431928165257,-0.35128250207970657,0.19264405860454392,-0.0025831244942307497
3.975916862487793,-0.0005622804164886475,-0.008048832416534424,0.00773090124130249,0.03813488036394119,-0.005693736951798201,0.00734143890440464,-0.35081780536324114,0.19257629712407104,-0.00263700269614774
3.986055850982666,0.004293426871299744,-0.008155882358551025,0.007910311222076416,0.03879373148083687,-0.01614571176469326,0.013781866990029812,-0.3504281348140075,0.1924786007141254,-0.0025979571620484785
3.9959230422973633,0.008959442377090454,-0.00699383020401001,0.009942471981048584,0.03644002974033356,-0.01229611225426197,0.00904783234000206,-0.3500681908956101,0.19237366147179022,-0.0025509695622963104
4.005858898162842,0.006366744637489319,-0.014574378728866577,0.011214673519134521,0.0380220003426075,-0.006673070602118969,0.014066985808312893,-0.34954517516115235,0.19230200406280565,-0.002501594706470248
4.016107082366943,0.0027901530265808105,-0.014530360698699951,0.00661313533782959,0.04092537611722946,-0.006100757047533989,0.017417509108781815,-0.3489624431371861,0.1922506873704055,-0.002414696323322537
4.025930881500244,0.004507660865783691,-0.0083199143409729,0.0029819607734680176,0.04128112643957138,-0.0014850106090307236,0.01711694523692131,-0.34847523431864225,0.1922234998899597,-0.002341489478015615
4.0360119342803955,0.004642009735107422,-0.00860944390296936,0.001410067081451416,0.0470452718436718,-0.00010416144505143166,0.020277051255106926,-0.3480365224176228,0.19227842264340186,-0.0022269326462969375
4.045805931091309,0.002405524253845215,-0.007145226001739502,0.0034279227256774902,0.044096533209085464,0.0038096641656011343,0.01798071339726448,-0.3475827326146441,0.19233851972588387,-0.0021108397443891755
4.056033134460449,-0.002695932984352112,-0.005747944116592407,0.008449137210845947,0.04815492406487465,0.019656270742416382,0.01870243065059185,-0.3470866066151011,0.19249081194259643,-0.0020005821816084677
4.066495895385742,-0.007225051522254944,-0.013457387685775757,0.009160876274108887,0.06119219586253166,0.026064546778798103,0.02683439292013645,-0.34647405103038936,0.19280835083881892,-0.001864516630401478
4.076081991195679,-0.010411873459815979,-0.008664965629577637,0.01245945692062378,0.08963076025247574,0.023001912981271744,0.030959894880652428,-0.345677992658786,0.19316296265276184,-0.0016994945609647208
4.086152076721191,-0.011098042130470276,0.0007791817188262939,0.016134560108184814,0.11420232057571411,0.02265392616391182,0.029840463772416115,-0.34451164548396734,0.19346039755501357,-0.0015681468623810115
4.096179962158203,-0.008098825812339783,-0.0010624527931213379,0.01496213674545288,0.12900230288505554,0.0279991552233696,0.035369984805583954,-0.34314526802325346,0.1937516867508409,-0.0014767500865817936
4.106326103210449,-0.0072943419218063354,-0.0018534958362579346,0.008493363857269287,0.13920599222183228,0.02397969365119934,0.037273239344358444,-0.3417171657846836,0.19406899828500146,-0.0013583697738522953
