timestamp,accel_x,accel_y,accel_z,rotation_x,rotation_y,rotation_z, pitch,roll,yaw
0.04337716102600098,-0.018559210002422333,-0.018254533410072327,0.013815581798553467,-0.0037105027586221695,0.0008570170029997826,0.0007947784615680575,-0.14373380731825475,-0.025915638998580307,-0.001865793314116125
0.05718398094177246,-0.020296592265367508,-0.014931604266166687,0.009349226951599121,-0.014385334216058254,0.005605300422757864,0.002870712662115693,-0.1438144266679767,-0.025887233069707267,-0.001847872474539359
0.06899809837341309,-0.019721530377864838,-0.018640443682670593,0.007494211196899414,-0.019580896943807602,-0.0008901497349143028,0.005060097202658653,-0.14398498944563498,-0.02586763084885689,-0.0018123942657534984
0.07754302024841309,-0.01914847083389759,-0.01665787398815155,0.007617652416229248,-0.0206430796533823,-0.0008339122869074345,0.007777374237775803,-0.14418650528883195,-0.025876962204942983,-0.0017511081832650933
0.07909607887268066,-0.017011871561408043,-0.013353288173675537,0.007053792476654053,-0.019718430936336517,0.0007261675782501698,0.008896433748304844,-0.14439360261610917,-0.025878114435823836,-0.0016760364771831536
0.08670210838317871,-0.019262921065092087,-0.013100102543830872,0.007288873195648193,-0.016739435493946075,0.004892727360129356,0.0076772915199398994,-0.14456948596950714,-0.025839833425769745,-0.0015988927712867022
0.09491991996765137,-0.01994721218943596,-0.013123109936714172,0.00693356990814209,-0.013347634114325047,0.006907408591359854,0.0064277369529008865,-0.14471608582867776,-0.025781063298774137,-0.001532659183573438
0.10445618629455566,-0.017608683556318283,-0.01292315125465393,0.003998935222625732,-0.017764870077371597,0.005641652271151543,0.002683918457478285,-0.1448686891780079,-0.025708483684113905,-0.0014878376060531039
0.11447596549987793,-0.01603551208972931,-0.010951116681098938,0.005106747150421143,-0.010157549753785133,0.002204843098297715,0.007542588748037815,-0.1450191920430625,-0.025695155982753855,-0.0014355578555294902
0.1245272159576416,-0.0196057315915823,-0.014146938920021057,0.009492218494415283,-0.011118334718048573,0.021227315068244934,4.28083585575223e-05,-0.1451031139341383,-0.025572405027840594,-0.001399586409137039
0.13450407981872559,-0.023536980152130127,-0.01779310405254364,0.004583179950714111,-0.011309816502034664,0.016413651406764984,0.0024833292700350285,-0.1452103491410601,-0.02539327513572259,-0.0013982228553008648
0.1444852352142334,-0.01823919266462326,-0.012701302766799927,0.011087596416473389,-0.008345700800418854,0.01069704256951809,0.0019226270960643888,-0.14530758432625449,-0.02527324826706875,-0.0013845506305246657
0.15454697608947754,-0.0189442727714777,-0.012767195701599121,0.013184607028961182,-0.0077081406489014626,0.017846032977104187,-0.0034479033201932907,-0.1453895959033094,-0.02514693075659983,-0.0013975111920795228
0.1646120548248291,-0.02393420971930027,-0.017942354083061218,0.009792447090148926,-0.006115186959505081,0.023699259385466576,-0.0002480620751157403,-0.14545374219391607,-0.024961732277470745,-0.0014213452013194245
0.17465519905090332,-0.02457306906580925,-0.012164905667304993,0.00808340311050415,-0.0030565469060093164,0.0216816496104002,-0.0006627162802033126,-0.14549026609626764,-0.02474792670338039,-0.0014273427029281123
0.18464016914367676,-0.02315731719136238,-0.009371265769004822,0.008450329303741455,-0.0025411583483219147,0.022431151941418648,-0.0026872511953115463,-0.1455198257889,-0.024544138575377697,-0.0014471392418661687
0.19463515281677246,-0.0256316177546978,-0.009808123111724854,0.0063536763191223145,-0.000727279344573617,0.027811802923679352,-0.003121879417449236,-0.14522110546864384,-0.024694914863370998,-0.0015428213436173021
0.2046968936920166,-0.028735196217894554,-0.009807810187339783,0.005258023738861084,0.0015792008489370346,0.02916526608169079,-0.005340718664228916,-0.144850701454859,-0.024887997888859235,-0.0016547620875307495
0.2146589756011963,-0.02854604832828045,-0.007404297590255737,0.003721892833709717,0.004780586808919907,0.028963131830096245,-0.005612627603113651,-0.14434929454860335,-0.025139073679427696,-0.0017847793341712285
0.22471904754638672,-0.02814483270049095,-0.005633637309074402,0.0029439330101013184,0.006011666730046272,0.03187663108110428,-0.00744584109634161,-0.14400943682896503,-0.02525032984191834,-0.0019119542746217383
0.23482203483581543,-0.025935158133506775,-0.006871357560157776,0.0013391375541687012,0.006528319790959358,0.031196724623441696,-0.008054372854530811,-0.1436874428732358,-0.025369651899253692,-0.0020423184972246516
0.2446439266204834,-0.025119949132204056,-0.008012518286705017,0.0034426450729370117,0.004188599530607462,0.028114736080169678,-0.010452443733811378,-0.14323705524723473,-0.02559046940361623,-0.002210661987858302
0.25478506088256836,-0.02366282045841217,-0.006325483322143555,0.004268229007720947,0.004203246906399727,0.023576177656650543,-0.01003965362906456,-0.14296633221951496,-0.025843829241513197,-0.0023880505272186455
0.264721155166626,-0.021022440865635872,-0.007019400596618652,0.004346013069152832,-0.0007797437720000744,0.022054404020309448,-0.008086491376161575,-0.14280409061270774,-0.02609057554189012,-0.002544903710959014
0.27483701705932617,-0.019510973244905472,-0.006539598107337952,0.0024688243865966797,-0.0006101003382354975,0.018364859744906425,-0.010598118416965008,-0.1426430962152411,-0.02639924640125425,-0.002715433180161578
0.28504014015197754,-0.01715967431664467,-0.006589263677597046,-0.0025048255920410156,0.0028831346426159143,0.01694805920124054,-0.008411449380218983,-0.14246202908393912,-0.026770108682369672,-0.002883736681349023
0.2949202060699463,-0.01473645307123661,-0.005780860781669617,-0.005773425102233887,0.012563991360366344,0.014358666725456715,-0.008262845687568188,-0.14230819616159807,-0.02713664582760356,-0.003057812158931817
0.30495715141296387,-0.012429650872945786,-0.004772841930389404,-0.0065767765045166016,0.014530768617987633,0.013098991475999355,-0.00015320040984079242,-0.1420914564316852,-0.02750863042329008,-0.0031755215351451905
0.31498217582702637,-0.010963311418890953,-0.00015208125114440918,-0.008006870746612549,0.020634468644857407,0.013191137462854385,0.0029086358845233917,-0.14178585377114233,-0.02781732813652481,-0.0032192533089311693
0.32727909088134766,-0.010169584304094315,-0.004923716187477112,-0.007738053798675537,0.01956712268292904,0.010058771818876266,0.004524002783000469,-0.14144236395856744,-0.02812461695563704,-0.0032369672507931604
0.33493590354919434,-0.009645184502005577,-0.009810179471969604,-0.004857420921325684,0.01337820291519165,0.0018956500571221113,0.007436968851834536,-0.14118402943240282,-0.028453027741296977,-0.003235643036158584
0.3449699878692627,-0.007539140060544014,-0.009040027856826782,-0.0010384321212768555,0.008121222257614136,-0.003938447684049606,0.008893238380551338,-0.14097640237698555,-0.02879172038494799,-0.0032020294199111743
0.3549010753631592,-0.01003473624587059,-0.009870842099189758,0.0028498172760009766,0.005468448158353567,-0.00943547859787941,0.011797148734331131,-0.14081375645742253,-0.029152577279883397,-0.0031392027308673096
0.3650510311126709,-0.009868614375591278,-0.010485395789146423,0.001688241958618164,0.006348772905766964,-0.009873524308204651,0.01626172475516796,-0.14064849623824954,-0.029489339208018297,-0.003017862468408632
0.3750121593475342,-0.00961977057158947,-0.008621230721473694,-0.0016149282455444336,0.017464540898799896,-0.0023186691105365753,0.02077898010611534,-0.14043013486930672,-0.029739861436491294,-0.002853742436767835
0.3851470947265625,-0.010177277028560638,-0.0058163851499557495,-0.007871031761169434,0.03826050087809563,0.009345000609755516,0.02898428402841091,-0.14007850327222002,-0.029853437417196378,-0.002614444201148209
0.39522814750671387,-0.012280313298106194,-0.002601996064186096,-0.01614999771118164,0.05923609063029289,0.02205493673682213,0.030441032722592354,-0.13960608277893122,-0.029792497016245863,-0.002324411908851656
0.40512800216674805,-0.01091671921312809,-0.0010999292135238647,-0.018540620803833008,0.07998116314411163,0.023511461913585663,0.033814460039138794,-0.13882890839039985,-0.029656144618024793,-0.0019931438102878344
0.4151930809020996,-0.0076422318816185,-0.0009315907955169678,-0.01737457513809204,0.09205886721611023,0.017913497984409332,0.036356180906295776,-0.13781161290933722,-0.029537845998747828,-0.0016253211472535185
0.4277620315551758,-0.001216977834701538,-0.00266188383102417,-0.013406157493591309,0.08374191075563431,0.007884388789534569,0.04284342750906944,-0.1368164918947362,-0.029458052533666058,-0.001206399042302215
0.43612003326416016,0.002665046602487564,-0.010698214173316956,-0.00803297758102417,0.06270347535610199,-0.010015249252319336,0.04900757968425751,-0.13599508292400075,-0.029553531953368916,-0.0007360652257577506
0.44515013694763184,0.006839089095592499,-0.020336344838142395,0.0004792213439941406,0.038742512464523315,-0.02778439223766327,0.05649830773472786,-0.1353889829449321,-0.029821466213670583,-0.00022052513039050195
0.45527005195617676,0.009181872010231018,-0.026254236698150635,0.009099602699279785,0.011567354202270508,-0.03976728394627571,0.07156647741794586,-0.1350784701397642,-0.030229029782509777,0.0004030036456958012
0.46518802642822266,0.008407248184084892,-0.025207340717315674,0.014261126518249512,-0.009072843939065933,-0.04811425507068634,0.08674926310777664,-0.13505368939452495,-0.030710132542911647,0.0011927405666545784
0.47689104080200195,0.0020306482911109924,-0.027441322803497314,0.018768489360809326,-0.020176628604531288,-0.05062401667237282,0.10255059599876404,-0.13522931965328142,-0.031236281773368107,0.0021263802681112387
0.4853241443634033,-0.003938201814889908,-0.02901659905910492,0.025098085403442383,-0.021949926391243935,-0.04722857475280762,0.11389096826314926,-0.13547937405953572,-0.031712283627274504,0.0031932702331597938
0.49515223503112793,-0.010911870747804642,-0.022752150893211365,0.035188138484954834,-0.018640948459506035,-0.0430399551987648,0.12138457596302032,-0.1357019724472449,-0.032082650182587304,0.004375283681306314
0.50541090965271,-0.020650207996368408,-0.017173603177070618,0.04442894458770752,-0.008643493056297302,-0.029753223061561584,0.12118467688560486,-0.13581599829060714,-0.03226478993244105,0.005598437765713647
0.5154368877410889,-0.03120996803045273,-0.016882523894309998,0.04729866981506348,-0.002970693167299032,-0.010417608544230461,0.11718541383743286,-0.13570701123346438,-0.03221739701469478,0.00681404570344097
0.5272829532623291,-0.038519635796546936,-0.011271059513092041,0.046170592308044434,0.007235006429255009,0.0073235719464719296,0.10972179472446442,-0.13541821891956926,-0.03196888799558372,0.007983836499692443
0.5355842113494873,-0.041909005492925644,-0.004111364483833313,0.0443340539932251,0.019523363560438156,0.020651893690228462,0.10153231024742126,-0.13498368909935232,-0.031579894369644694,0.00905369574110473
0.5456931591033936,-0.042750660330057144,0.0016123056411743164,0.042457640171051025,0.03163744881749153,0.03306586667895317,0.08456871658563614,-0.1345200989561362,-0.031113302632456184,0.010018498432240943
0.5555732250213623,-0.04276201128959656,0.006068617105484009,0.0376473069190979,0.042849622666835785,0.04357842728495598,0.07409397512674332,-0.13398041724071497,-0.030606644264090856,0.010831704714728036
0.5653131008148193,-0.04077007621526718,0.01371854543685913,0.02859330177307129,0.052697811275720596,0.054523710161447525,0.06239433214068413,-0.13334387698365413,-0.030057907334310994,0.011530674251024841
0.5775549411773682,-0.03800482302904129,0.018976137042045593,0.01644301414489746,0.05797699838876724,0.0627097338438034,0.049085453152656555,-0.1327040481962664,-0.029458129159557492,0.012094120346332508
0.5853269100189209,-0.03405468910932541,0.021396413445472717,0.0057389140129089355,0.05848361551761627,0.064643494784832,0.037517160177230835,-0.13207881653483497,-0.028883987878897115,0.012534902902874777
0.5953919887542725,-0.028242481872439384,0.0199643075466156,-0.00372391939163208,0.05102356895804405,0.05995314195752144,0.029206231236457825,-0.13150708087625024,-0.028387659474968116,0.01286566003933965
0.6052992343902588,-0.02230742946267128,0.018420040607452393,-0.011010289192199707,0.03609643131494522,0.05123212933540344,0.026695724576711655,-0.13106389263335452,-0.028015855607385287,0.013124464468858397
0.6153271198272705,-0.017017336562275887,0.013202667236328125,-0.014516353607177734,0.015568519942462444,0.03666490316390991,0.020565660670399666,-0.13084727215203504,-0.027810152680156512,0.013326162570785156
0.6272830963134766,-0.01028580404818058,0.008116766810417175,-0.015561521053314209,-0.004881527740508318,0.014784106984734535,0.018203595653176308,-0.1308982218783084,-0.0278435577683351,0.013475262375151034
0.6354410648345947,-0.004528110846877098,0.003674343228340149,-0.014127790927886963,-0.02340620942413807,-0.0023860917426645756,0.018201999366283417,-0.13119278167625054,-0.028126963579125596,0.013610070824160249
0.6454451084136963,-0.0026308856904506683,0.0010040849447250366,-0.01364290714263916,-0.03255986049771309,-0.0145726278424263,0.01619546487927437,-0.13170066460804047,-0.028595980197098237,0.013716367162090569
0.655350923538208,-0.005907844752073288,-0.001110360026359558,-0.014849603176116943,-0.03339289873838425,-0.022728292271494865,0.016102522611618042,-0.1322943923433068,-0.029110143590618042,0.013821663198403165
0.6653950214385986,-0.0087351743131876,-0.00345805287361145,-0.011596500873565674,-0.02316061593592167,-0.024546299129724503,0.015007376670837402,-0.1328463937043015,-0.029646826630753492,0.013936776982695102
0.6773378849029541,-0.013319695368409157,-0.005401387810707092,-0.010384559631347656,-0.012470421381294727,-0.017333660274744034,0.01357539463788271,-0.1332675544782298,-0.030119021091290516,0.01403988442287037
0.6853690147399902,-0.014735132455825806,-0.005514904856681824,-0.013700544834136963,-0.0024146917276084423,-0.009875122457742691,0.012159286066889763,-0.13356685752951658,-0.030478167340358835,0.014139781012350536
0.6953909397125244,-0.014303280040621758,-0.011010602116584778,-0.011427044868469238,-0.003549730870872736,-0.004488879349082708,0.010042073205113411,-0.13373876578646043,-0.030729978018031952,0.014231724915636772
0.7054111957550049,-0.01190149039030075,-0.017092376947402954,-0.005506753921508789,-0.0019265675218775868,-0.005092262290418148,0.013834147714078426,-0.13382461251219116,-0.030859780271031964,0.014334979896582814
0.715411901473999,-0.008777281269431114,-0.019776493310928345,0.0009304285049438477,-0.00276839267462492,-0.010889166034758091,0.012247703038156033,-0.13382316285981175,-0.030932908761349274,0.014476205481891068
0.7272069454193115,-0.005088623613119125,-0.022394075989723206,0.0058196187019348145,-0.017727650701999664,-0.01874704472720623,0.011346009559929371,-0.13386235172773628,-0.031052295469762813,0.014576012810025518
0.73561692237854,-0.0008960459381341934,-0.020258158445358276,0.008642971515655518,-0.02871106006205082,-0.03416328504681587,0.018138136714696884,-0.1340166496977599,-0.03135741176847256,0.014716215223943802
0.7456161975860596,0.001869838684797287,-0.020623832941055298,0.008184969425201416,-0.04142822325229645,-0.03661623224616051,0.01500679086893797,-0.13426244181487695,-0.0317784652910999,0.014873747811107856
0.7553989887237549,-0.003675665706396103,-0.022528544068336487,0.005308389663696289,-0.040211956948041916,-0.04401875659823418,0.021561630070209503,-0.13453693411832812,-0.03231222184785913,0.015025012607607944
0.7655079364776611,-0.0061917416751384735,-0.019100859761238098,0.0066075921058654785,-0.023799343034625053,-0.038562074303627014,0.025657836347818375,-0.13472733295598607,-0.03286933393864838,0.015235396557950611
0.7774770259857178,-0.0064882077276706696,-0.010246366262435913,0.006280064582824707,-0.010679545812308788,-0.03743661940097809,0.025894857943058014,-0.13466130070180635,-0.033355438334791536,0.015478386238223589
0.7855579853057861,-0.009570922702550888,-0.007308796048164368,0.006710827350616455,-0.0015216172905638814,-0.03719884529709816,0.03132285922765732,-0.13440697261868964,-0.033816031620845975,0.01574925880305526
0.7955470085144043,-0.014224536716938019,-0.008193537592887878,0.013843774795532227,0.0064462944865226746,-0.026830093935132027,0.027892442420125008,-0.1340371564269104,-0.03416899648537206,0.016047163641495738
0.8056108951568604,-0.017992127686738968,-0.009368404746055603,0.01711452007293701,0.008883686736226082,-0.023540912196040154,0.029463760554790497,-0.13359061462990718,-0.03441476767983874,0.0163258231693665
0.8156800270080566,-0.015252374112606049,-0.0026681870222091675,0.019344449043273926,0.008882088586688042,-0.02248310297727585,0.032519739121198654,-0.13318871054286757,-0.03457546172249388,0.016644615702034325
0.8270199298858643,-0.01422804594039917,-0.00205153226852417,0.0224611759185791,0.012909337878227234,-0.02051924355328083,0.028995683416724205,-0.13278206644471793,-0.03469881602339362,0.01697076229312207
0.8358480930328369,-0.015593074262142181,-0.002927333116531372,0.02256876230239868,0.02167593128979206,-0.010298565030097961,0.02711016684770584,-0.13228019656730675,-0.03482805520497972,0.017258025945710475
0.8498971462249756,-0.016541652381420135,0.0018742680549621582,0.01743215322494507,0.03234346956014633,-0.006392817012965679,0.028498630970716476,-0.13174640427413903,-0.03493084524859224,0.017544786943883832
0.8566920757293701,-0.011245042085647583,0.008011117577552795,0.013975322246551514,0.033816464245319366,-0.003594634123146534,0.02340506762266159,-0.13132799136177203,-0.03499233903471797,0.01780439931175773
0.8657040596008301,-0.010088812559843063,0.005611449480056763,0.014842033386230469,0.031043099239468575,-0.003305814228951931,0.021921634674072266,-0.13097806644433585,-0.035079657244837255,0.018029119191855236
0.8787310123443604,-0.009837143123149872,0.0028739869594573975,0.015216588973999023,0.02902762033045292,-0.0024344278499484062,0.023536043241620064,-0.13064565881752774,-0.03520890863543879,0.018254890449579758
0.8858320713043213,-0.007512174546718597,0.007236957550048828,0.011405706405639648,0.02352789416909218,-0.0036448342725634575,0.022158602252602577,-0.13033893595400847,-0.03536717080789145,0.018471429162948742
0.89593505859375,-0.004525430500507355,0.009113132953643799,0.007730603218078613,0.0224626287817955,-0.007807089015841484,0.019501034170389175,-0.13015493118321542,-0.0355470813981916,0.01867727265216269
0.9057440757751465,-0.004740886390209198,0.0065336525440216064,0.005334615707397461,0.02167321741580963,-0.008273186162114143,0.01828833669424057,-0.12998639222987135,-0.03574462925911031,0.018862470242082714
0.9158320426940918,-0.004237007349729538,0.009400233626365662,0.004367530345916748,0.012314336374402046,-0.011117707937955856,0.01248744037002325,-0.12984998417894406,-0.03597530503546432,0.019009826692144603
0.9275782108306885,-0.0010378547012805939,0.005599081516265869,0.0064144134521484375,0.0013526324182748795,-0.018489250913262367,0.01055382564663887,-0.12986709581744754,-0.03627810808274677,0.019100088571329756
0.9359261989593506,0.0005731359124183655,0.0018313229084014893,0.006493806838989258,-0.017342491075396538,-0.022206757217645645,0.009874719195067883,-0.1301121373266841,-0.03658075788013986,0.019189580238557526
0.9458410739898682,0.0012424513697624207,0.0014386773109436035,0.005372464656829834,-0.021320072934031487,-0.025536995381116867,0.008493337780237198,-0.13043121470462585,-0.036903594310546614,0.01927066819840904
0.9560461044311523,0.0018587931990623474,0.0009922385215759277,0.004634559154510498,-0.02140156552195549,-0.026193730533123016,0.011002035811543465,-0.13072758381495966,-0.037249896807747054,0.019346981231833267
0.966926097869873,0.0038562603294849396,0.004517287015914917,0.0033438801765441895,-0.016061726957559586,-0.029627788811922073,0.015011372044682503,-0.1310505157956992,-0.03758886479436265,0.019463550006493722
0.9771921634674072,0.0042118653655052185,0.0039750635623931885,0.0042501091957092285,-0.020161397755146027,-0.030961498618125916,0.015155181288719177,-0.131381970948159,-0.037903257710352405,0.01960559003152957
0.9857940673828125,0.004760570824146271,-0.0019365549087524414,0.00981992483139038,-0.03386364504694939,-0.03476888686418533,0.014003471471369267,-0.13174249438971158,-0.038258722469281095,0.019744041445240824
0.9958910942077637,0.0035721398890018463,-0.010876685380935669,0.016095876693725586,-0.04971211403608322,-0.038266416639089584,0.018899958580732346,-0.1322951062977287,-0.038633017825930836,0.019884604538460155
1.005810022354126,0.00637475773692131,-0.01447528600692749,0.013756811618804932,-0.06162254139780998,-0.03840383514761925,0.02406068705022335,-0.13292376068992154,-0.03897014993606396,0.020088791307489435
1.0158212184906006,0.008592300117015839,-0.014132887125015259,0.008022069931030273,-0.053032778203487396,-0.03894951939582825,0.030335627496242523,-0.13350201431257103,-0.03928638521141242,0.020341082036075438
1.0274689197540283,0.009738273918628693,-0.013965323567390442,0.0013808012008666992,-0.04268428310751915,-0.04321124032139778,0.046142660081386566,-0.1340103786698463,-0.03959883542775326,0.02070629276187893
1.0358610153198242,0.012954972684383392,-0.009328946471214294,-0.005593001842498779,-0.030575955286622047,-0.053942449390888214,0.05869520083069801,-0.134366825806634,-0.03995223015796758,0.021232445476235897
1.0457921028137207,0.016120072454214096,-0.008936896920204163,-0.009153664112091064,-0.016882862895727158,-0.06477117538452148,0.07760237157344818,-0.1346179178041359,-0.0403916771869209,0.02190817064984516
1.0559232234954834,0.02059057727456093,-0.005058124661445618,-0.02056264877319336,-0.025233738124370575,-0.08982299268245697,0.08872373402118683,-0.13487661016815242,-0.040932164566415824,0.022774762145103378
1.0663371086120605,0.02621038258075714,-0.007314831018447876,-0.025378108024597168,-0.03364409878849983,-0.11927427351474762,0.08902429044246674,-0.135136796717181,-0.041785917721565057,0.023660861768428767
1.077672004699707,0.025876667350530624,-0.009327948093414307,-0.023768305778503418,-0.05131710320711136,-0.14288638532161713,0.10982171446084976,-0.13541293006143168,-0.042899265283441713,0.024653190727590188
1.085968017578125,0.02465076372027397,-0.0015000402927398682,-0.02976667881011963,-0.09556277841329575,-0.1706046164035797,0.11747686564922333,-0.13592099439416688,-0.04417647096140372,0.02581269870704758
1.0960710048675537,0.02517194300889969,-0.009938746690750122,-0.025127887725830078,-0.1570756733417511,-0.21130092442035675,0.12265511602163315,-0.13696892787071133,-0.045773353213639664,0.026995508281837506
1.1059958934783936,0.028903044760227203,-0.015141874551773071,-0.018006443977355957,-0.21562165021896362,-0.25649672746658325,0.1452951282262802,-0.1386633278078544,-0.04776637463590297,0.02824683743885112
1.115976095199585,0.02703172340989113,0.006747692823410034,-0.017396986484527588,-0.25046032667160034,-0.2787517011165619,0.21008716523647308,-0.14088910189735818,-0.04990081847155864,0.02998386990277886
1.1280438899993896,0.03314007818698883,0.011996924877166748,-0.023656010627746582,-0.3001270294189453,-0.3338111340999603,0.18984223902225494,-0.14346307635345473,-0.052409527436614894,0.03191700955299116
1.1359760761260986,0.03576289117336273,0.0026680082082748413,-0.026228725910186768,-0.36279386281967163,-0.3678354024887085,0.22111335396766663,-0.14659935484129033,-0.055258581964306046,0.033818945698911994
1.1459190845489502,0.03461868688464165,0.012463018298149109,-0.027674436569213867,-0.4102396070957184,-0.4223867356777191,0.24518056213855743,-0.1503033103972016,-0.058489196468499954,0.03606123091151738
1.156013011932373,0.030529256910085678,0.015841588377952576,-0.016727924346923828,-0.4508357644081116,-0.4609181582927704,0.24941977858543396,-0.1544341676190656,-0.06222379749941129,0.0383447689128764
1.1659948825836182,0.017836347222328186,0.01245032250881195,-0.000967860221862793,-0.49622392654418945,-0.5127320289611816,0.2635353207588196,-0.15936612805734057,-0.06671958691219555,0.040631913025039525
1.1770789623260498,0.006183981895446777,0.014522567391395569,0.032377004623413086,-0.48155948519706726,-0.5859934687614441,0.2669558823108673,-0.16447125951380606,-0.07183531899519903,0.04298229057590828
1.187333106994629,-0.011218979954719543,0.004183977842330933,0.06654179096221924,-0.46250107884407043,-0.6422578692436218,0.2606458067893982,-0.1693540324547102,-0.07763020316291365,0.045296183131230384
1.197904109954834,-0.030661500990390778,-0.004105657339096069,0.07975757122039795,-0.43326568603515625,-0.719878613948822,0.26114699244499207,-0.1740661133551331,-0.0840172158241852,0.04756722016440721
1.2059741020202637,-0.04868227243423462,-0.01958717405796051,0.0795823335647583,-0.4064473807811737,-0.8069581389427185,0.26747387647628784,-0.1784615700123855,-0.09130513428509587,0.04986724057453574
1.2160170078277588,-0.0607808381319046,-0.04415571689605713,0.06322526931762695,-0.3550078868865967,-0.8780174255371094,0.2909400463104248,-0.18257385602025292,-0.0992628297372741,0.05232456307519548
1.2271502017974854,-0.07061439007520676,-0.11261022090911865,0.049224674701690674,-0.2738283574581146,-1.001768946647644,0.3197897970676422,-0.18600777813487476,-0.10818638613247816,0.05508255379890352
1.2360470294952393,-0.07878341525793076,-0.16906723380088806,0.04891079664230347,-0.1675698310136795,-1.156720757484436,0.35898834466934204,-0.18858530582433422,-0.11839620381936017,0.058233295772298174
1.2460181713104248,-0.09540534019470215,-0.20436091721057892,0.06988614797592163,-0.1511615663766861,-1.3042540550231934,0.4491738975048065,-0.1906363395299222,-0.1299643124077353,0.06210907178730723
1.2559990882873535,-0.12871837615966797,-0.24741798639297485,0.1347898244857788,-0.13222137093544006,-1.5040996074676514,0.56119704246521,-0.19271587031147436,-0.14307026847952387,0.06699414979587559
1.2662131786346436,-0.1647944152355194,-0.26962047815322876,0.18254727125167847,-0.13391649723052979,-1.7528643608093262,0.7078938484191895,-0.19495601381769312,-0.15812153228629874,0.07318507527257916
1.2780990600585938,-0.1822865605354309,-0.24122068285942078,0.11971884965896606,-0.2410738468170166,-1.9632465839385986,0.8614538908004761,-0.19800217325471292,-0.1752885927114673,0.08081958632978042
1.2863030433654785,-0.22688524425029755,-0.2878146171569824,-0.03347146511077881,-0.5446842312812805,-2.1260759830474854,0.9285967350006104,-0.2033988980134625,-0.19412568780107115,0.08914200479173186
1.2962629795074463,-0.30930671095848083,-0.44571757316589355,-0.16547179222106934,-0.9364445209503174,-2.3096470832824707,0.9609317779541016,-0.21262068499561204,-0.21468355981995219,0.09706434232205453
1.3061490058898926,-0.3970069885253906,-0.5633754730224609,-0.25129055976867676,-1.0344957113265991,-2.3555943965911865,0.9893287420272827,-0.22460690566057256,-0.23663304648993214,0.10453220617306187
1.3163061141967773,-0.48767244815826416,-0.5801481008529663,-0.3830035924911499,-0.8845453262329102,-2.2503888607025146,0.9453152418136597,-0.23660066331573157,-0.25794184084498456,0.11163869116174241
1.3272621631622314,-0.5813878774642944,-0.5600219964981079,-0.5243379473686218,-0.027337035164237022,-2.2231595516204834,1.110361099243164,-0.2439375355676294,-0.27834974205796625,0.12053790355118837
1.336292028427124,-0.5200420618057251,-0.4783448576927185,-0.6054205894470215,0.6006089448928833,-2.0657851696014404,0.9499892592430115,-0.24411373671124667,-0.2969811524295411,0.13151111674878693
1.3466360569000244,-0.4429769814014435,-0.30852213501930237,-0.5609280467033386,0.8979036211967468,-1.9904148578643799,0.9072830677032471,-0.23950106766555115,-0.3143802551049239,0.14320962815969332
1.3563082218170166,-0.49112746119499207,-0.2988940477371216,-0.40922677516937256,1.0008704662322998,-1.8860077857971191,0.8830142021179199,-0.233144779827217,-0.3310868404857543,0.15491523452023834
1.3662450313568115,-0.5142232775688171,-0.30922213196754456,-0.27141594886779785,1.1918178796768188,-1.8493971824645996,0.8256655335426331,-0.22566833836014963,-0.3471266071472987,0.16712263839091157
1.3777940273284912,-0.46617430448532104,-0.2411765605211258,-0.14239293336868286,1.3274508714675903,-1.7506051063537598,0.7574670314788818,-0.21646552610462988,-0.3625375775914913,0.17917112965617502
1.3863720893859863,-0.48970913887023926,-0.22687660157680511,-0.030712783336639404,1.4662305116653442,-1.6454540491104126,0.7950676083564758,-0.20611628724056383,-0.37706946736509167,0.19183829803240818
1.3969509601593018,-0.48062482476234436,-0.2575293779373169,-0.013812422752380371,1.3789373636245728,-1.4512795209884644,0.6417235732078552,-0.19574306476289313,-0.3901439118882771,0.20398148190789678
1.406548023223877,-0.5036006569862366,-0.2944211959838867,0.07578659057617188,1.4478793144226074,-1.27582585811615,0.7308091521263123,-0.18531165585779005,-0.4015689929568336,0.21581500562158534
1.4164941310882568,-0.4233955144882202,-0.28334158658981323,0.09436333179473877,1.5172879695892334,-1.053240418434143,0.8241385817527771,-0.17479442802042455,-0.4108305611114383,0.22908366597686095
1.4278662204742432,-0.35401028394699097,-0.21760544180870056,0.09665787220001221,1.4554364681243896,-0.8088293075561523,0.9101126790046692,-0.1643280480053523,-0.41777514877544913,0.24343372740917588
1.436302900314331,-0.3815866708755493,-0.18064641952514648,0.21240121126174927,1.7222421169281006,-0.6076178550720215,1.424660563468933,-0.1549134939075056,-0.4224429933695554,0.2598440598006475
1.4461982250213623,-0.3742152154445648,-0.09250715374946594,0.39491772651672363,1.6458851099014282,-0.1894015520811081,1.4792230129241943,-0.14526372008942348,-0.42322637632425136,0.2814853769215485
1.4563629627227783,-0.4174066483974457,-0.16458816826343536,0.5122883319854736,1.07499098777771,0.02427689917385578,1.5281010866165161,-0.13875750097035275,-0.42115940646869554,0.30031914577583974
1.4661881923675537,-0.413017213344574,-0.5724372267723083,0.595876157283783,0.7940706610679626,0.19021877646446228,1.7775503396987915,-0.13716764797828376,-0.4176819388431537,0.31968119066638906
1.477891206741333,-0.12348827719688416,-0.3811202645301819,0.45251893997192383,0.598505437374115,0.48217979073524475,1.9319015741348267,-0.13828989838649863,-0.411633454789152,0.3393974172062031
1.486253023147583,-0.15600278973579407,-0.2691385746002197,0.37430524826049805,0.6305844187736511,0.7685937285423279,2.216310977935791,-0.14091192734270408,-0.4024816508467376,0.3611468369027277
1.4964611530303955,-0.055900752544403076,-0.22752273082733154,0.3981599807739258,0.5666720271110535,1.141629934310913,2.3862268924713135,-0.14397434533675538,-0.38967080691985667,0.3850366362285438
1.5065460205078125,0.028363287448883057,-0.19883278012275696,0.4151081442832947,0.30235782265663147,1.477797508239746,2.567521572113037,-0.14898366296952217,-0.37317144046012607,0.4099160383380039
1.516719102859497,0.06997907161712646,-0.2293659746646881,0.4610995650291443,0.08829852938652039,1.832628607749939,2.6986119747161865,-0.1565025970659894,-0.3527252426562982,0.4355970775888996
1.5277631282806396,0.16171759366989136,-0.14615845680236816,0.5009721517562866,-0.02483847364783287,2.1824073791503906,2.79032039642334,-0.16535901759137278,-0.32848813048018016,0.461931574754457
1.5364570617675781,0.24638652801513672,-0.07903455197811127,0.4977089762687683,-0.11607810109853745,2.5218846797943115,2.919466257095337,-0.17483367233789393,-0.300295454872101,0.48931311691630863
1.546314001083374,0.38282108306884766,-0.049960002303123474,0.4650883078575134,-0.17944616079330444,2.807864189147949,2.9868357181549072,-0.18462849227028183,-0.26855298086504287,0.5177101143861145
1.5564050674438477,0.5100370645523071,-0.03520536422729492,0.4144001007080078,-0.14006812870502472,3.091701030731201,3.068131685256958,-0.1937332257335105,-0.23347589362959137,0.5471977139272316
1.5663371086120605,0.6393523812294006,0.06241926550865173,0.3346598148345947,-0.05742266774177551,3.327869176864624,3.128208637237549,-0.20135947381197564,-0.195293380869042,0.5778873363128005
1.5773169994354248,0.7721514701843262,0.13614815473556519,0.26241493225097656,-0.02557099424302578,3.5513086318969727,3.088157892227173,-0.20711108229183656,-0.1544868128232395,0.6092094296124513
1.5862739086151123,0.8783543705940247,0.1870873123407364,0.17782115936279297,-0.06978652626276016,3.6347904205322266,2.971541166305542,-0.21158267981195925,-0.11205457458408036,0.6398831437235181
1.596545934677124,1.0041593313217163,0.22074314951896667,0.10360074043273926,-0.15004143118858337,3.5635976791381836,2.8172059059143066,-0.21530376340271215,-0.06966554689540627,0.6693829646000262
1.606391191482544,1.0643742084503174,0.2642643451690674,0.021146297454833984,-0.0787653923034668,3.288224220275879,2.631784439086914,-0.21797225112995175,-0.029289420995186864,0.6971368381699864
1.6165869235992432,1.06244957447052,0.29195865988731384,-0.09546369314193726,0.1377304345369339,2.9332034587860107,2.4238836765289307,-0.21795701889819138,0.007522233557456423,0.7231774094512886
1.6277570724487305,1.02852463722229,0.38820329308509827,-0.22460460662841797,0.3310934007167816,2.4833285808563232,2.131300449371338,-0.2150278107062532,0.03969092806722639,0.7464543288164858
1.6365790367126465,0.8833767175674438,0.40604710578918457,-0.31953728199005127,0.397899329662323,2.036503553390503,1.8132258653640747,-0.2101977763090785,0.06651485957695555,0.7664630348566209
1.6464650630950928,0.6824661493301392,0.4108617305755615,-0.30343931913375854,0.2838420569896698,1.6084359884262085,1.4411593675613403,-0.20552676963945749,0.08811573189129845,0.7827540620770139
1.6565449237823486,0.4720098674297333,0.38280022144317627,-0.18323320150375366,0.2685070335865021,1.3267589807510376,1.1182529926300049,-0.2015854890946194,0.10524761305740368,0.7954868744742539
1.6667149066925049,0.2887166142463684,0.32895123958587646,-0.07592034339904785,0.33367544412612915,1.1894046068191528,0.8946293592453003,-0.19755416011050364,0.11969926460798147,0.8052837154644685
1.6773359775543213,0.19572888314723969,0.2304581105709076,-0.02476489543914795,0.4898626506328583,1.1926952600479126,0.8067544102668762,-0.1924501939466127,0.13311833495766373,0.8132689801737375
1.686439037322998,0.16616196930408478,0.09064227342605591,-0.038974225521087646,0.6895991563796997,1.2499333620071411,0.8308652639389038,-0.18548989537883287,0.14671664570181145,0.8206305412230105
1.696768045425415,0.17860041558742523,0.019379734992980957,-0.04877060651779175,0.6993005275726318,1.2558887004852295,0.9271145462989807,-0.17708586355487937,0.16071376969772233,0.8283431864334311
1.7065160274505615,0.23823076486587524,0.011850818991661072,-0.018394529819488525,0.4163636863231659,1.1862801313400269,1.013770341873169,-0.1697494695943168,0.1744649263984421,0.8372325179285647
1.7170460224151611,0.2629201412200928,0.03818763792514801,0.09989523887634277,-0.08979588747024536,1.059264063835144,0.982819139957428,-0.16611233320912466,0.18736299984106275,0.846840052173553
1.728281021118164,0.2453061193227768,0.06434442102909088,0.18450945615768433,-0.7219759225845337,0.8011364936828613,0.8508400321006775,-0.16846122830668486,0.19838849198482017,0.8567494161065496
1.7368838787078857,0.26153287291526794,0.0665951818227768,0.18519628047943115,-1.1061904430389404,0.5359024405479431,0.7038439512252808,-0.1760270649955814,0.20668403739758834,0.8664047339361675
1.746886968612671,0.2459212839603424,0.09594254195690155,0.12898516654968262,-1.2315318584442139,0.3345365822315216,0.5092064738273621,-0.1864314252972758,0.2125474561696097,0.874930913020657
1.7568409442901611,0.1890491545200348,0.10545644164085388,0.055048584938049316,-1.0248175859451294,0.2449188232421875,0.36159706115722656,-0.19668208022198863,0.21667421878497356,0.8817821804659908
1.7666330337524414,0.14836816489696503,0.13631390035152435,-0.04482746124267578,-0.6494550704956055,0.2169247269630432,0.23093396425247192,-0.20426072292115388,0.21990376950211932,0.8865815710080185
1.7777059078216553,0.10358941555023193,0.14361725747585297,-0.11459994316101074,-0.26145434379577637,0.20167946815490723,0.09704967588186264,-0.20833526073396755,0.2225501969368205,0.8892168642574827
1.7865941524505615,0.06845086812973022,0.11703507602214813,-0.12245786190032959,0.03424824774265289,0.17211687564849854,-0.01871016062796116,-0.20928812704615676,0.2245450116557146,0.889838223062314
1.7969000339508057,0.05199319124221802,0.08026541769504547,-0.07673311233520508,0.24329760670661926,0.1353522092103958,-0.12161976099014282,-0.208051832061325,0.2258542468012366,0.8887770187382872
1.806838035583496,0.04997606575489044,0.041198402643203735,-0.03682231903076172,0.36792972683906555,0.09691289067268372,-0.16042569279670715,-0.20534368498834013,0.22654259013086794,0.8866355438240673
1.816931962966919,0.06600350141525269,0.015004515647888184,-0.031110525131225586,0.391176700592041,0.0832412838935852,-0.18708713352680206,-0.20197266908833908,0.22690368829526136,0.8839960780032616
1.8294830322265625,0.06673015654087067,-0.00904129445552826,-0.028337419033050537,0.33294281363487244,0.06397601962089539,-0.17194707691669464,-0.19882535595540818,0.22712959172342218,0.8813433782880135
1.8370091915130615,0.07117974758148193,-0.01779709756374359,-0.014892637729644775,0.2761189639568329,0.0638527125120163,-0.1618851125240326,-0.19623937073301131,0.2272877156511454,0.878999644633787
1.8468739986419678,0.05364479124546051,-0.025818437337875366,0.009442269802093506,0.2496679723262787,0.08009342849254608,-0.12306623160839081,-0.19402583920774807,0.22760427568596728,0.8769871279273426
1.856816053390503,0.042308151721954346,-0.03716333210468292,-0.00721895694732666,0.25205203890800476,0.11623598635196686,-0.10330184549093246,-0.1918569574870298,0.22825541697317064,0.8752966340087392
1.8668200969696045,0.023644104599952698,-0.05237831175327301,-0.02166980504989624,0.2836807668209076,0.16460728645324707,-0.07834089547395706,-0.18945021074938181,0.2293625961737482,0.8737752150312915
1.8774070739746094,0.013160079717636108,-0.06605499982833862,-0.03755825757980347,0.3217248320579529,0.18875204026699066,-0.05402250215411186,-0.18665924177724041,0.23089859788791636,0.8724184955955523
1.8867151737213135,0.012428462505340576,-0.08447140455245972,-0.05857282876968384,0.3279224634170532,0.17073681950569153,-0.024344343692064285,-0.18355345947516358,0.232499108718438,0.8712727632484449
1.8967869281768799,0.015619933605194092,-0.0684339702129364,-0.08084022998809814,0.26366013288497925,0.13771629333496094,-0.01143360510468483,-0.18066715197290484,0.23388533464348948,0.8704061642129357
1.9066970348358154,0.011833623051643372,-0.03936329483985901,-0.09354716539382935,0.14429481327533722,0.07948906719684601,0.003072686493396759,-0.1786948576145574,0.23490220215424762,0.8698749677907576
1.9171931743621826,0.014079928398132324,-0.030007541179656982,-0.08853942155838013,0.053573425859212875,0.016099708154797554,0.005594167392700911,-0.1777469426973968,0.23533618296316636,0.8697025932945108
1.928389072418213,0.009363919496536255,-0.008308231830596924,-0.08071005344390869,0.002378548728302121,-0.004825369920581579,-0.0054114521481096745,-0.17752856495594654,0.23535976063440303,0.869656135253122
1.9369990825653076,-0.009902015328407288,-0.006133601069450378,-0.08680152893066406,0.030144399031996727,-0.012342408299446106,-0.003597572911530733,-0.1774430456025226,0.23523830031089799,0.8695714518672782
1.947045087814331,-0.01889730989933014,-0.020169690251350403,-0.10072696208953857,0.11865810304880142,0.0010843179188668728,0.004701103083789349,-0.17674345543381748,0.2351368090648936,0.8694124175731784
1.9570691585540771,-0.014682814478874207,-0.011566221714019775,-0.1146700382232666,0.1919831931591034,0.011632566340267658,0.01442803256213665,-0.1751651895276086,0.23516201433207945,0.8691281930997562
1.96720290184021,-0.002390265464782715,-0.00810617208480835,-0.12125027179718018,0.20522655546665192,-0.0012390236370265484,0.022083556279540062,-0.17295345852226732,0.23513885288892641,0.868825659582475
1.9783341884613037,0.014087095856666565,-0.0002247542142868042,-0.10207855701446533,0.1547093242406845,-0.04340219125151634,0.02229927107691765,-0.17099406250806398,0.23486849938094925,0.8686123335648727
1.986877202987671,0.029865041375160217,0.0016473084688186646,-0.06774616241455078,0.06473115086555481,-0.08279202878475189,0.02244878187775612,-0.16977572885697828,0.23421310996554934,0.868567739532033
1.9970371723175049,0.027981415390968323,-0.007984861731529236,-0.04613691568374634,-0.0009759522508829832,-0.11469004303216934,0.020080165937542915,-0.1693771678600605,0.23321733229823763,0.8687040851482379
2.0069539546966553,0.019758671522140503,-0.01063854992389679,-0.03395611047744751,-0.029507845640182495,-0.11909566819667816,0.028034282848238945,-0.16946870763811428,0.23205786675974818,0.8689769529815858
2.017133951187134,0.012106820940971375,-0.015390992164611816,-0.024989008903503418,-0.0008439759258180857,-0.10838523507118225,0.04905647411942482,-0.16955316503054038,0.2309395171146564,0.8693919928552062
2.028618097305298,0.009959444403648376,-0.02651745080947876,-0.012736737728118896,0.052038177847862244,-0.08883035182952881,0.06141231954097748,-0.16910707021057136,0.22997921305123256,0.8698655332760777
2.037076234817505,0.01212647557258606,-0.024986281991004944,0.010063707828521729,0.0898209810256958,-0.07501386106014252,0.06337666511535645,-0.1682194402543139,0.2291806084047294,0.8703049244605915
2.047333002090454,0.01929353177547455,-0.021912187337875366,0.029935359954833984,0.09721183031797409,-0.07429512590169907,0.05339950695633888,-0.16709798061354217,0.22847376343257658,0.8706643083242298
2.0569841861724854,0.029134929180145264,-0.015712499618530273,0.0458446741104126,0.08288402855396271,-0.09413701295852661,0.03272005915641785,-0.16608757486789735,0.22765655853328107,0.870885713368633
2.067031145095825,0.03939235210418701,-0.0028918683528900146,0.06253838539123535,0.042804185301065445,-0.12331709265708923,0.0043882885947823524,-0.16541901821124894,0.22662668487475157,0.8709342263310875
2.077806234359741,0.042393386363983154,0.013481512665748596,0.07296723127365112,-0.003207781119272113,-0.14697660505771637,-0.019829433411359787,-0.16521721829005484,0.225290755316135,0.8708062313113212
2.087050199508667,0.042051538825035095,0.015066489577293396,0.0780608057975769,-0.043333277106285095,-0.16391347348690033,-0.026088714599609375,-0.16548217129759402,0.2237204538226679,0.8706417376435471
2.097546100616455,0.04285195469856262,0.013585567474365234,0.09410053491592407,-0.07891231030225754,-0.1512773036956787,-0.039914246648550034,-0.16611731655838283,0.2221192368783308,0.8704544858260639
2.1070470809936523,0.03641346096992493,-0.0005048811435699463,0.11678922176361084,-0.09280963987112045,-0.1365956813097,-0.041094399988651276,-0.16703689574239228,0.2206624413683817,0.8702487144937598
2.1171419620513916,0.04665440320968628,-0.007239282131195068,0.10311788320541382,-0.08733923733234406,-0.13300468027591705,-0.054096486419439316,-0.16797076465481395,0.2193157520840646,0.8700044845538427
2.1274821758270264,0.06178295612335205,0.01860678195953369,0.09534072875976562,-0.0868184044957161,-0.1460355669260025,-0.09830890595912933,-0.1689482347121415,0.2179024930415601,0.8694613493073254
2.137169122695923,0.06599029898643494,0.0386672168970108,0.11129283905029297,-0.08259889483451843,-0.17736686766147614,-0.16680966317653656,-0.17003680811094876,0.2162357316637953,0.8683722509383766
2.1471211910247803,0.07982513308525085,0.053339630365371704,0.10627639293670654,-0.0845407247543335,-0.23576754331588745,-0.259125679731369,-0.17132860459828128,0.21403887214184036,0.8664976074740633
2.157271146774292,0.1003747433423996,0.08164116740226746,0.08674538135528564,-0.112681545317173,-0.3082447052001953,-0.3889835476875305,-0.17305132166762555,0.2110338702029254,0.8635405970202522
2.167206048965454,0.10993626713752747,0.11774139106273651,0.072196364402771,-0.1856413185596466,-0.39713597297668457,-0.5367308855056763,-0.17556339665229231,0.20696818415846618,0.8592815317957211
2.177619218826294,0.11923453211784363,0.1281045377254486,0.066165030002594,-0.19148509204387665,-0.4882131516933441,-0.6747153997421265,-0.17880073360132145,0.20174742925531602,0.8536824477036468
2.187141180038452,0.13778507709503174,0.13180658221244812,0.055271804332733154,-0.18732832372188568,-0.5676631927490234,-0.8009212613105774,-0.18209491836852584,0.19521181243095423,0.8466860044603614
2.1973350048065186,0.15355424582958221,0.13920964300632477,0.05363118648529053,-0.2608020007610321,-0.6374683976173401,-0.9402386546134949,-0.18592599186923717,0.18765941550374488,0.8384256578084571
2.2072811126708984,0.16553834080696106,0.13004246354103088,0.07025760412216187,-0.333869993686676,-0.7084264755249023,-1.062933087348938,-0.19069132258095844,0.17913257272386474,0.8289213249589945
2.217433214187622,0.18041008710861206,0.1231590062379837,0.07719802856445312,-0.4331129491329193,-0.758510947227478,-1.1781972646713257,-0.1963996422979009,0.16975167378658665,0.8183305098100371
2.2276880741119385,0.20353344082832336,0.12585625052452087,0.053122520446777344,-0.5323273539543152,-0.8202803134918213,-1.274882435798645,-0.20319113953778542,0.1595574868002631,0.8067632963844438
2.2372472286224365,0.2419659048318863,0.14747600257396698,0.00782233476638794,-0.6899257898330688,-0.8840484023094177,-1.3589016199111938,-0.2112076038093738,0.14847838305961852,0.7944054910498932
2.2472269535064697,0.29037630558013916,0.18040990829467773,-0.024992942810058594,-0.9635421633720398,-0.9507836103439331,-1.455145001411438,-0.2213725090460496,0.1364939375714815,0.7813258242259741
2.2572669982910156,0.32931753993034363,0.182997465133667,-0.04388010501861572,-1.137544870376587,-1.0538442134857178,-1.5464283227920532,-0.2338781415253255,0.12336572296467764,0.7674103400806952
2.267500162124634,0.37005355954170227,0.17330403625965118,-0.060188472270965576,-1.1835603713989258,-1.1773775815963745,-1.6334127187728882,-0.24731564015349863,0.10861703191907682,0.7525224286689851
2.277987003326416,0.36076217889785767,0.16094741225242615,-0.06930869817733765,-1.2084678411483765,-1.266479730606079,-1.7310216426849365,-0.26099688041764113,0.09233609192871274,0.7364615753878918
2.287403106689453,0.3378920257091522,0.1162366271018982,-0.07246178388595581,-1.0257742404937744,-1.3279619216918945,-1.8687347173690796,-0.27373543853062327,0.07466864820057448,0.7188850828860184
2.297504186630249,0.31287693977355957,0.11145466566085815,-0.05308026075363159,-0.8890316486358643,-1.3327276706695557,-2.119992733001709,-0.2845672289326465,0.055836343778353774,0.6987981850909931
2.3074820041656494,0.2692890763282776,0.13543671369552612,-0.057713091373443604,-0.7219553589820862,-1.375466227531433,-2.2981653213500977,-0.2937898015446238,0.035842932589555426,0.6761017795912914
2.317690134048462,0.31729304790496826,0.14070037007331848,-0.14061343669891357,-0.4351057708263397,-1.3885008096694946,-2.4356420040130615,-0.3001734167539795,0.014757813031557999,0.6514861736810458
2.3284361362457275,0.39098072052001953,0.19867128133773804,-0.21405285596847534,-0.29648342728614807,-1.3632367849349976,-2.5793161392211914,-0.3038304337815408,-0.006833242541731247,0.6251882212935448
2.337541103363037,0.41418781876564026,0.20136338472366333,-0.1982135772705078,-0.2848728597164154,-1.3568835258483887,-2.6840548515319824,-0.30635115992123985,-0.028734365241541607,0.5974910391334898
2.3484230041503906,0.4319379925727844,0.16589248180389404,-0.14315283298492432,-0.1777007281780243,-1.3614457845687866,-2.7539963722229004,-0.30772172216283494,-0.05099248426836275,0.5688483015552949
2.357534170150757,0.4121248424053192,0.17534273862838745,-0.10857754945755005,-0.07118173688650131,-1.3220821619033813,-2.821680784225464,-0.3074122172936932,-0.07322814860084123,0.5395882709299016
2.3683979511260986,0.3635798394680023,0.19210317730903625,-0.08911764621734619,-0.08687762916088104,-1.2305043935775757,-2.8840577602386475,-0.3059170942097207,-0.09497803766978972,0.5096998183874988
2.3802170753479004,0.3231254816055298,0.17981061339378357,-0.05541181564331055,-0.22431138157844543,-1.1017811298370361,-2.951857328414917,-0.30450297783362773,-0.11577710125700619,0.4791158594588674
2.387216091156006,0.29061537981033325,0.14627480506896973,0.000807642936706543,-0.4803471267223358,-0.9726219177246094,-3.020540475845337,-0.30443582271308767,-0.13554654072549518,0.44757478398036105
2.3973639011383057,0.2739757299423218,0.11841517686843872,0.06748902797698975,-0.7486382126808167,-0.8073202967643738,-3.095663070678711,-0.30625665580210687,-0.15421600376114122,0.4149223574975333
2.407396078109741,0.2685091495513916,0.12723425030708313,0.1571565866470337,-1.039621353149414,-0.6189002394676208,-3.1707990169525146,-0.3102124995930366,-0.1715886448816142,0.38093976337901714
2.417586088180542,0.24636134505271912,0.14032718539237976,0.23682063817977905,-1.2826817035675049,-0.42000386118888855,-3.233297348022461,-0.3162423225992479,-0.18760129743541612,0.34560278475309275
2.4276249408721924,0.2103997766971588,0.13613134622573853,0.25883758068084717,-1.349097490310669,-0.14507944881916046,-3.287315607070923,-0.32307301914737196,-0.20189449664394468,0.3091891878355555
2.4384429454803467,0.18690533936023712,0.1674770712852478,0.21337974071502686,-1.3474966287612915,0.14643201231956482,-3.3604769706726074,-0.329544340851778,-0.21376974765961257,0.2718500301714008
2.4481890201568604,0.19280219078063965,0.17875733971595764,0.16217172145843506,-1.2206592559814453,0.338787317276001,-3.381826162338257,-0.3349313793202807,-0.22363218844882266,0.2339811982310809
2.457515001296997,0.1933114230632782,0.10322889685630798,0.12723582983016968,-0.9851886630058289,0.5135186314582825,-3.384983539581299,-0.33814562893136635,-0.2317811191350709,0.19638039466320245
2.467834234237671,0.15037554502487183,0.04050111770629883,0.1214756965637207,-0.6476156711578369,0.7031915783882141,-3.4055488109588623,-0.3383223932415696,-0.23801894517205094,0.15929050384444807
2.4782190322875977,0.08139441907405853,0.017040222883224487,0.13782072067260742,-0.3247460126876831,0.9580089449882507,-3.42611026763916,-0.3347907143208956,-0.2417649988348214,0.12294135868487574
2.487525224685669,0.03393757343292236,0.02990463376045227,0.1486383080482483,-0.22420403361320496,1.2345603704452515,-3.4344732761383057,-0.32923713827620704,-0.24245373034592627,0.08692555242480741
2.4978229999542236,0.0326969176530838,0.013199597597122192,0.19844681024551392,-0.10982340574264526,1.3618382215499878,-3.3462576866149902,-0.3227746340536214,-0.2406662152469124,0.051661249520376616
2.5076661109924316,0.06064946949481964,-0.09425213932991028,0.2247532606124878,0.07069289684295654,1.429921269416809,-3.2385916709899902,-0.31517310968008244,-0.23732381664026003,0.01790092797761848
2.518657922744751,0.06305116415023804,-0.13991209864616394,0.21275150775909424,0.1403862088918686,1.5118592977523804,-3.131740093231201,-0.306780584456701,-0.23244945603986372,-0.014440774236476729
2.528257131576538,0.037263572216033936,-0.15005841851234436,0.1960318684577942,0.2572230100631714,1.5508249998092651,-3.005990743637085,-0.2978448869876666,-0.22629994185657418,-0.045311383612518824
2.537851095199585,0.007614940404891968,-0.2374095618724823,0.14659756422042847,0.27020564675331116,1.6105543375015259,-2.8508453369140625,-0.2887218472939106,-0.21895840974387176,-0.07457356740469288
2.5476691722869873,-0.014902114868164062,-0.2924540936946869,0.11831426620483398,0.21273449063301086,1.6459661722183228,-2.675328016281128,-0.28046104720938536,-0.21038218158215966,-0.10219400207966003
2.5577750205993652,-0.030979186296463013,-0.2947861850261688,0.17605483531951904,0.15034249424934387,1.666322112083435,-2.5203826427459717,-0.27341515053799575,-0.20094430699319987,-0.12826229543918496
2.567833185195923,-0.05806456506252289,-0.2874150574207306,0.2395145297050476,0.07542242854833603,1.7232075929641724,-2.34403657913208,-0.2674919080096932,-0.19059283895278914,-0.15283584809919182
2.5786631107330322,-0.08158595860004425,-0.2823355793952942,0.2827737331390381,-0.07800734043121338,1.7476516962051392,-2.1091456413269043,-0.2634298247402991,-0.17911751708883683,-0.1755987723354862
2.5878798961639404,-0.07049430906772614,-0.3004494309425354,0.29380494356155396,-0.2420245110988617,1.7192074060440063,-1.8352553844451904,-0.26156714163275124,-0.1670307147456247,-0.1960062764228271
2.599041223526001,-0.035301223397254944,-0.4081818163394928,0.22418886423110962,-0.44287052750587463,1.6106936931610107,-1.6005544662475586,-0.262125565538206,-0.15501033673767511,-0.21410606169563734
2.607767105102539,-0.01317492127418518,-0.49118635058403015,0.13489001989364624,-0.6577562689781189,1.5059406757354736,-1.3529473543167114,-0.26540971901397675,-0.14362085723763418,-0.23013614243817226
2.6178271770477295,-0.006186723709106445,-0.5099139213562012,0.048348844051361084,-0.8910619616508484,1.449201226234436,-1.0699808597564697,-0.2714286282332122,-0.13245846567750083,-0.24372213522858294
2.628092050552368,-0.013453640043735504,-0.4979608654975891,-0.02108287811279297,-1.006144404411316,1.409665584564209,-0.73963463306427,-0.27981150809626004,-0.12103911203600884,-0.25434977027057387
2.637787103652954,-0.02073930948972702,-0.4867948293685913,-0.04673117399215698,-1.0294252634048462,1.3592755794525146,-0.39166340231895447,-0.2893222185145471,-0.10914184512971964,-0.2614227952344934
2.647780179977417,-0.017555035650730133,-0.4564308822154999,-0.06271588802337646,-1.0135067701339722,1.2948875427246094,-0.07137016952037811,-0.2992565945801585,-0.09684881735075791,-0.26489818513498875
2.6577610969543457,-0.017925143241882324,-0.4151848554611206,-0.050926029682159424,-1.050950288772583,1.2167121171951294,0.2085496336221695,-0.3095873102017809,-0.08433944780036665,-0.2651316046835102
2.667832136154175,-0.017697080969810486,-0.3967493176460266,-0.024682581424713135,-1.1172993183135986,1.1045140027999878,0.44771063327789307,-0.320625981506924,-0.07191860283748425,-0.26256484573000355
2.678751230239868,-0.013280060142278671,-0.3800174295902252,-0.015061140060424805,-1.2551323175430298,0.9907706379890442,0.6330914497375488,-0.3328134266859992,-0.05984668224066762,-0.25763942595645056
2.6879122257232666,-0.01326851174235344,-0.3476872146129608,-0.011277556419372559,-1.4436304569244385,0.892379641532898,0.7527216672897339,-0.34665402960664266,-0.048226928974836006,-0.2510282071447044
2.6978960037231445,-0.02700633555650711,-0.3275896906852722,-0.019073426723480225,-1.6364822387695312,0.8106112480163574,0.846253514289856,-0.3624187103484183,-0.03698878803365818,-0.24320038686732398
2.70796799659729,-0.045745208859443665,-0.3102989196777344,-0.04297137260437012,-1.7520039081573486,0.7522019147872925,0.9242297410964966,-0.37973899289982943,-0.025945328692709893,-0.234254369405821
2.7179300785064697,-0.05862101912498474,-0.2781252861022949,-0.07838010787963867,-1.7084695100784302,0.7148007750511169,0.9891379475593567,-0.3973559236946888,-0.014831219385094211,-0.22428376571597697
2.728623151779175,-0.06758428364992142,-0.21366649866104126,-0.1256365180015564,-1.4471267461776733,0.6907122731208801,1.0279489755630493,-0.4134232131206013,-0.003529139674692932,-0.21344892193051634
2.737826108932495,-0.06476887315511703,-0.14199677109718323,-0.20096063613891602,-1.0076031684875488,0.6999438405036926,1.0591490268707275,-0.42570448612424633,0.008070382674150564,-0.2019986687152851
2.7479279041290283,-0.05622494965791702,-0.06525111198425293,-0.2889954447746277,-0.5119689106941223,0.7021426558494568,1.102935791015625,-0.43322989194366807,0.02012117451623207,-0.1899747772646059
2.7584049701690674,-0.048319362103939056,-0.03144088387489319,-0.32649630308151245,0.04088332876563072,0.672757625579834,1.1603673696517944,-0.43528552338092286,0.032309589953253566,-0.17741476467286416
2.7679920196533203,-0.05156351998448372,-0.06795623898506165,-0.3448476195335388,0.4918504059314728,0.6690546870231628,1.1846928596496582,-0.43209173919478505,0.04439610658503575,-0.16456135943172237
2.77803111076355,-0.06825416535139084,-0.09746497869491577,-0.3168206810951233,0.7652302980422974,0.7072058320045471,1.1909263134002686,-0.42506062965812336,0.05652700831665773,-0.15188385103780072
2.7879960536956787,-0.08552688360214233,-0.12212800979614258,-0.24824833869934082,0.8780025839805603,0.7521268129348755,1.2164891958236694,-0.41600626768336335,0.06900107720001088,-0.1392793050651837
2.7980291843414307,-0.0913831815123558,-0.14212951064109802,-0.17798835039138794,0.8087334632873535,0.7804274559020996,1.2334325313568115,-0.4065477343032914,0.08172474098440433,-0.12663791580515693
2.8081231117248535,-0.08118978142738342,-0.14577051997184753,-0.10413944721221924,0.595474362373352,0.7928725481033325,1.2265586853027344,-0.3984152186554764,0.09457080425772219,-0.11397185968599188
2.8182170391082764,-0.06807810813188553,-0.16896072030067444,-0.04824763536453247,0.3240196704864502,0.7803559899330139,1.2142109870910645,-0.39257484630442485,0.1073325246314627,-0.1013100950203352
2.8287131786346436,-0.05594313144683838,-0.18929889798164368,-0.04424905776977539,0.056818071752786636,0.7458406090736389,1.1925355195999146,-0.3893546262485156,0.119834334127686,-0.0885699217017112
2.839021921157837,-0.03985550254583359,-0.16413873434066772,-0.08250963687896729,-0.18332555890083313,0.7234599590301514,1.122219204902649,-0.3885152809389142,0.13193621134911182,-0.07602807041692589
2.849900960922241,-0.03250361979007721,-0.1329791247844696,-0.13032114505767822,-0.3507603704929352,0.6861516237258911,1.0261861085891724,-0.38976743549213977,0.14353200105074768,-0.06410878294009839
2.8583199977874756,-0.03508491814136505,-0.11411675810813904,-0.16367411613464355,-0.4494091868400574,0.6429892778396606,0.9419892430305481,-0.39230645468481834,0.15444004312710807,-0.05292890298756517
2.8680288791656494,-0.03762903809547424,-0.06962057948112488,-0.18393760919570923,-0.4932871460914612,0.6211753487586975,0.8711093068122864,-0.39554354031484157,0.1647949313924795,-0.04240732784115972
2.878570079803467,-0.044101327657699585,-0.006316810846328735,-0.17338836193084717,-0.49583497643470764,0.6095131039619446,0.7964369654655457,-0.3990238768388494,0.17475214597703914,-0.03256785836917591
2.8880860805511475,-0.05725474655628204,0.015975147485733032,-0.15147125720977783,-0.49213728308677673,0.6055221557617188,0.7257822751998901,-0.40252183196381736,0.18436933976951195,-0.02347245564436087
2.8981149196624756,-0.07246315479278564,0.00996243953704834,-0.1244463324546814,-0.4661448299884796,0.6172163486480713,0.6586807370185852,-0.4059746835268894,0.19377167497330333,-0.01507242736632019
2.9081809520721436,-0.08814369142055511,0.00364646315574646,-0.10328972339630127,-0.3883421719074249,0.6476788520812988,0.5949180126190186,-0.4089483010084247,0.2031100271119578,-0.007454542333718598
2.918524980545044,-0.10174733400344849,0.010005593299865723,-0.08458960056304932,-0.2095939964056015,0.6924167275428772,0.5361955761909485,-0.4108324012880659,0.21249010048592817,-0.0007189695197246808
2.928546190261841,-0.1161043643951416,0.019089043140411377,-0.07722944021224976,0.058467499911785126,0.7652002573013306,0.4733668565750122,-0.4104614143799539,0.2219968952074395,0.0048438815040569546
2.9381659030914307,-0.12163172662258148,0.042349159717559814,-0.09779143333435059,0.31843888759613037,0.8194499611854553,0.3969322741031647,-0.407644539218954,0.23161868629555477,0.009008099613459277
2.948306083679199,-0.10602384805679321,0.08202910423278809,-0.09312492609024048,0.5534923672676086,0.8189253211021423,0.319613516330719,-0.4025232780029188,0.24089424023812014,0.01168194221462107
2.9582102298736572,-0.08519114553928375,0.09438049793243408,-0.0725175142288208,0.6822460889816284,0.8035223484039307,0.24708791077136993,-0.39575893975102266,0.24953037593484645,0.013009157383224492
2.9682819843292236,-0.07721041142940521,0.08979108929634094,-0.04317176342010498,0.6808149814605713,0.786675214767456,0.19042553007602692,-0.3885228085651388,0.2576415238046645,0.013412813320068058
2.9794881343841553,-0.07418482005596161,0.07630875706672668,-0.01253509521484375,0.5538226962089539,0.763370156288147,0.14874599874019623,-0.3820612300048715,0.265406949519335,0.013435916288627767
2.9883248805999756,-0.06941506266593933,0.04706588387489319,0.018121182918548584,0.35146191716194153,0.7314874529838562,0.11173248291015625,-0.377304418836287,0.2729003025322633,0.013486826453165065
2.998647928237915,-0.06370553374290466,0.006135910749435425,0.0373762845993042,0.102872334420681,0.6931208968162537,0.07467033714056015,-0.3748663474290493,0.28014449069069924,0.01379461027988682
3.008310079574585,-0.05267345905303955,-0.01836147904396057,0.04423278570175171,-0.10916358977556229,0.6359034180641174,0.04809822142124176,-0.37474270727570785,0.28703036486839284,0.01443506270511852
3.018148183822632,-0.04069012403488159,-0.016142964363098145,0.04025989770889282,-0.26204317808151245,0.5715377330780029,0.03514513373374939,-0.37645852957646403,0.29344053962571914,0.015445845508139305
3.0286672115325928,-0.03363415598869324,0.0025475025177001953,0.030289888381958008,-0.32474225759506226,0.5266072154045105,0.03782549872994423,-0.3792018015326449,0.29939611956296597,0.016746361464566206
3.038285970687866,-0.03635329008102417,0.01689651608467102,0.004646778106689453,-0.33586838841438293,0.5024046897888184,0.05353042483329773,-0.3822526557108609,0.30511733666259444,0.018295467290902274
3.048271894454956,-0.04299497604370117,0.02827438712120056,-0.016628146171569824,-0.2949264347553253,0.4757976531982422,0.0680258572101593,-0.38510498160265694,0.3106337371701523,0.019966236107893325
3.0582070350646973,-0.04576024413108826,0.025744259357452393,-0.026925981044769287,-0.25144392251968384,0.4503447413444519,0.07958503812551498,-0.3874739937995515,0.31588460761187975,0.021612252302666002
3.068350076675415,-0.04530683159828186,0.02692350745201111,-0.029547929763793945,-0.20380127429962158,0.4253522455692291,0.09529635310173035,-0.3893653094109524,0.32090113744637105,0.023282924858018285
3.078871965408325,-0.044892579317092896,0.029432624578475952,-0.021464288234710693,-0.1822965145111084,0.3899819850921631,0.11798249185085297,-0.3908429460534898,0.3256434053001612,0.025032833077164963
3.0883982181549072,-0.04747241735458374,0.02495896816253662,-0.01574575901031494,-0.18473199009895325,0.3543131649494171,0.14033429324626923,-0.3921501055699192,0.3301176490815263,0.02699542312517782
3.0991110801696777,-0.05068376660346985,0.01435929536819458,-0.006384313106536865,-0.2111303061246872,0.3138379156589508,0.15443973243236542,-0.3935319145154102,0.3343068995515596,0.02919871727928392
3.108534097671509,-0.0540713369846344,0.0005246996879577637,0.002654433250427246,-0.24762864410877228,0.27768805623054504,0.16056595742702484,-0.39517906973859385,0.3381882413541984,0.03163182106385394
3.118283987045288,-0.05948111414909363,-0.005991250276565552,0.007130920886993408,-0.2522348463535309,0.2553630471229553,0.17766878008842468,-0.3969989127465568,0.3418703508311198,0.03427681962570439
3.1286730766296387,-0.06369346380233765,0.0012707114219665527,0.0003203749656677246,-0.233352392911911,0.23139049112796783,0.1896001100540161,-0.3986719372930484,0.3453751406113586,0.03704644717974524
3.1383841037750244,-0.061611711978912354,0.015385836362838745,-0.0066762566566467285,-0.20942576229572296,0.18758335709571838,0.19693446159362793,-0.40009549761413765,0.34856121988104505,0.039827622812909996
3.148413896560669,-0.052951037883758545,0.01620200276374817,-0.015135884284973145,-0.17633523046970367,0.13597311079502106,0.20158125460147858,-0.40121423482848434,0.3512463178852449,0.04257599608958066
3.1587321758270264,-0.04606753587722778,0.016476184129714966,-0.024213016033172607,-0.17108960449695587,0.0953628420829773,0.20357541739940643,-0.40212652478852534,0.35345333202771767,0.045291233798332414
3.168536901473999,-0.048724085092544556,0.00916743278503418,-0.029640793800354004,-0.1868695765733719,0.06848892569541931,0.20138007402420044,-0.4031048438094933,0.35532462805714427,0.04802151723414668
3.178736925125122,-0.05523243546485901,-0.005383908748626709,-0.034066081047058105,-0.21733827888965607,0.05006703734397888,0.20701904594898224,-0.404276900207471,0.3570250991239275,0.05085591273665576
3.1885979175567627,-0.057282477617263794,-0.003539353609085083,-0.03838372230529785,-0.23832018673419952,0.03249368444085121,0.2028101533651352,-0.4057065618122262,0.3586075427582053,0.053834920034422716
3.1985740661621094,-0.052461832761764526,0.001917123794555664,-0.03342020511627197,-0.21844075620174408,0.015207372605800629,0.18902961909770966,-0.4071751154480984,0.35998196678423444,0.05672086789405478
3.2085931301116943,-0.047437697649002075,0.0012617111206054688,-0.04084360599517822,-0.1972055435180664,0.0023198919370770454,0.17492417991161346,-0.4084708525947981,0.3611121439578182,0.05937918531561582
3.2185630798339844,-0.041756659746170044,0.008681535720825195,-0.05208379030227661,-0.18616247177124023,-0.012307786382734776,0.1610397845506668,-0.40966388044149116,0.36203117223042497,0.06182312432990989
3.228870153427124,-0.029686152935028076,0.015315860509872437,-0.0536687970161438,-0.18164324760437012,-0.0335356667637825,0.14680129289627075,-0.4108321657812582,0.36270335555091976,0.06410534789395167
3.2384819984436035,-0.019906580448150635,0.011839985847473145,-0.04607313871383667,-0.19301654398441315,-0.057507842779159546,0.13449962437152863,-0.4120940196250684,0.3630920664679595,0.06625504769420808
3.248509168624878,-0.015141665935516357,-0.0017251074314117432,-0.031760215759277344,-0.22229190170764923,-0.07370860874652863,0.12999440729618073,-0.41355998403338334,0.3632777269732801,0.06840592323401003
3.2585160732269287,-0.01767173409461975,-0.01852002739906311,-0.018526434898376465,-0.2586618959903717,-0.07425481826066971,0.12542416155338287,-0.41533825300718374,0.3634113099526991,0.07063761109704017
3.2685749530792236,-0.020923584699630737,-0.03166830539703369,-0.01168966293334961,-0.2792918384075165,-0.06653493642807007,0.11709331721067429,-0.41745192504900563,0.3636261282719755,0.07293594105485535
3.278865098953247,-0.018123090267181396,-0.041388511657714844,-0.010186553001403809,-0.28346818685531616,-0.058108165860176086,0.12439783662557602,-0.4196567415479359,0.3639363771463032,0.07525310003549203
3.289016008377075,-0.012915968894958496,-0.03844389319419861,-0.01890254020690918,-0.2695990204811096,-0.04665546119213104,0.12686611711978912,-0.42181356172174467,0.36437124262453346,0.07761959411329508
3.299791097640991,-0.006978511810302734,-0.03686216473579407,-0.01786983013153076,-0.2353941649198532,-0.03498895466327667,0.1224559098482132,-0.42374344029210037,0.3648796780902554,0.07988756175931945
3.3086130619049072,-0.005896627902984619,-0.04551836848258972,-0.010726571083068848,-0.20098821818828583,-0.022478753700852394,0.11443505436182022,-0.4253726790127178,0.36543189920186825,0.08192996133221714
3.3186450004577637,-0.006422221660614014,-0.04889687895774841,-0.004540205001831055,-0.1844920665025711,-0.012032769620418549,0.13511024415493011,-0.42670336557590693,0.3660838992753673,0.0839622875258159
3.328752040863037,-0.004110604524612427,-0.052559107542037964,0.0017732977867126465,-0.19540941715240479,-0.0010329834185540676,0.15375199913978577,-0.42792740044149763,0.3669354768751989,0.08619076594703522
3.338711977005005,-0.005485802888870239,-0.07199126482009888,0.011620879173278809,-0.24216493964195251,0.010316876694560051,0.16976319253444672,-0.42936193746861484,0.36801703901491195,0.08869634811901765
3.3487730026245117,-0.007580757141113281,-0.09467697143554688,0.02608668804168701,-0.3254406750202179,0.016187947243452072,0.20515218377113342,-0.4313217729485904,0.3694139226533263,0.0917250789777283
3.358731985092163,-0.009371399879455566,-0.11175879836082458,0.04171633720397949,-0.43567317724227905,0.0270744189620018,0.23170575499534607,-0.4340694516048146,0.37119304684264376,0.09547489387500124
3.3687140941619873,-0.01626807451248169,-0.13312551379203796,0.05603247880935669,-0.5033667683601379,0.05743485316634178,0.25797441601753235,-0.4375922749159544,0.3734597635492066,0.09988150124493154
3.379760980606079,-0.019012242555618286,-0.13745152950286865,0.0471951961517334,-0.5057423114776611,0.10003691166639328,0.28552988171577454,-0.4413102502025932,0.37630084328443747,0.10473797845025073
3.3886759281158447,-0.011607944965362549,-0.10784724354743958,0.0212133526802063,-0.45589104294776917,0.1140020340681076,0.29798731207847595,-0.4447532006229206,0.37954347694234536,0.1097383240193311
3.3986079692840576,0.007935106754302979,-0.06659844517707825,0.008088171482086182,-0.3425160050392151,0.09186877310276031,0.31342458724975586,-0.4473531156061214,0.38263305574194983,0.11454326660774831
3.408622980117798,0.025311768054962158,-0.03345063328742981,-0.0041738152503967285,-0.1809418946504593,0.08075051754713058,0.33041810989379883,-0.4485995569086515,0.38538031841659476,0.11894707964841954
3.418530225753784,0.02946111559867859,-0.0030762553215026855,-0.029154479503631592,-0.02567083016037941,0.08715328574180603,0.3504357635974884,-0.4482504746228997,0.3879093205997519,0.1228769810329462
3.4287731647491455,0.028823047876358032,0.01832371950149536,-0.05479991436004639,0.10765671730041504,0.09537504613399506,0.3516818583011627,-0.4465162631603682,0.39032684502241205,0.12632525361515903
3.4388201236724854,0.03208550810813904,0.027771174907684326,-0.06839632987976074,0.1961010992527008,0.08887214213609695,0.3321840465068817,-0.4437749105024789,0.39247914942984197,0.1291799010276199
3.4487268924713135,0.03583362698554993,0.03071919083595276,-0.07017618417739868,0.24054589867591858,0.07910162210464478,0.3092985153198242,-0.4404963919484138,0.39430926903397834,0.1315178437287893
3.458733081817627,0.04004135727882385,0.038547635078430176,-0.06840479373931885,0.24081487953662872,0.05891752243041992,0.2816799283027649,-0.4371075838090873,0.39584195232873304,0.1335072034608081
3.46879506111145,0.040029942989349365,0.04256674647331238,-0.05259740352630615,0.21572725474834442,0.027858808636665344,0.2394401580095291,-0.433970563197457,0.3969778332143536,0.13518494235406717
3.478675127029419,0.040574610233306885,0.04121854901313782,-0.03469812870025635,0.16763189435005188,-0.007427011616528034,0.19928422570228577,-0.4313377874775825,0.3976579430217454,0.1365837515788242
3.4887001514434814,0.0408383309841156,0.05202111601829529,-0.029971837997436523,0.09087907522916794,-0.04226386547088623,0.16263118386268616,-0.4294244530532886,0.39793932018535677,0.13786314166837987
3.498704195022583,0.04192271828651428,0.062019288539886475,-0.029960930347442627,0.02481296844780445,-0.07821866869926453,0.11448975652456284,-0.4283633740201223,0.39780698907873374,0.1390266670212662
3.50872802734375,0.03610381484031677,0.058035194873809814,-0.03224897384643555,-0.036380913108587265,-0.10487895458936691,0.06763915717601776,-0.4280631562379889,0.3972646010910988,0.13996446662198145
3.5187289714813232,0.02736198902130127,0.06427323818206787,-0.032988905906677246,-0.07535415142774582,-0.12201640009880066,0.02666589617729187,-0.42841846644174986,0.396421489136789,0.14067873428185196
3.528712034225464,0.013231217861175537,0.06846678256988525,-0.020976543426513672,-0.08505024760961533,-0.12077349424362183,-0.004625020548701286,-0.42912602916894677,0.3953760485257051,0.1411391621650309
3.53918719291687,-0.0034658312797546387,0.06187734007835388,-0.012926280498504639,-0.08369389921426773,-0.10051563382148743,-0.032658785581588745,-0.4299793987665058,0.39432542919339053,0.14130236385504555
3.5491490364074707,-0.016170263290405273,0.058886438608169556,-0.007325232028961182,-0.06767600029706955,-0.08115937560796738,-0.05659080296754837,-0.4308526914273368,0.393357434022283,0.14117678075927106
3.559161901473999,-0.02331012487411499,0.05188673734664917,0.002243936061859131,-0.038108259439468384,-0.06608401983976364,-0.08242399990558624,-0.4316208060568695,0.39241149365749917,0.1406943843733711
3.5691912174224854,-0.029976695775985718,0.040704160928726196,0.009852766990661621,-0.00018795602954924107,-0.042773596942424774,-0.10346329212188721,-0.4322569781385359,0.3915854885433437,0.1398596764791166
3.579226016998291,-0.03264227509498596,0.038827598094940186,0.011979639530181885,0.04553611949086189,-0.0227665975689888,-0.11342564225196838,-0.4326432032851981,0.3908717255242146,0.13871287569850535
3.589207887649536,-0.03182673454284668,0.042576104402542114,0.01570647954940796,0.11148208379745483,-0.011456417851150036,-0.12194408476352692,-0.43251445038187797,0.39016661680779025,0.13722454013235513
3.5991079807281494,-0.02880910038948059,0.037931978702545166,0.016165196895599365,0.16050021350383759,0.00246925069950521,-0.13039590418338776,-0.4319490653701106,0.38942789614821055,0.13540286390176742
3.609088182449341,-0.027608722448349,0.033208370208740234,0.016346991062164307,0.19235317409038544,0.012579764239490032,-0.1379910111427307,-0.4312026630309908,0.3886757381037627,0.13331387701855538
3.6194159984588623,-0.02552253007888794,0.019336670637130737,0.02311640977859497,0.19604937732219696,0.012381890788674355,-0.14618715643882751,-0.4304653396154482,0.38783458460945713,0.13102789093409248
3.6291911602020264,-0.021979540586471558,0.008139282464981079,0.02813136577606201,0.17241831123828888,0.01394188217818737,-0.14327973127365112,-0.4301267155617849,0.3868973060470624,0.1287198918222509
3.6392829418182373,-0.018744170665740967,0.002192199230194092,0.03331494331359863,0.1499931514263153,0.012310430407524109,-0.14445045590400696,-0.43015610125857195,0.3859415793024815,0.12650779868345563
3.6506521701812744,-0.017283588647842407,-0.011814475059509277,0.035162270069122314,0.13340778648853302,0.007660373114049435,-0.15079449117183685,-0.43047405745498607,0.38486435339978237,0.12428680498252313
3.6602180004119873,-0.013991594314575195,-0.01016649603843689,0.029235243797302246,0.12352852523326874,-0.004475651774555445,-0.14333443343639374,-0.43107858812571437,0.38365903150065306,0.12210198400129724
3.6690518856048584,-0.008134156465530396,0.0019469261169433594,0.022556960582733154,0.131775364279747,-0.016855180263519287,-0.13452139496803284,-0.4316687985669749,0.3824306753965411,0.12003548265436952
3.679049015045166,-0.007232844829559326,-0.003448486328125,0.012550532817840576,0.12770578265190125,-0.018585700541734695,-0.13989992439746857,-0.4320652199769809,0.38119920196560464,0.1179943959659222
3.688957929611206,-0.010784298181533813,-0.00961148738861084,0.0050206780433654785,0.12165951728820801,-0.02215202897787094,-0.1378602385520935,-0.4324163848625397,0.3799563361386075,0.11594668622492867
3.6991090774536133,-0.011377424001693726,-0.011263370513916016,0.00859379768371582,0.1084851324558258,-0.030535660684108734,-0.12925344705581665,-0.4326055750763524,0.37877659624813437,0.11403947986487951
3.7091400623321533,-0.013629287481307983,-0.0164339542388916,0.01397693157196045,0.0838659331202507,-0.03016965463757515,-0.1234726831316948,-0.4326200416028847,0.37772265670848837,0.11232323386078964
3.7191720008850098,-0.01486659049987793,-0.02278447151184082,0.017907381057739258,0.07308599352836609,-0.03029002994298935,-0.11729734390974045,-0.4326399846446058,0.3768058664986365,0.11079949664638018
3.72920298576355,-0.015617579221725464,-0.024456679821014404,0.017813801765441895,0.06892280280590057,-0.025433309376239777,-0.11296635866165161,-0.4324650238374446,0.37596462895985905,0.10935493787773384
3.7392170429229736,-0.015458405017852783,-0.023685842752456665,0.01271820068359375,0.06370887160301208,-0.02359412983059883,-0.11096631735563278,-0.4323050598397591,0.37518709678440676,0.10796299232659563
3.749337911605835,-0.01393669843673706,-0.025400310754776,0.01158815622329712,0.06311897933483124,-0.024543458595871925,-0.10504313558340073,-0.4322606937753983,0.3744616307769009,0.10663469128932622
3.7589430809020996,-0.011628776788711548,-0.023660391569137573,0.00933372974395752,0.07301661372184753,-0.025329623371362686,-0.09974130988121033,-0.43204180261333247,0.37369537195660973,0.10532952864234545
3.7690420150756836,-0.008675098419189453,-0.017429381608963013,0.0038304924964904785,0.07897970080375671,-0.023887254297733307,-0.09706909954547882,-0.43163255258619565,0.37287135408920125,0.10399639676814348
3.7791121006011963,-0.005824744701385498,-0.017166465520858765,-0.002517104148864746,0.0813339352607727,-0.023951970040798187,-0.0936538577079773,-0.43117516808963613,0.3720713530669001,0.1026921735429081
3.7891581058502197,-0.006482869386672974,-0.02267131209373474,-0.0021149516105651855,0.08432573080062866,-0.024255303665995598,-0.09837910532951355,-0.43068420489841025,0.37124670284072,0.10136539081317168
3.799793004989624,-0.006727129220962524,-0.02442234754562378,-0.002340376377105713,0.07229383289813995,-0.0300948154181242,-0.09720704704523087,-0.43017642029287395,0.37039958181917254,0.10003168398147404
3.809148073196411,-0.0033512115478515625,-0.018425405025482178,-0.00039184093475341797,0.07100273668766022,-0.036939676851034164,-0.09953731298446655,-0.42967252732908,0.3694773501938744,0.09871985743129769
3.8192379474639893,-0.002437382936477661,-0.021440446376800537,-0.00026744604110717773,0.05206659436225891,-0.041399139910936356,-0.10027927160263062,-0.4292461581221412,0.3684861503872341,0.09741899453023899
3.8292291164398193,-0.0034238100051879883,-0.02785506844520569,-0.0019240379333496094,0.03444710373878479,-0.04262654110789299,-0.10368379950523376,-0.4289506347605659,0.36751052758773733,0.09616475293774532
3.8392422199249268,-0.004117071628570557,-0.03321617841720581,-0.0017824769020080566,0.03249713405966759,-0.03842806816101074,-0.10331840813159943,-0.42877185358320813,0.3665880575307789,0.09497275116790713
3.8493049144744873,-0.003225564956665039,-0.02923816442489624,-0.00101470947265625,0.04343542084097862,-0.039341848343610764,-0.0994107574224472,-0.42860910640937916,0.36568944982808066,0.0937724877250092
3.859286069869995,0.0001773834228515625,-0.023176997900009155,-0.0018867850303649902,0.05557623878121376,-0.03979698196053505,-0.09629859030246735,-0.4282362653389087,0.36477992857852093,0.09256055324229893
3.8692572116851807,0.002133101224899292,-0.02219340205192566,-0.006790757179260254,0.07119366526603699,-0.040310125797986984,-0.08375882357358932,-0.4275912668314851,0.36387497262720475,0.09138968424808658
3.8793320655822754,0.004971832036972046,-0.02507743239402771,-0.006381511688232422,0.07663636654615402,-0.04100547730922699,-0.08091031014919281,-0.4267363585001744,0.3629729433843005,0.09024481748696499
3.8894290924072266,0.005105376243591309,-0.029378563165664673,-0.0030061006546020508,0.07629526406526566,-0.04132368043065071,-0.07497316598892212,-0.42594664081399164,0.36216020990349496,0.08916632692536852
3.8996450901031494,0.005964726209640503,-0.03062412142753601,0.0012645721435546875,0.06957051903009415,-0.04614986106753349,-0.06400839984416962,-0.4250860755572369,0.36139789088581686,0.08819784800234962
3.9128739833831787,0.010142296552658081,-0.0280454158782959,0.0007266998291015625,0.05461706966161728,-0.04611772671341896,-0.05784983932971954,-0.4240813467216031,0.3606216884008725,0.08735515728265494
3.9207630157470703,0.013856500387191772,-0.02963954210281372,-0.00027060508728027344,0.04287013038992882,-0.05368456616997719,-0.050635069608688354,-0.4230849692567366,0.3598369733325616,0.08661069681516707
3.9305222034454346,0.0161283016204834,-0.028741270303726196,-0.0007740259170532227,0.03801552206277847,-0.05678191035985947,-0.04571855440735817,-0.42230076974580216,0.3590630213832134,0.08598014199783552
3.939502000808716,0.016255348920822144,-0.026027321815490723,0.000680387020111084,0.03439681604504585,-0.05795290321111679,-0.03350875899195671,-0.42170094872729613,0.35838457991356276,0.08548224957311441
3.9494640827178955,0.013883084058761597,-0.02254357933998108,0.002261340618133545,0.0326293483376503,-0.06030891090631485,-0.028830651193857193,-0.4210436420676572,0.35771138858010504,0.0850742051447517
3.960974931716919,0.013659745454788208,-0.018334031105041504,0.004977762699127197,0.03621422499418259,-0.06446903198957443,-0.01936657540500164,-0.42029346470172213,0.35707997185875184,0.08474859152848188
3.9695780277252197,0.014034688472747803,-0.015918701887130737,0.007906973361968994,0.032553911209106445,-0.06585077196359634,-0.00789873767644167,-0.41943636666277495,0.3564813116960431,0.08455152401629917
3.9796340465545654,0.008313655853271484,-0.021003931760787964,0.009892880916595459,0.022549746558070183,-0.05930951237678528,-0.010392787866294384,-0.4186390341667883,0.3559915397440158,0.08444211347246736
3.9896161556243896,0.006115317344665527,-0.020095854997634888,0.00998234748840332,0.01916315406560898,-0.05901128426194191,-0.0012099427403882146,-0.4179458599077749,0.35562889815394993,0.08441784218347921
4.001149892807007,0.0058928728103637695,-0.015758663415908813,0.014042198657989502,0.01378969568759203,-0.05683788284659386,0.00320797530002892,-0.4172072859862996,0.3553572664989603,0.08450620147531829
4.012005090713501,0.0005607008934020996,-0.015210568904876709,0.01669090986251831,0.015720851719379425,-0.04835793375968933,0.007897375151515007,-0.416491089591577,0.3551764055725189,0.08464497331446763
4.019397020339966,-0.0040427446365356445,-0.013626068830490112,0.016036272048950195,0.02562861144542694,-0.03979161009192467,0.008814035914838314,-0.41579302689028275,0.35509209413710496,0.08479705276600703
4.029748201370239,-0.006511986255645752,-0.008737504482269287,0.014968335628509521,0.03193061426281929,-0.026406383141875267,0.008888284675776958,-0.4151529665381463,0.3550376061219781,0.08489058938555488
4.039537191390991,-0.010691344738006592,-0.0056108832359313965,0.014247715473175049,0.046164412051439285,-0.018807053565979004,0.008227555081248283,-0.4145376762142724,0.35505984048936323,0.08494506938738484
4.04951810836792,-0.012893587350845337,-0.004478514194488525,0.01558619737625122,0.05184087157249451,-0.006280609406530857,0.00908179022371769,-0.41390077506236334,0.3551573266860541,0.08495116442780379
4.061512231826782,-0.014442920684814453,-0.0015475749969482422,0.014030516147613525,0.05000648647546768,0.0005429424345493317,0.008557147346436977,-0.4131995342751462,0.35526599171112677,0.08491741784242604
4.06958794593811,-0.013844102621078491,-0.0033243298530578613,0.014459192752838135,0.040263496339321136,0.0012717160861939192,0.0038851636927574873,-0.4125904739481954,0.35535807693445026,0.08485768303884837
4.079589128494263,-0.01192694902420044,-0.0025677382946014404,0.014761805534362793,0.03130542114377022,-0.004134234506636858,0.006510774604976177,-0.4121644134582576,0.35543740085040104,0.08482193860126007
4.089553117752075,-0.01115366816520691,0.0023688673973083496,0.010731518268585205,0.025341222062706947,-0.006402670871466398,0.006223845295608044,-0.4118392578376971,0.35544366913547115,0.08480520998610497
4.0996270179748535,-0.012243390083312988,0.00232619047164917,0.007709801197052002,0.02752421610057354,-0.009763579815626144,-0.0007578977383673191,-0.41155282769077317,0.3553513668382125,0.08473488388566239
4.111321210861206,-0.015116214752197266,0.0033211112022399902,0.005344867706298828,0.027415160089731216,-0.012971002608537674,-0.0006773636559955776,-0.41133302084481693,0.3551785961680439,0.08461973980237346
4.119640111923218,-0.016333580017089844,0.007418721914291382,0.0035413503646850586,0.02774512581527233,-0.01493801362812519,-0.0060476278886199,-0.4111575318626514,0.35491553007431603,0.08444846663066499
4.129669904708862,-0.01837831735610962,0.005002528429031372,0.003731846809387207,0.022896025329828262,-0.016411229968070984,-0.009430321864783764,-0.41103016034221385,0.3546110115220673,0.08424344747788952
4.13959002494812,-0.02035859227180481,0.003754943609237671,0.0035677552223205566,0.021572167053818703,-0.01633746176958084,-0.012433302588760853,-0.410976268016378,0.3542789076129202,0.08401414636827842
4.149661064147949,-0.021930277347564697,0.0027247965335845947,0.005813956260681152,0.02209586091339588,-0.016672175377607346,-0.013777133077383041,-0.4108849114176522,0.353944811024451,0.08376026954169447
4.162259101867676,-0.021709322929382324,0.0020518898963928223,0.005423784255981445,0.01877676323056221,-0.013856150209903717,-0.017602231353521347,-0.41083664063412195,0.3536446573638611,0.08349955881173443
4.169775009155273,-0.02132776379585266,0.0022031962871551514,0.004238307476043701,0.016725897789001465,-0.012664206326007843,-0.019321301952004433,-0.4108713130313723,0.3533485231823959,0.08321563563731381
4.179805040359497,-0.02084764838218689,0.0038531720638275146,0.0034755468368530273,0.011795585975050926,-0.011184288188815117,-0.021436916664242744,-0.41093568410517894,0.35303130399986127,0.08291408196841174
4.189742088317871,-0.020092487335205078,0.005521446466445923,0.004961550235748291,0.015510478988289833,-0.019996732473373413,-0.02513924427330494,-0.41103002803903677,0.3526120588654503,0.0825667048476552
4.199758052825928,-0.02005729079246521,0.004725098609924316,0.007610976696014404,0.020385395735502243,-0.022971482947468758,-0.028407741338014603,-0.41113305906144065,0.3520733544739094,0.08215372609053725
4.21156907081604,-0.021198689937591553,0.008367836475372314,0.002238929271697998,0.023470701649785042,-0.023830264806747437,-0.03620979189872742,-0.41120413457817334,0.3514605897382923,0.08164932828743877
4.219796895980835,-0.021720856428146362,0.008361190557479858,-0.0018686652183532715,0.027110176160931587,-0.02908281609416008,-0.04476546496152878,-0.41124468700823735,0.3507441583403589,0.08103823984211678
4.229813098907471,-0.021411210298538208,0.004844367504119873,-0.0017251968383789062,0.027551595121622086,-0.030810674652457237,-0.049933113157749176,-0.4112859453488999,0.349947967742844,0.08034595336722225
4.239833116531372,-0.0213606059551239,0.006533324718475342,-0.004008352756500244,0.03394877538084984,-0.02903168462216854,-0.052694812417030334,-0.41129115827182056,0.349145870885123,0.07960649719998149
4.249891042709351,-0.01874789595603943,0.006026268005371094,-0.008778750896453857,0.0367276668548584,-0.027560066431760788,-0.054610688239336014,-0.4112450312070463,0.34835512956364023,0.0788270830549388
4.262120962142944,-0.015529721975326538,-0.00011298060417175293,-0.010296225547790527,0.04736406356096268,-0.029683135449886322,-0.05122341588139534,-0.41115085026104287,0.34756277538027014,0.07803441493363487
4.269874095916748,-0.012099385261535645,-0.005242735147476196,-0.010674834251403809,0.042907264083623886,-0.03263897821307182,-0.04473995044827461,-0.4110540315850128,0.34678968963456325,0.07728030787412028
4.279896974563599,-0.008260786533355713,-0.007657527923583984,-0.008835196495056152,0.04180951043963432,-0.0410471111536026,-0.03569692000746727,-0.4109750627173708,0.34602398892642033,0.0766433448278139
4.2898850440979,-0.0025514960289001465,-0.012181967496871948,-0.005078375339508057,0.027478957548737526,-0.048352740705013275,-0.027360374107956886,-0.41096697261194576,0.34518832971788427,0.07610537788528635
4.299922227859497,-0.0010578334331512451,-0.01589980721473694,-0.0016183257102966309,0.006658631376922131,-0.05596565082669258,-0.014523936435580254,-0.41104443136686286,0.34431816778914415,0.07571900388995047
4.311582088470459,0.0009276270866394043,-0.018424153327941895,0.0036728382110595703,-0.007243818137794733,-0.0680486336350441,-0.00778731144964695,-0.41118477714409457,0.3434185466359366,0.07552075116389809
4.3206799030303955,0.0003509521484375,-0.022529929876327515,0.009287714958190918,-0.016495108604431152,-0.07443170249462128,-0.006971585564315319,-0.4114524426048544,0.3424490012254109,0.07538793670859066
4.329946041107178,-0.0015637576580047607,-0.01998502016067505,0.015046238899230957,-0.030251847580075264,-0.07863039523363113,-0.005600909236818552,-0.4117557595996101,0.3414619734639293,0.07532517918154524
4.3398590087890625,-0.005638003349304199,-0.017098605632781982,0.01720249652862549,-0.04712510481476784,-0.07579785585403442,-0.005430733319371939,-0.4120860292005877,0.3405415929848047,0.07534501156579017
4.349883079528809,-0.010235130786895752,-0.019853562116622925,0.014049232006072998,-0.04321020841598511,-0.07091473042964935,-0.009687529876828194,-0.41239494466771814,0.33969333387735606,0.0753780722771559
4.360887050628662,-0.015184760093688965,-0.018483877182006836,0.006691932678222656,-0.027088230475783348,-0.05712035298347473,-0.016809355467557907,-0.41258209106487126,0.33896939297361556,0.07533479990056031
4.3699610233306885,-0.017891108989715576,-0.008472084999084473,0.0012248754501342773,0.005180859938263893,-0.04625669866800308,-0.02186930738389492,-0.4125132502503951,0.3384177583463753,0.07519250845952763
4.380028963088989,-0.018346965312957764,-0.0014354884624481201,0.00016540288925170898,0.034435153007507324,-0.03811728209257126,-0.02777327038347721,-0.41212770902661217,0.3379149048294525,0.07488174412432654
4.390020132064819,-0.01803860068321228,0.00021457672119140625,0.0008663535118103027,0.057152215391397476,-0.02918095514178276,-0.03569366782903671,-0.41150933946399265,0.33748107310617,0.07443908153491811
4.400126218795776,-0.016095876693725586,-0.0038248300552368164,0.0016571879386901855,0.06528817117214203,-0.019106483086943626,-0.044075701385736465,-0.41077233246069145,0.3370981597689694,0.07384893786689203
4.4108240604400635,-0.014150172472000122,-0.008521556854248047,0.002570509910583496,0.06594723463058472,-0.02205682173371315,-0.05065280571579933,-0.41012010695120865,0.3367075773433535,0.0731544418951616
4.420024156570435,-0.008045434951782227,-0.009683877229690552,0.0002745389938354492,0.06458183377981186,-0.029259873554110527,-0.053680289536714554,-0.409573965520725,0.3362001675029989,0.07240488529067088
4.429960012435913,-0.0015076994895935059,-0.006564527750015259,-0.0009995698928833008,0.06515918672084808,-0.036809537559747696,-0.054677270352840424,-0.40900132462117683,0.3355240375699376,0.07160110034587171
4.440033197402954,0.0009086728096008301,-0.00664171576499939,-0.003929078578948975,0.06425584852695465,-0.04517452418804169,-0.05876229330897331,-0.4084369496587018,0.33465787691355486,0.07073051493802458
