timestamp,accel_x,accel_y,accel_z,rotation_x,rotation_y,rotation_z, pitch,roll,yaw
0.0439000129699707,0.002441778779029846,0.012434929609298706,0.01921689510345459,-0.0011040335521101952,-0.0018569575622677803,0.004578211810439825,-0.3071610457441883,0.21379498265551766,0.033218955814203276
0.06262397766113281,0.003362521529197693,0.012576043605804443,0.020074188709259033,-0.008516409434378147,-0.002267084550112486,0.004687135107815266,-0.3072050400402381,0.2137924051253025,0.03327807627321386
0.07008504867553711,0.0024169236421585083,0.012257665395736694,0.018804311752319336,-0.012144317850470543,-4.551932215690613e-05,0.005314256530255079,-0.30731496110423095,0.2137994972221492,0.03335062405059488
0.07137608528137207,0.0007779449224472046,0.013405978679656982,0.018162786960601807,-0.014290559105575085,0.0029167146421968937,0.0102608110755682,-0.3074389970044379,0.2138475663926844,0.033457698917238994
0.07778811454772949,0.0019379109144210815,0.019123882055282593,0.017472684383392334,-0.011951505206525326,0.001674616476520896,0.010356951504945755,-0.3075553846855963,0.21392081523192774,0.033585966379271526
0.08194398880004883,0.0018853545188903809,0.01968526840209961,0.01892751455307007,-0.010969597846269608,-0.003066343255341053,0.007581405807286501,-0.307670794171234,0.21395242477455859,0.033701088801015196
0.09171891212463379,0.0021774470806121826,0.018375694751739502,0.018633008003234863,-0.016863921657204628,-0.006118015386164188,0.012215998023748398,-0.30779607455343416,0.21394238139941515,0.033831415349404974
0.10172486305236816,0.0023761391639709473,0.021248817443847656,0.016404569149017334,-0.020200064405798912,-0.00934576615691185,0.014588074758648872,-0.3079675444510196,0.2139211036836045,0.03401393110111971
0.11183905601501465,0.001090511679649353,0.020896315574645996,0.01623481512069702,-0.022063877433538437,-0.009754561819136143,0.009998863562941551,-0.30816128195614834,0.21387310532173884,0.03418842265386546
0.12304997444152832,-0.001402825117111206,0.01731148362159729,0.014641225337982178,-0.021203409880399704,-0.007661317475140095,0.009013227187097073,-0.3083684266079226,0.21382850356702843,0.03433132207378025
0.1318981647491455,-0.00201493501663208,0.01591917872428894,0.012343525886535645,-0.021714070811867714,-0.0041940584778785706,0.008376304991543293,-0.3085645788886396,0.21381118709128666,0.034464918111525564
0.14203715324401855,-0.0014214813709259033,0.01645791530609131,0.0112762451171875,-0.018663153052330017,-0.003076862543821335,0.007491337135434151,-0.30876784348814035,0.21381062586719662,0.03459252641698149
0.15205693244934082,-0.0015166997909545898,0.01637217402458191,0.011490225791931152,-0.012842249125242233,-0.0035960907116532326,0.006516194436699152,-0.30892190858653296,0.21380885542283912,0.034707911954907376
0.16213297843933105,-0.0026541054248809814,0.01686236262321472,0.010755538940429688,-0.008707690984010696,-0.002929234877228737,0.00832448061555624,-0.3090320211068758,0.21380895933078758,0.034806363365244425
0.1731112003326416,-0.003457307815551758,0.01981791853904724,0.00923466682434082,8.042389526963234e-05,-0.003763291984796524,0.005033345893025398,-0.30906894128817985,0.21380560136020013,0.03488778512011753
0.18197298049926758,-0.0015678554773330688,0.01904129981994629,0.010059893131256104,0.007897600531578064,-0.005750277079641819,0.003954765852540731,-0.3090352540762064,0.21377332043135872,0.03493193270096381
0.19219398498535156,0.0005348920822143555,0.021199733018875122,0.009329497814178467,0.009000198915600777,-0.01149937603622675,0.005109459161758423,-0.3096847545661473,0.2137887825321173,0.03499229240346215
0.2021028995513916,0.001072615385055542,0.020746618509292603,0.011053264141082764,0.005239549092948437,-0.014252019114792347,0.005228769034147263,-0.31019254078143255,0.2137217557201983,0.03504754476199238
0.2119739055633545,-3.167986869812012e-05,0.01387527585029602,0.0151786208152771,0.00461397273465991,-0.011409892700612545,0.0029275312554091215,-0.3106463809271172,0.21362825492358495,0.0350860782805027
0.2227489948272705,-0.0018430352210998535,0.01086398959159851,0.016171395778656006,-0.001687332522124052,-0.0020930906757712364,0.005859937518835068,-0.3111167552126559,0.2136070879287178,0.035135604819873774
0.23200201988220215,-0.0016947686672210693,0.013299375772476196,0.015039443969726562,-0.005719541572034359,-0.002864386886358261,0.004455280490219593,-0.3116199967691291,0.21363046226935895,0.03520746121724715
0.24195408821105957,0.001705765724182129,0.012340903282165527,0.016151905059814453,-0.007827699184417725,-0.0013887290842831135,0.000534308492206037,-0.3121300662733468,0.21363566150657487,0.03525060225777507
0.2519340515136719,0.002678617835044861,0.00914466381072998,0.0162162184715271,-0.013220001943409443,-0.002878235187381506,0.0015978150768205523,-0.3127308827570131,0.21363253415515412,0.0352819662538452
0.26214003562927246,0.005082234740257263,0.011704981327056885,0.01385122537612915,-0.014037592336535454,-0.004116871394217014,0.004115833900868893,-0.3133275939572763,0.21364942201584733,0.03535149433300428
0.27388906478881836,0.004461720585823059,0.012616872787475586,0.013473808765411377,-0.015359185636043549,-0.005131447687745094,0.0029942169785499573,-0.3139570537021859,0.21367182968871667,0.03543287913055215
0.282214879989624,0.004463210701942444,0.011865019798278809,0.010953724384307861,-0.01669103279709816,-0.006685934960842133,0.002779299858957529,-0.314603237945132,0.21369938950304201,0.03552898873290312
0.29265403747558594,0.0023825913667678833,0.012405693531036377,0.013243377208709717,-0.016932914033532143,-0.008320227265357971,0.0007214219076558948,-0.31510978775718745,0.21369177125366065,0.03560125777851291
0.3021981716156006,0.0006794482469558716,0.00975954532623291,0.016156494617462158,-0.012301144190132618,-0.0037483787164092064,0.0006069060182198882,-0.31553379497112427,0.21366621822696572,0.035657217773392764
0.3122870922088623,-0.0026914626359939575,0.008917808532714844,0.01224750280380249,-0.012796824797987938,0.0008229375816881657,-0.0028731529600918293,-0.3159858893191454,0.21368047497304402,0.035674686815324416
0.3239750862121582,-0.0025504231452941895,0.012619882822036743,0.009780943393707275,-0.008544289506971836,0.0024679722264409065,-0.0044899582862854,-0.3164094416607959,0.2137722519401123,0.035682914817295235
0.3322770595550537,-0.0015886873006820679,0.011087477207183838,0.00859522819519043,-0.007239973172545433,0.0044220220297575,-0.009698408655822277,-0.31673743017247485,0.21386084424717675,0.035653400369760835
0.3422679901123047,-0.0024148374795913696,0.008046090602874756,0.007784008979797363,-0.0074445041827857494,0.008787741884589195,-0.013439350761473179,-0.3171119458469846,0.21398847816971447,0.03557915147091489
0.352247953414917,-0.0026284009218215942,0.007619261741638184,0.007388591766357422,-0.007362312637269497,0.010372322052717209,-0.015471875667572021,-0.31751299259691784,0.2141320990622323,0.035485094765602396
0.3623201847076416,-0.00180874764919281,0.009206950664520264,0.0052155256271362305,0.0018413059879094362,0.013090611435472965,-0.01920509524643421,-0.31784949225988074,0.21425944674353575,0.03533657066957943
0.37381815910339355,-0.001363024115562439,0.010026156902313232,0.0010908842086791992,0.007685280404984951,0.014405147172510624,-0.017379604279994965,-0.3181276105208397,0.21439099596261918,0.03515346553779384
0.3823211193084717,0.0020906180143356323,0.015082567930221558,-0.0008678436279296875,0.013988183811306953,0.012236269190907478,-0.01374545507133007,-0.3183143452366174,0.21451393059412605,0.03498032274748618
0.3923189640045166,0.004168346524238586,0.01525089144706726,0.0017943382263183594,0.014154713600873947,0.004256861284375191,-0.016009779646992683,-0.31842628283910474,0.21453565975770114,0.03479032780759383
0.4024169445037842,0.0031073540449142456,0.009620338678359985,0.00713735818862915,0.017077267169952393,0.0037077174056321383,-0.014779134653508663,-0.3185870254948629,0.21450665294975074,0.034588241675357685
0.4123661518096924,0.0015084445476531982,0.009455204010009766,0.00581437349319458,0.01980702392756939,0.005787868518382311,-0.014938976615667343,-0.3186805874857372,0.21449341482787038,0.034389370254547885
0.42432713508605957,0.0016309916973114014,0.012989938259124756,0.002796649932861328,0.026829781010746956,0.005077071022242308,-0.014447890222072601,-0.3186700701837465,0.2144921414754093,0.034189844544277606
0.432326078414917,0.0014732778072357178,0.014065325260162354,0.007153570652008057,0.0275814738124609,0.004532231949269772,-0.015200180001556873,-0.318614229291446,0.2144607690787325,0.03396783625486226
0.44237589836120605,0.001936599612236023,0.009258478879928589,0.010492861270904541,0.025512464344501495,0.002543383277952671,-0.01840129867196083,-0.318598525756803,0.21442077862580286,0.033732437642961105
0.4525330066680908,0.00045259296894073486,0.0078355073928833,0.013020217418670654,0.02363721653819084,0.007885107770562172,-0.017545092850923538,-0.31858655114104034,0.21439121356401616,0.033488119201414944
0.4623391628265381,-0.0012487620115280151,0.007262587547302246,0.012205123901367188,0.02200549840927124,0.008943181484937668,-0.017948828637599945,-0.3186757082146998,0.21443874378887004,0.03326123758836207
0.4736289978027344,0.0015487372875213623,0.007558226585388184,0.01358795166015625,0.019693605601787567,0.008123194798827171,-0.0190079677850008,-0.31879822663090795,0.21450778870950302,0.033047048980226444
0.4824190139770508,0.0015656203031539917,0.005131751298904419,0.017168760299682617,0.01575532555580139,0.0077439602464437485,-0.019949927926063538,-0.31887890938663266,0.2145611733650121,0.032824492776947545
0.49245285987854004,-0.000830039381980896,0.005145460367202759,0.018878459930419922,0.009198355488479137,0.006669641472399235,-0.021850092336535454,-0.3190090715256082,0.21458702171037458,0.032585385891834254
0.5024170875549316,-0.0004657059907913208,0.0055051445960998535,0.01763051748275757,0.007136535830795765,0.009265424683690071,-0.02067750319838524,-0.31922485806537704,0.2146210371706501,0.032363028904475205
0.5129320621490479,-6.492435932159424e-05,0.006456732749938965,0.014134645462036133,0.009385093115270138,0.013238637708127499,-0.018259724602103233,-0.31947615885943975,0.21470057235245787,0.032155054373957166
0.5235490798950195,-0.0006560385227203369,0.010017633438110352,0.010395348072052002,0.01559984590858221,0.014675945974886417,-0.015863146632909775,-0.3195988417346294,0.2148202998762455,0.03196716172447285
0.532634973526001,0.0018740743398666382,0.013285279273986816,0.010466814041137695,0.02064625173807144,0.010866783559322357,-0.015876835212111473,-0.31964466089359667,0.2149253776640938,0.03177975684049307
0.5426959991455078,0.00285184383392334,0.011682331562042236,0.013226926326751709,0.016979079693555832,0.00793597474694252,-0.01634928025305271,-0.3196776557760144,0.21495937141121652,0.031575768194352795
0.5525450706481934,0.0013320446014404297,0.009774982929229736,0.013390779495239258,0.01389104500412941,0.004815548658370972,-0.015001348219811916,-0.3197580184190702,0.2150079759405667,0.03139921915322273
0.5625278949737549,0.0012345761060714722,0.007784336805343628,0.013837695121765137,0.008164183236658573,0.006845409981906414,-0.017070891335606575,-0.31986184593198597,0.21505476538675328,0.031219309948056953
0.5731310844421387,0.0005759000778198242,0.0071558356285095215,0.012165486812591553,0.009135437197983265,0.008165894076228142,-0.017077229917049408,-0.3200095297478953,0.21510111371241958,0.03103244373965634
0.5825240612030029,0.00022611021995544434,0.007212251424789429,0.011427998542785645,0.011026281863451004,0.013030157424509525,-0.017438620328903198,-0.3201269235364199,0.2151741666484161,0.030845682788725817
0.5926458835601807,-0.00015985965728759766,0.008686453104019165,0.009721040725708008,0.017144380137324333,0.014866718091070652,-0.014375612139701843,-0.3201974701432892,0.21528288730032485,0.030663675489254177
0.6025989055633545,0.0011121928691864014,0.009287923574447632,0.010120987892150879,0.018766244873404503,0.011953752487897873,-0.013906097039580345,-0.320271108620041,0.21538095247933006,0.03048466922979684
0.6130690574645996,0.0029380768537521362,0.007075518369674683,0.008447706699371338,0.01741369254887104,0.008208991959691048,-0.015168648213148117,-0.320399571521937,0.21546165611903428,0.030302913027961377
0.6230971813201904,0.0040104687213897705,0.00560876727104187,0.008154153823852539,0.01807921566069126,0.007396727800369263,-0.014786484651267529,-0.32051415545551415,0.21553122631404736,0.030118737114939467
0.6326360702514648,0.002643778920173645,0.004564732313156128,0.005223453044891357,0.020471949130296707,0.006221519783139229,-0.015063932165503502,-0.32058526354308897,0.2155786583942147,0.029936204957636155
0.6425931453704834,0.001262560486793518,0.007825285196304321,0.0026633739471435547,0.02366907335817814,0.004520292393863201,-0.016148105263710022,-0.3206063997517995,0.21560520398278055,0.029728446030596035
0.6529419422149658,0.0005037635564804077,0.008678168058395386,0.000385284423828125,0.02622787095606327,0.0028074358124285936,-0.019204668700695038,-0.32057596364615104,0.21559851030953922,0.02949698891751706
0.6626369953155518,-0.0005175918340682983,0.005693316459655762,-0.0002549290657043457,0.02568432129919529,0.005899099633097649,-0.023115521296858788,-0.3205375842367463,0.2155782042908015,0.029230534694193577
0.6746299266815186,-0.003636285662651062,0.007428646087646484,-0.002904176712036133,0.026095014065504074,0.005720667541027069,-0.02557223290205002,-0.32052591727569457,0.21556725510674293,0.028931350930805233
0.6827409267425537,-0.005333304405212402,0.007219910621643066,-0.005437731742858887,0.034407537430524826,0.007014697417616844,-0.029505988582968712,-0.3204886328040905,0.21555164348996692,0.02858803715169606
0.6928040981292725,-0.005998089909553528,0.0094718337059021,-0.00920647382736206,0.038979820907115936,0.006628450937569141,-0.03376337140798569,-0.32035064628607934,0.21553450273646851,0.028193993178159068
0.7027909755706787,-0.0030861645936965942,0.015684694051742554,-0.012380778789520264,0.04458151385188103,-0.002854266669601202,-0.04008917510509491,-0.32015506980684927,0.21545717933781908,0.027742020766207104
0.7129218578338623,-1.049041748046875e-05,0.01654064655303955,-0.011538326740264893,0.04866170883178711,-0.012337163090705872,-0.047529250383377075,-0.31989632740039875,0.21523162517090041,0.027188463199118093
0.7237999439239502,-0.0011848360300064087,0.01220586895942688,-0.012306511402130127,0.05139331519603729,-0.011633288115262985,-0.05754806101322174,-0.31967267758633866,0.21491865915905511,0.026544493530275687
0.7327558994293213,-0.004319936037063599,0.011534452438354492,-0.015180051326751709,0.06182674318552017,-0.009785587899386883,-0.0694175586104393,-0.3194155377421284,0.21457869779354224,0.025779276012706253
0.7427380084991455,-0.006934836506843567,0.012987881898880005,-0.01709204912185669,0.07359419018030167,-0.005218266509473324,-0.08238395303487778,-0.31902577999805853,0.21421134805588377,0.024854431992293355
0.7528090476989746,-0.006525680422782898,0.014341384172439575,-0.01928102970123291,0.08217186480760574,0.002793676685541868,-0.09820536524057388,-0.31859668592498347,0.2138383019514577,0.023741547514662193
0.7629380226135254,-0.008349552750587463,0.010804682970046997,-0.021478712558746338,0.08836398273706436,0.007360199000686407,-0.11030810326337814,-0.3180951030698487,0.2134658809774093,0.022458106958365448
0.7740190029144287,-0.005639314651489258,0.01327890157699585,-0.021023273468017578,0.10877574235200882,0.009421130642294884,-0.11687317490577698,-0.31751444515008426,0.21306922495733915,0.02106875465314487
0.783074140548706,-0.004882603883743286,0.0161418616771698,-0.0230867862701416,0.12007899582386017,0.015561847016215324,-0.13403378427028656,-0.3168298525188496,0.21268231652049108,0.019529673063944708
0.7943198680877686,-0.005412966012954712,0.018277406692504883,-0.027018427848815918,0.1337197721004486,0.01385644730180502,-0.13654765486717224,-0.31604385993579587,0.21232715866003238,0.017856996644859343
0.803631067276001,-0.004344552755355835,0.021335244178771973,-0.024212181568145752,0.15302157402038574,0.0138596436008811,-0.15924577414989471,-0.31507437849570813,0.21189744133940228,0.01603498208736477
0.8135669231414795,-0.005644455552101135,0.022825807332992554,-0.022809207439422607,0.1813252568244934,0.017329830676317215,-0.1878189742565155,-0.3139080562181061,0.2113759418139464,0.013874202516338566
0.8242850303649902,-0.008027508854866028,0.030900001525878906,-0.026195228099822998,0.23391389846801758,0.01020188070833683,-0.21419864892959595,-0.31241404011333646,0.21071747378856798,0.011334233948572916
0.8329930305480957,-0.009379014372825623,0.03841409087181091,-0.030057251453399658,0.2675110399723053,0.03811953216791153,-0.25471699237823486,-0.31054744302157633,0.21000844363389268,0.008328532146848974
0.8429419994354248,-0.018428638577461243,0.04322609305381775,-0.04654693603515625,0.32332688570022583,0.07298164069652557,-0.29237836599349976,-0.3082989426946211,0.20951270647815257,0.004880737845030985
0.8529188632965088,-0.02034156024456024,0.04613819718360901,-0.0714949369430542,0.41480886936187744,0.07852621376514435,-0.33869829773902893,-0.30542020378031687,0.20903040194317912,0.0008383465745463795
0.8629791736602783,-0.012351751327514648,0.06186512112617493,-0.09247267246246338,0.5431745648384094,0.09842561930418015,-0.36299484968185425,-0.30153988236838375,0.20850133626723089,-0.003797192435302828
0.8735380172729492,-0.004521861672401428,0.09840944409370422,-0.1383732557296753,0.700407087802887,0.11756709218025208,-0.3720565736293793,-0.2963192160912085,0.20809373300541573,-0.008945444416649373
0.8829450607299805,0.011164858937263489,0.135657399892807,-0.18333178758621216,0.8767725229263306,0.10541588068008423,-0.3741346299648285,-0.2893692062540574,0.2076347452406909,-0.014484219684229825
0.8930661678314209,0.03732505440711975,0.1711205244064331,-0.23086649179458618,1.1121865510940552,0.07609523832798004,-0.40870535373687744,-0.2804158772834495,0.20683265758721064,-0.020555765081762795
0.9029228687286377,0.06677760183811188,0.204628586769104,-0.2799222469329834,1.2735240459442139,0.008537759073078632,-0.4649827480316162,-0.2696032981595243,0.20538165682613072,-0.027583826303011465
0.9130260944366455,0.0955563634634018,0.22820249199867249,-0.2951963543891907,1.4721306562423706,-0.06529833376407623,-0.5660263299942017,-0.25722968798647994,0.2029469375678513,-0.03563973912297937
0.9232180118560791,0.11312440037727356,0.22137214243412018,-0.3182052969932556,1.6032150983810425,-0.12341916561126709,-0.6814682483673096,-0.24328559427453084,0.19969037250021582,-0.045179794127520975
0.9329359531402588,0.12458869814872742,0.21846866607666016,-0.30410659313201904,1.6588020324707031,-0.22358264029026031,-0.8050885200500488,-0.2285850261142187,0.19544053675833425,-0.05597112802191894
0.9430282115936279,0.13342511653900146,0.17032787203788757,-0.24545979499816895,1.6188926696777344,-0.3614363968372345,-0.9512547850608826,-0.2141949263702667,0.18986696125277355,-0.06802348357588521
0.9529969692230225,0.12448284029960632,0.10920184850692749,-0.18930965662002563,1.5626800060272217,-0.4110327363014221,-1.0688916444778442,-0.2004257721697047,0.18319586077448421,-0.08123799636083957
0.9631412029266357,0.10814328491687775,0.09901008009910583,-0.13366389274597168,1.4796210527420044,-0.49598732590675354,-1.149670958518982,-0.1874090222240739,0.17596466880914935,-0.09512528467529303
0.9736101627349854,0.09743420779705048,0.06497304141521454,-0.07546967267990112,1.3915517330169678,-0.5549370646476746,-1.258620262145996,-0.17527223216793392,0.16812744931331564,-0.10970249864971138
0.9829719066619873,0.09867125749588013,-0.0003101527690887451,-0.04473847150802612,1.3464587926864624,-0.608034074306488,-1.3790478706359863,-0.16385351848409274,0.15964354445110665,-0.12521725655345015
0.9931061267852783,0.10278679430484772,-0.025356128811836243,-0.05756431818008423,1.2535185813903809,-0.6315269470214844,-1.4453630447387695,-0.15327481932604506,0.1509213529342247,-0.14144186634477313
1.0031239986419678,0.10917925834655762,-0.024355530738830566,-0.08293575048446655,1.2514293193817139,-0.6523755192756653,-1.489701747894287,-0.14309892812475206,0.14205849231017342,-0.15799317102216748
1.0132629871368408,0.11766454577445984,-0.04534204304218292,-0.11512112617492676,1.3101251125335693,-0.6356182098388672,-1.5416967868804932,-0.13241371860994877,0.13325154980529247,-0.17492575589066428
1.0235941410064697,0.12984079122543335,-0.03332539647817612,-0.16807740926742554,1.3381881713867188,-0.6376363635063171,-1.5459750890731812,-0.12131489959137212,0.12473846729129785,-0.19213742242291848
1.0332181453704834,0.15384934842586517,-0.016030974686145782,-0.1854393482208252,1.3496826887130737,-0.6760631799697876,-1.548434853553772,-0.10981837562704988,0.1161836179134102,-0.2092316151882878
1.0434291362762451,0.16695663332939148,-0.04721923917531967,-0.17523193359375,1.4217662811279297,-0.6802182197570801,-1.5632034540176392,-0.09774397076134984,0.10759763687079879,-0.2263697210756807
1.0533220767974854,0.1581294983625412,-0.06042959541082382,-0.16076868772506714,1.477095127105713,-0.687421441078186,-1.5265381336212158,-0.08491505601556992,0.09919530307471666,-0.24334774019640176
1.0637550354003906,0.16185039281845093,-0.02964375913143158,-0.1441708207130432,1.5361261367797852,-0.7171886563301086,-1.4521251916885376,-0.07131481069053698,0.0908857083601181,-0.25968084905793654
1.073362112045288,0.17041480541229248,-0.018695302307605743,-0.1184588074684143,1.5093181133270264,-0.7541249990463257,-1.401932954788208,-0.057316061254523674,0.0825302591080711,-0.27526404792060355
1.0831429958343506,0.16721530258655548,-0.04887603968381882,-0.08329451084136963,1.5563055276870728,-0.8107326030731201,-1.3346660137176514,-0.043121491979145714,0.07393323696459725,-0.2901064561872902
1.0931851863861084,0.15885421633720398,-0.07311368733644485,-0.0723729133605957,1.5646367073059082,-0.8124057054519653,-1.2751755714416504,-0.02843969930526731,0.06527853588332329,-0.3042450429083727
1.103222131729126,0.1487157940864563,-0.03138238191604614,-0.08899867534637451,1.5848010778427124,-0.8324171900749207,-1.2125450372695923,-0.013484139538973924,0.05679471403903136,-0.31763586558969287
1.1133620738983154,0.1482696384191513,0.0017961792182177305,-0.10235726833343506,1.6520073413848877,-0.871257483959198,-1.1741764545440674,0.002116701242884733,0.04814491509693781,-0.33040235840992366
1.1242129802703857,0.14860036969184875,0.02536986768245697,-0.12588238716125488,1.6806589365005493,-0.8965966105461121,-1.144791603088379,0.018290894751190463,0.039404678673571045,-0.34270917238750825
1.1334609985351562,0.1376287341117859,0.05800255388021469,-0.12627029418945312,1.7910988330841064,-0.9341542720794678,-1.1282401084899902,0.03524381675493404,0.030546823431253953,-0.3546766553806736
1.1435589790344238,0.1146487295627594,0.06931786984205246,-0.1235649585723877,1.889538288116455,-0.9104582667350769,-1.1123309135437012,0.05339788433765868,0.021797615322756387,-0.3664100356908837
1.1534090042114258,0.09421103447675705,0.12269962579011917,-0.1525004506111145,1.9669746160507202,-0.8992016911506653,-1.0784028768539429,0.07253134753474377,0.013506139213998214,-0.37771943523906903
1.1633729934692383,0.09117404371500015,0.15591779351234436,-0.14315056800842285,2.061255931854248,-0.9315319061279297,-1.079160451889038,0.09257346915078078,0.005253486932535301,-0.3887179155601433
1.1744658946990967,0.08903653174638748,0.12879547476768494,-0.1160959005355835,2.108621120452881,-0.9655543565750122,-1.094773769378662,0.1134288890287479,-0.003119095516939366,-0.39971663367933724
1.1833570003509521,0.07957872748374939,0.13079315423965454,-0.09707951545715332,2.1545302867889404,-0.9766147136688232,-1.0826183557510376,0.1349561859042379,-0.011507356132995158,-0.41053237415060523
1.193598985671997,0.0709410160779953,0.14709614217281342,-0.0918189287185669,2.099874258041382,-0.9886788725852966,-1.0681689977645874,0.1563845871636545,-0.019807680137778578,-0.4210812872941151
1.2032721042633057,0.06588444113731384,0.12589357793331146,-0.06418490409851074,2.0759124755859375,-0.9967748522758484,-1.084343433380127,0.1775296502331941,-0.028060046174262044,-0.4314718130986138
1.21333909034729,0.06061650067567825,0.08458855748176575,-0.06716245412826538,1.9765076637268066,-0.9718119502067566,-1.092881202697754,0.19820374971986257,-0.035937045165626964,-0.4419331790912637
1.2236289978027344,0.06269344687461853,0.11336736381053925,-0.06293326616287231,1.8888801336288452,-0.9872918128967285,-1.0867966413497925,0.21796393375824888,-0.04359684469541546,-0.4522818613724935
1.233332872390747,0.0642688125371933,0.09948539733886719,-0.01713162660598755,1.8327045440673828,-0.9674046039581299,-1.1020959615707397,0.2370446088459938,-0.05108577881152695,-0.4626148872971368
1.2433550357818604,0.052665211260318756,0.050648391246795654,-0.009518861770629883,1.7784472703933716,-0.8851981163024902,-1.1019974946975708,0.255759197488807,-0.05784334841592842,-0.47297877984103126
1.2533559799194336,0.04695546627044678,0.0737333595752716,-0.030173659324645996,1.7122982740402222,-0.8123108744621277,-1.0755246877670288,0.27382844546028695,-0.06365050801807777,-0.48316001878719156
1.2635009288787842,0.056277140974998474,0.08278501033782959,-0.015419244766235352,1.6749924421310425,-0.7615388035774231,-1.0651487112045288,0.2914212827375855,-0.06874918682677689,-0.4930990666338297
1.2738549709320068,0.06171292066574097,0.03271874785423279,-0.0018739700317382812,1.6848740577697754,-0.7010509967803955,-1.05025315284729,0.30894162468817904,-0.07317402811913842,-0.5029364973941406
1.283470869064331,0.06350521743297577,0.043785154819488525,-0.005776405334472656,1.6494977474212646,-0.6442316770553589,-0.9872915148735046,0.32634133064287174,-0.07694605088859388,-0.5123572918248385
1.293609857559204,0.06958621740341187,0.07775306701660156,0.015561878681182861,1.6828533411026,-0.6133924722671509,-0.9145817160606384,0.3436961474890008,-0.08039690818408883,-0.521007884506854
1.303736925125122,0.06598913669586182,0.04548260569572449,0.03421550989151001,1.7831982374191284,-0.5497679114341736,-0.8541581034660339,0.3616815657485193,-0.0835227649376945,-0.5288998495399664
1.314527988433838,0.05389922857284546,0.05934399366378784,0.007597804069519043,1.8468247652053833,-0.48506516218185425,-0.7550173401832581,0.380468730444489,-0.08614391405349267,-0.5358978917062505
1.324524164199829,0.05239146202802658,0.10821524262428284,0.007276773452758789,1.976701021194458,-0.4664107859134674,-0.6479411721229553,0.4001337792568382,-0.08871129601132233,-0.5416330458455888
1.3336310386657715,0.051001302897930145,0.08045992255210876,0.01421666145324707,2.116604804992676,-0.43161237239837646,-0.581708550453186,0.42108707192224737,-0.09135455755102713,-0.54630429535779
1.343613862991333,0.037650249898433685,0.0617450475692749,-0.00040400028228759766,2.2815327644348145,-0.38001763820648193,-0.4788109362125397,0.443479710167438,-0.09390131083910974,-0.5499297570493527
1.3535590171813965,0.03550179302692413,0.09563112258911133,-0.022893548011779785,2.465125799179077,-0.33534955978393555,-0.34345853328704834,0.4674845016518036,-0.09658136796133532,-0.5519693178039355
1.3636949062347412,0.04479648172855377,0.11928051710128784,-0.06763553619384766,2.6320250034332275,-0.2934473752975464,-0.21941809356212616,0.49324073905313714,-0.0995641475205444,-0.5522912447216283
1.373831033706665,0.058444857597351074,0.1359679400920868,-0.11881482601165771,2.758455991744995,-0.30607765913009644,-0.09093824028968811,0.5202331391470356,-0.10318411225550712,-0.5509172945701415
1.38372802734375,0.0725708156824112,0.12936562299728394,-0.10793864727020264,2.8518946170806885,-0.37455180287361145,-0.00979891698807478,0.5482339396654183,-0.108074427638756,-0.5480239038188132
1.3958699703216553,0.06806226819753647,0.09092098474502563,-0.07615816593170166,2.9328489303588867,-0.3946611285209656,0.06979481875896454,0.5769803294385495,-0.11419145083773606,-0.5438737079763859
1.408174991607666,0.04733556509017944,0.09098482131958008,-0.08616828918457031,2.902942657470703,-0.3721688687801361,0.1520763784646988,0.6059722217695673,-0.1210774261563038,-0.538376416200194
1.4135429859161377,0.04068637639284134,0.11392742395401001,-0.1250714659690857,2.8181896209716797,-0.3750145435333252,0.22652195394039154,0.6341069500064884,-0.12868729709486468,-0.5316954755069163
1.4239470958709717,0.0450083464384079,0.09784448146820068,-0.14040040969848633,2.770752429962158,-0.3913285434246063,0.28276845812797546,0.6615095945202162,-0.13727785635711973,-0.5238391129736304
1.433643102645874,0.04836180806159973,0.08957064151763916,-0.17015212774276733,2.673652172088623,-0.4117414653301239,0.2976476848125458,0.6881021536569996,-0.14667177342058585,-0.5152042738799486
1.4437291622161865,0.05198853462934494,0.0897642970085144,-0.1969285011291504,2.5986855030059814,-0.4552133083343506,0.3262236714363098,0.713692212595831,-0.15693766782244745,-0.5060012688298192
1.4536550045013428,0.06053104251623154,0.07658058404922485,-0.20745158195495605,2.5341310501098633,-0.5032695531845093,0.3804665505886078,0.73846478547393,-0.1685283659564294,-0.49577627263717194
1.4635560512542725,0.06792770326137543,0.08702528476715088,-0.2000250220298767,2.522878885269165,-0.5524967312812805,0.4533945620059967,0.7626585996842029,-0.18175528523853715,-0.4841412846033315
1.474057912826538,0.07642365992069244,0.0888972282409668,-0.19415616989135742,2.5010788440704346,-0.5954907536506653,0.5487747192382812,0.7864132448255472,-0.19696650390971715,-0.4706283277375362
1.4836771488189697,0.08810900151729584,0.08784842491149902,-0.18723022937774658,2.5055203437805176,-0.6430380344390869,0.6559504270553589,0.809697905150099,-0.214473042675503,-0.4548236538738758
1.4937751293182373,0.10427394509315491,0.07755506038665771,-0.17149746417999268,2.5045220851898193,-0.6745049357414246,0.7651570439338684,0.8325488876347368,-0.23453606233120278,-0.43645895782089894
1.5039420127868652,0.11195947229862213,0.065396249294281,-0.15821343660354614,2.5617079734802246,-0.6770216226577759,0.8953648209571838,0.8551219791083264,-0.25730417570192504,-0.41506976461835576
1.513913869857788,0.11689373850822449,0.05045366287231445,-0.16663402318954468,2.6225709915161133,-0.6459397673606873,1.0254279375076294,0.877546082614034,-0.282980925161008,-0.39008417293453085
1.524595022201538,0.12504778802394867,0.04575061798095703,-0.18260198831558228,2.711845874786377,-0.6144407391548157,1.1667020320892334,0.8998820860868031,-0.3118266756580665,-0.361045622791401
1.5338571071624756,0.13945625722408295,0.05047142505645752,-0.1943047046661377,2.762526512145996,-0.5919138789176941,1.3118860721588135,0.9218444481187025,-0.34439693027772134,-0.3274584678091817
1.5438799858093262,0.1508318930864334,0.049972712993621826,-0.18217742443084717,2.8085825443267822,-0.5645842552185059,1.4582775831222534,0.9429522067904642,-0.3809788570114939,-0.28911911278263114
1.5537989139556885,0.14984945952892303,0.04147535562515259,-0.15876823663711548,2.924105644226074,-0.5334517955780029,1.6105841398239136,0.9634029368582004,-0.42219563393701515,-0.2453160258613968
1.5637528896331787,0.1458664834499359,0.051855623722076416,-0.1616835594177246,2.9684417247772217,-0.4820202887058258,1.7545149326324463,0.9827707707652228,-0.4683111986279637,-0.19569098671911656
1.5741169452667236,0.14286845922470093,0.06967532634735107,-0.14465492963790894,3.019551992416382,-0.4473390579223633,1.8945562839508057,1.0004972399290208,-0.5192674136162464,-0.1403642690469612
1.5837640762329102,0.14704963564872742,0.0790320634841919,-0.11468148231506348,3.0456113815307617,-0.42936617136001587,2.035433292388916,1.016212362826545,-0.5754141229251505,-0.07918061326534237
1.5937390327453613,0.15342384576797485,0.09336358308792114,-0.0791400671005249,3.1039927005767822,-0.42889517545700073,2.1507534980773926,1.0295178138594667,-0.6366344204871738,-0.012495549647620202
1.6038339138031006,0.15468579530715942,0.0902787446975708,-0.0630347728729248,3.168924570083618,-0.40927302837371826,2.2454731464385986,1.0405421766437282,-0.7028394582703751,0.05959662443354734
1.6140379905700684,0.15429887175559998,0.09962987899780273,-0.0821150541305542,3.091142177581787,-0.39831259846687317,2.3315157890319824,1.0483736596456754,-0.772458879553274,0.13543600989212928
1.6240260601043701,0.1566789150238037,0.1005668044090271,-0.07081440091133118,2.9485979080200195,-0.39662548899650574,2.416882276535034,1.0520980651535632,-0.8432360367437555,0.21242943611343917
1.6339330673217773,0.16369256377220154,0.08247894048690796,-0.048468321561813354,2.7339494228363037,-0.4024982452392578,2.488690137863159,1.0513782945524563,-0.9131045547806124,0.2882757593854643
1.6442410945892334,0.16283416748046875,0.09887772798538208,-0.026580333709716797,2.5139477252960205,-0.40590232610702515,2.5300395488739014,1.046349905769189,-0.9798262712769541,0.3605627687163122
1.6541130542755127,0.1527787744998932,0.1113315224647522,-0.0045204758644104,2.221543550491333,-0.39603668451309204,2.5413997173309326,1.0374342269408732,-1.0413491454656272,0.42716557907539365
1.6648170948028564,0.14360928535461426,0.11059755086898804,0.025811821222305298,1.9805270433425903,-0.39273807406425476,2.544079542160034,1.0251932237086958,-1.0964887736040518,0.4868181499754185
1.6761729717254639,0.13612604141235352,0.11140638589859009,0.0347476601600647,1.7171845436096191,-0.3770908713340759,2.527989387512207,1.0103486486332618,-1.1452813463877212,0.5396201877714709
1.6839311122894287,0.12729567289352417,0.13264882564544678,0.043669894337654114,1.4587905406951904,-0.35500288009643555,2.4844563007354736,0.9935263860812384,-1.187216922961984,0.5850490002507555
1.6940429210662842,0.12917965650558472,0.15391016006469727,0.06564098596572876,1.19778573513031,-0.3458046615123749,2.442852258682251,0.9752278680615896,-1.2226651736459178,0.6233982992104133
1.7038581371307373,0.1409662365913391,0.17414098978042603,0.08998757600784302,1.007047176361084,-0.34894105792045593,2.398411512374878,0.9558871490079875,-1.252559430373943,0.655528308427976
1.7138910293579102,0.14569538831710815,0.1999051570892334,0.09601528942584991,0.9040058851242065,-0.355228066444397,2.3611984252929688,0.9360741179751139,-1.2787436813643185,0.6834760640559977
1.7240588665008545,0.135814368724823,0.20565515756607056,0.06701947748661041,0.7311388254165649,-0.36417415738105774,2.323702573776245,0.9157866642973493,-1.3014292624016275,0.7073463916324976
1.7339890003204346,0.13326114416122437,0.16111230850219727,0.08716852962970734,0.5517668128013611,-0.3639969527721405,2.259920120239258,0.895265003581335,-1.3204952239422714,0.7269532172280916
1.7440810203552246,0.13693827390670776,0.1050371527671814,0.1113274097442627,0.4104590117931366,-0.35953906178474426,2.2231874465942383,0.8746424762958699,-1.3363244087073334,0.7427300710216671
1.753986120223999,0.13262981176376343,0.12811601161956787,0.12379622459411621,0.3421708643436432,-0.34097906947135925,2.228358030319214,0.8537834674467324,-1.3499439242310851,0.7560317654699005
1.764125108718872,0.12322419881820679,0.15303051471710205,0.11457259953022003,0.3295131325721741,-0.2896769940853119,2.2364730834960938,0.8326475749584139,-1.3621070825811268,0.7680879949661136
1.774061918258667,0.11569178104400635,0.1333262324333191,0.08603841066360474,0.3463289141654968,-0.2282487154006958,2.2390151023864746,0.8113902612115451,-1.3730917139002006,0.7795737208464778
1.783972978591919,0.12237739562988281,0.12198883295059204,0.0470125675201416,0.43583133816719055,-0.18734362721443176,2.2548325061798096,0.7900420699820948,-1.3834481401657344,0.7911498457976499
1.79398512840271,0.1395137906074524,0.1263134479522705,0.012953445315361023,0.547351062297821,-0.174129918217659,2.262586832046509,0.7686863944929697,-1.3940741306295727,0.8037382654144649
1.803912878036499,0.15505236387252808,0.12382155656814575,0.004701562225818634,0.6884847283363342,-0.17437279224395752,2.2574033737182617,0.7474354799682553,-1.4051612022095457,0.8173461180763791
1.8140208721160889,0.15934789180755615,0.09419018030166626,0.03717857599258423,0.8127347826957703,-0.15173645317554474,2.2507636547088623,0.7263584402431731,-1.416834290500944,0.8322947357549839
1.8250930309295654,0.15197968482971191,0.06891030073165894,0.06755632907152176,0.8808342218399048,-0.10941271483898163,2.253699779510498,0.7053116361300585,-1.4283225767787426,0.8478115844282654
1.834057092666626,0.1434841752052307,0.055352091789245605,0.10531824827194214,0.933854341506958,-0.05470472574234009,2.2705531120300293,0.6841272527444269,-1.4392032927128928,0.863553997574362
1.844120979309082,0.1381625533103943,0.026532471179962158,0.11825108528137207,0.9291908740997314,-0.010775618255138397,2.3010244369506836,0.662602456165015,-1.4491899370081862,0.8790907673705269
1.8542201519012451,0.13787102699279785,-0.003134012222290039,0.12338422983884811,0.9229723215103149,0.006296309642493725,2.3162806034088135,0.6407194380996611,-1.4582379459051678,0.8940264907609322
1.8658502101898193,0.14342767000198364,-0.05482923984527588,0.12337338179349899,0.922360897064209,0.02459409087896347,2.323253631591797,0.6186318673781683,-1.4665740596431724,0.9084802414271399
1.8752620220184326,0.15281367301940918,-0.08348393440246582,0.11706310510635376,0.9081993699073792,0.05826270580291748,2.360851287841797,0.5962588134367481,-1.474073320554337,0.9224244622153518
1.884263038635254,0.16658419370651245,-0.07045036554336548,0.09763027727603912,0.8824040293693542,0.0580669641494751,2.447538375854492,0.5731500744310445,-1.4807907616433742,0.9357538552705372
1.8948171138763428,0.18033629655838013,-0.08984851837158203,0.07505559921264648,0.8700832724571228,0.07649523764848709,2.514188289642334,0.5491564106614015,-1.4869440132617686,0.9486105745386403
1.9040749073028564,0.18761688470840454,-0.14684075117111206,0.050440602004528046,0.8089656233787537,0.12436874955892563,2.586310625076294,0.524438481020842,-1.492082769104331,0.960763535570616
1.9140009880065918,0.2018277645111084,-0.15408587455749512,0.022986888885498047,0.7957649827003479,0.12694469094276428,2.6992104053497314,0.49868238053792413,-1.4963029770457732,0.9721375898504511
1.924194097518921,0.23582547903060913,-0.13983756303787231,0.013121724128723145,0.8551772236824036,0.10398665070533752,2.795571804046631,0.47185348098376517,-1.5003832504915136,0.9836195564716781
1.9341909885406494,0.26819097995758057,-0.118223637342453,0.007407426834106445,0.9882282018661499,0.05729375779628754,2.890198230743408,0.444131349501377,-1.5048040590997604,0.9959175644832652
1.9441869258880615,0.2938556671142578,-0.07948198914527893,0.002154231071472168,1.1463505029678345,-0.027560148388147354,2.9738149642944336,0.41556045826548765,-1.5101806577592154,1.0095897695791964
1.9544579982757568,0.29774999618530273,-0.08409985899925232,-0.011424422264099121,1.272648572921753,-0.07382999360561371,3.0365288257598877,0.3862480302596558,-1.5164720572270751,1.024585946023589
1.9644529819488525,0.2926979660987854,-0.11294075846672058,-0.03242611885070801,1.3581397533416748,-0.08541980385780334,3.112722158432007,0.3562310272436871,-1.52296219909428,1.0403871408676255
1.974980115890503,0.3020022511482239,-0.10555744171142578,-0.03745490312576294,1.3984978199005127,-0.14072614908218384,3.179189443588257,0.32538587279783954,-1.5294242024584175,1.0565411652463501
1.9843699932098389,0.3230128884315491,-0.0816461443901062,-0.04629969969391823,1.3420915603637695,-0.21511968970298767,3.2329461574554443,0.2938409574123638,-1.5359604778013038,1.0722791259838262
1.994168996810913,0.3278577923774719,-0.08301088213920593,-0.05194658413529396,1.1857088804244995,-0.2587527334690094,3.3046207427978516,0.2615440133381129,-1.542270709723976,1.0865613915887111
2.004338026046753,0.31823402643203735,-0.10787104070186615,-0.04960775375366211,0.983410120010376,-0.26978060603141785,3.3652477264404297,0.22843041917500936,-1.5478610821296683,1.098674836235041
2.014451026916504,0.3108982443809509,-0.14089824259281158,-0.040538907051086426,0.6889468431472778,-0.2688797414302826,3.4102518558502197,0.194695289583308,-1.5524860701933725,1.107948962201819
2.0245790481567383,0.31300467252731323,-0.16986167430877686,-0.0122756976634264,0.43512043356895447,-0.2954402565956116,3.43936824798584,0.16049256215890897,-1.5563971992826109,1.1142164460208064
2.0344998836517334,0.3210315704345703,-0.18934297561645508,0.006851315498352051,0.1401817798614502,-0.3325066566467285,3.4788143634796143,0.12594636552962457,-1.5600141543610329,1.1176074425000821
2.0450589656829834,0.32831186056137085,-0.14381760358810425,0.007021368946880102,-0.0418119952082634,-0.3760501444339752,3.5378618240356445,0.09081949102519854,-1.5636538486625775,1.1182735793362253
2.054525136947632,0.3304094672203064,-0.11599937081336975,-0.013319909572601318,-0.10423392802476883,-0.3523162305355072,3.5756916999816895,0.05521702120838759,-1.5672651250941627,1.1176830697719509
2.0660440921783447,0.3164234757423401,-0.08808013051748276,-0.034979403018951416,0.09823155403137207,-0.336641401052475,3.6631901264190674,0.019037715750669936,-1.570680457905975,1.1173844779926505
2.077249050140381,0.32289695739746094,-0.0402076430618763,-0.04909026622772217,0.41648226976394653,-0.2707718014717102,3.662015438079834,-0.017747646946056378,-1.5738664795081383,1.1203205736677977
2.0846378803253174,0.33653920888900757,0.0229816734790802,-0.06876862049102783,0.4501795172691345,-0.25337791442871094,3.709670305252075,-0.05459060303480438,-1.5761574097343738,1.124445965515024
2.094506025314331,0.336808443069458,0.03208734840154648,-0.03483295440673828,0.38282474875450134,-0.21934999525547028,3.709019899368286,-0.09182092166442851,-1.5783173016101033,1.1285534466880882
2.10453200340271,0.2600099444389343,-0.1529977172613144,-0.008153796195983887,0.34558817744255066,-0.0869501456618309,3.6945908069610596,-0.12887908650435784,-1.5795261461907992,1.1318213365291583
2.1142618656158447,0.21757280826568604,-0.18056000769138336,0.010360956192016602,0.3412434458732605,0.06742526590824127,3.6929397583007812,-0.16590868783026436,-1.5791506193438236,1.1350009248693518
2.124422073364258,0.27306270599365234,-0.029720544815063477,0.01090693473815918,0.4005720317363739,0.10944222658872604,3.694469451904297,-0.20287755371395855,-1.5775760797272502,1.1385987826873702
2.134296178817749,0.3222227692604065,0.039972081780433655,-0.010442733764648438,0.2513434886932373,0.15493324398994446,3.772819757461548,-0.24030333199470835,-1.5754523605209585,1.1418138445644095
2.144057035446167,0.3434401750564575,0.030881136655807495,-0.029848933219909668,-0.1186462864279747,0.15128470957279205,3.6832034587860107,-0.2777133025396071,-1.5738137997600894,1.1425203946490927
2.154029130935669,0.28347134590148926,-0.07791668176651001,0.02121591567993164,-0.4733099639415741,0.17674310505390167,3.6904594898223877,-0.3144898866703845,-1.5730843498428113,1.1392120956905352
2.1640350818634033,0.23297017812728882,-0.1376207172870636,0.08283102512359619,-0.5822969079017639,0.17548182606697083,3.7642765045166016,-0.3518029823851615,-1.5732277481786214,1.133428814608649
2.1741249561309814,0.24270731210708618,-0.0733003318309784,0.12387597560882568,-0.6879720091819763,0.2317693829536438,3.804974317550659,-0.38969942154132814,-1.5737270017202536,1.1265191991712609
2.1840670108795166,0.2598625421524048,-0.014555186033248901,0.12146997451782227,-0.8178181648254395,0.26082101464271545,3.8412580490112305,-0.42791669552909795,-1.5745252549229485,1.1181483989199985
2.1940560340881348,0.27815765142440796,-0.06534940004348755,0.10578370094299316,-0.8198255896568298,0.16256088018417358,3.922543525695801,-0.4667061081104682,-1.5764237963199141,1.1087419606004267
2.204456090927124,0.3232438564300537,-0.0700846016407013,0.09711658954620361,-0.6992852687835693,0.044981785118579865,3.9876439571380615,-0.5062952174773453,-1.579578987973462,1.0997749799640784
2.215344190597534,0.3457513451576233,-0.02759450674057007,0.08875572681427002,-0.565656840801239,0.020564328879117966,4.009946346282959,-0.5462384909138033,-1.5832486291899308,1.0919806119956206
2.225131034851074,0.32116174697875977,-0.03670632839202881,0.07425987720489502,-0.49857157468795776,0.08148147910833359,4.090013027191162,-0.5866782332456041,-1.5864500619493684,1.0850570700653301
2.2345550060272217,0.3224772810935974,-0.04689669609069824,0.07802367210388184,-0.49783244729042053,0.11095067858695984,4.165226936340332,-0.6279473491053936,-1.5893823625565033,1.0781732683098086
2.244575023651123,0.3569621443748474,-0.039646029472351074,0.11453390121459961,-0.5386896133422852,0.0949980840086937,4.199038982391357,-0.6697332401426693,-1.5928673882962912,1.0706350974978227
2.254533052444458,0.39293593168258667,-0.018263816833496094,0.16189754009246826,-0.5642597675323486,0.01920953392982483,4.181067943572998,-0.7115575172772944,-1.5976943369785943,1.0621609484492613
2.264435052871704,0.40307116508483887,-0.009400725364685059,0.16273999214172363,-0.6143556833267212,-0.023851916193962097,4.148262023925781,-0.7530533019145399,-1.604194879111714,1.0525094935000376
2.274286985397339,0.40127837657928467,0.011200010776519775,0.13162624835968018,-0.6157688498497009,-0.05187733471393585,4.1108222007751465,-0.7941555332010307,-1.612101373074296,1.0417078773494208
2.2841780185699463,0.42938947677612305,0.07099717855453491,0.07908987998962402,-0.5382538437843323,-0.14513032138347626,4.0392327308654785,-0.8346707102253969,-1.6211732002487271,1.0305238151118599
2.294312000274658,0.4689139127731323,0.13390839099884033,0.041673898696899414,-0.4069223701953888,-0.26626864075660706,3.9221301078796387,-0.8742015058936937,-1.6312361469479475,1.0199343177906508
2.3042008876800537,0.475134015083313,0.18865865468978882,0.027821656316518784,-0.2858428359031677,-0.35420462489128113,3.781010389328003,-0.9124936177536989,-1.6417575073225412,1.0104621159926808
2.314286947250366,0.4319830536842346,0.22060245275497437,0.03917276859283447,-0.2756296992301941,-0.35321706533432007,3.5824055671691895,-0.949071734437259,-1.6527775028229692,1.001197294118931
2.324547052383423,0.3668699264526367,0.216552734375,0.08190739154815674,-0.3783419728279114,-0.36848363280296326,3.3317816257476807,-0.9833093944191085,-1.665421912716255,0.9901497358152133
2.3346898555755615,0.3170018196105957,0.21039730310440063,0.13688349723815918,-0.5313469767570496,-0.4428071677684784,3.0326311588287354,-1.0145326576818152,-1.6815645376231345,0.9757996571155492
2.3466689586639404,0.2601044178009033,0.22267037630081177,0.1746894121170044,-0.6669615507125854,-0.4527548551559448,2.7626888751983643,-1.0425840185885544,-1.7018591883965302,0.9574165753973192
2.354560136795044,0.19881382584571838,0.2720544934272766,0.16481268405914307,-0.7153761386871338,-0.4091816544532776,2.489863872528076,-1.0676348307643313,-1.7249708195696973,0.9358212270875521
2.3645310401916504,0.15953558683395386,0.3246228098869324,0.13231372833251953,-0.7088345885276794,-0.3798525035381317,2.186279058456421,-1.0895559713573773,-1.7492814230733333,0.9126980171965231
2.3745670318603516,0.14086639881134033,0.3520556092262268,0.12276005744934082,-0.6893773674964905,-0.35640180110931396,1.8833836317062378,-1.108224484999934,-1.7739936762122777,0.8890872840971386
2.384582996368408,0.11551100015640259,0.34133923053741455,0.124666228890419,-0.6453073620796204,-0.3192850649356842,1.5952178239822388,-1.1237976190050514,-1.7983886616698586,0.8657252219678605
2.3946080207824707,0.08887308835983276,0.3129692077636719,0.12551021575927734,-0.5823997855186462,-0.24863873422145844,1.3124713897705078,-1.13647042462132,-1.8212000817571783,0.8436529460583158
2.4046008586883545,0.07704034447669983,0.2667683959007263,0.12747645378112793,-0.5192482471466064,-0.20266138017177582,1.097807765007019,-1.1466566100443056,-1.8418286339688417,0.8234152682489527
2.4146969318389893,0.07761254906654358,0.1945418119430542,0.12658990919589996,-0.4697999358177185,-0.18388104438781738,0.9388288259506226,-1.155056914789419,-1.8606888732285267,0.8048726613914603
2.424690008163452,0.06961753964424133,0.11730444431304932,0.12507939338684082,-0.4290889799594879,-0.18071161210536957,0.8637902736663818,-1.1622876669558049,-1.8784187269098271,0.7875037852562751
2.434614896774292,0.03462338447570801,0.044044435024261475,0.11276184022426605,-0.3478480875492096,-0.12681247293949127,0.8910859823226929,-1.1693424655297198,-1.8950539902588368,0.7711485883724489
2.4446451663970947,0.005211561918258667,0.012265324592590332,0.0868014246225357,-0.1882496476173401,-0.04016013815999031,0.9972526431083679,-1.1773725837307718,-1.909320876280683,0.7565528508626704
2.454742193222046,0.0158136785030365,0.02370089292526245,0.0573868602514267,0.014412924647331238,-0.02050507813692093,1.1208539009094238,-1.1870603876445582,-1.920310847971779,0.7449715979000374
2.46471905708313,0.03556317090988159,0.017235636711120605,0.03394380211830139,0.2022443413734436,0.015195129439234734,1.2606559991836548,-1.1986270770986984,-1.928165551693977,0.7365888677251544
2.47507905960083,0.05061155557632446,0.02077007293701172,0.01111362874507904,0.3387048840522766,0.07048177719116211,1.3708008527755737,-1.2119615990750547,-1.9331195641062473,0.7308132476901583
2.484675168991089,0.07759445905685425,0.014757871627807617,0.00027035921812057495,0.3833352029323578,0.07253187894821167,1.43338942527771,-1.226405771885045,-1.9366315746137324,0.7262744748650167
2.4947478771209717,0.10700884461402893,-0.019063591957092285,0.009929046034812927,0.37229302525520325,0.0429692342877388,1.4592657089233398,-1.2412913492217983,-1.9408957070556576,0.7211377946071444
2.5047152042388916,0.11932611465454102,-0.03451275825500488,0.029832229018211365,0.3703116476535797,0.030833743512630463,1.4343111515045166,-1.2561619304370717,-1.9460311539042126,0.7153437294875418
2.51493501663208,0.10800206661224365,-0.021385669708251953,0.03557049483060837,0.3376205563545227,0.021616943180561066,1.3914234638214111,-1.2706201636971826,-1.9517454133181769,0.7090491106413812
2.5250470638275146,0.0761246383190155,-0.02986055612564087,0.03733491897583008,0.28935661911964417,0.012979245744645596,1.3421679735183716,-1.2844722741491257,-1.9590003313042448,0.7013263809757704
2.5349929332733154,0.03315560519695282,-0.03460991382598877,0.05302274227142334,0.30361753702163696,0.07060974091291428,1.29729163646698,-1.2978088693873053,-1.9667706282936448,0.6928418259886298
2.546375036239624,0.02631780505180359,0.022742509841918945,0.04225562512874603,0.37222349643707275,0.10330217331647873,1.2488071918487549,-1.3108674624365422,-1.9726385446316306,0.6857976473242188
2.5565378665924072,0.058210521936416626,0.0846828818321228,0.023537173867225647,0.43272536993026733,0.0950046107172966,1.1896040439605713,-1.323685226066132,-1.9757423417043805,0.6815648663796616
2.564866065979004,0.0755213052034378,0.1028670072555542,0.021677516400814056,0.4758983850479126,0.10355202108621597,1.1191967725753784,-1.336111928352781,-1.9763457445498063,0.6799304085276311
2.5749709606170654,0.06172744929790497,0.07963395118713379,0.03538012504577637,0.5312025547027588,0.1562478095293045,1.0304481983184814,-1.3479949934990394,-1.9733594052368189,0.6816988707114076
2.5848770141601562,0.04503759741783142,0.054816603660583496,0.052240483462810516,0.577577531337738,0.2308749109506607,0.9459896087646484,-1.3592856478329731,-1.9654839285669359,0.6877697718483707
2.595215082168579,0.05470304191112518,0.03649604320526123,0.06353521347045898,0.5533369183540344,0.2801111042499542,0.8672402501106262,-1.3698419614659012,-1.9540957463916102,0.6967625729709588
2.608492136001587,0.07646654546260834,-0.007276058197021484,0.0818401500582695,0.462171345949173,0.27655500173568726,0.8088837265968323,-1.3795241348477723,-1.9428814816358986,0.7053445792953296
2.6162779331207275,0.08437669277191162,-0.06613236665725708,0.10232806205749512,0.3492850065231323,0.2812628149986267,0.7849820256233215,-1.3884136476195417,-1.9352530379376747,0.7102991227255537
2.6249279975891113,0.06807756423950195,-0.10787373781204224,0.10499618947505951,0.24412289261817932,0.33474573493003845,0.8090090751647949,-1.3969001602908424,-1.9324484501194814,0.7100413686235666
2.6349189281463623,0.060686662793159485,-0.12460517883300781,0.08993303030729294,0.12635795772075653,0.35729050636291504,0.8769230246543884,-1.4054432183419017,-1.9361602699867715,0.7027213555826484
2.6449458599090576,0.0786571204662323,-0.131264328956604,0.08532631397247314,-0.01187021192163229,0.3102015554904938,0.9641450047492981,-1.4142428681629486,-1.9500578282473298,0.6852271762905251
2.6574418544769287,0.0888134241104126,-0.1420232057571411,0.08849847316741943,-0.14713148772716522,0.25605514645576477,1.0702791213989258,-1.4233207566393127,-1.9774699253320362,0.6546476770355389
2.66497802734375,0.07122843712568283,-0.13585591316223145,0.07333004474639893,-0.299995094537735,0.2290986329317093,1.1998066902160645,-1.4327396054141894,-2.0218213360502,0.6073897653691555
2.6750528812408447,0.04830358922481537,-0.11650043725967407,0.05306922644376755,-0.4753759205341339,0.19733674824237823,1.3169775009155273,-1.4420929513155043,-2.089099541867465,0.5373422374663068
2.6849420070648193,0.03672001510858536,-0.0919642448425293,0.037643902003765106,-0.6344619393348694,0.1524297297000885,1.422289490699768,-1.4507007033917665,-2.1839144969129314,0.4400246879035187
2.6950440406799316,0.045967333018779755,-0.03523474931716919,0.03406083583831787,-0.7765809893608093,0.11169548332691193,1.4797228574752808,-1.4576750939400194,-2.30726097164356,0.3145143928066877
2.7065489292144775,0.05143094062805176,0.005533933639526367,0.025614246726036072,-0.91543048620224,0.0740908533334732,1.4987945556640625,-1.4618298032555241,-2.4559491774004543,0.16397542894698938
2.7151730060577393,0.05120592191815376,0.03511136770248413,0.019360534846782684,-1.0140807628631592,0.031914498656988144,1.4750953912734985,-1.462339156249894,-2.618493686004984,-5.9276200369433325e-05
2.725416898727417,0.044517919421195984,0.07271510362625122,0.009336471557617188,-1.0754482746124268,0.0026588758919388056,1.4311593770980835,-1.459089843014094,-2.778082464318937,-0.16076407603869497
2.735224962234497,0.03066563606262207,0.12018144130706787,-0.007912419736385345,-1.0496644973754883,0.02184131368994713,1.3820040225982666,-1.4528613497726937,-2.921865300497586,-0.30559197653807796
2.744976043701172,0.027297116816043854,0.17494118213653564,-0.03577767312526703,-0.9764992594718933,0.02961321733891964,1.3159974813461304,-1.4449895938145252,-3.0436699876543516,-0.4286057502552023
2.756696939468384,0.04020096734166145,0.21434283256530762,-0.05539131164550781,-0.8864840269088745,-0.008780288510024548,1.2232377529144287,-1.43626306119706,3.139045626494786,-0.5300115356095991
2.765105962753296,0.03317383676767349,0.22052592039108276,-0.03790688514709473,-0.772428035736084,0.02787652611732483,1.1467514038085938,-1.4274256972380273,3.057025569093706,-0.6128902384086958
2.7751500606536865,0.008497104048728943,0.22835808992385864,-0.03975139558315277,-0.6329749822616577,0.07812647521495819,1.0843830108642578,-1.4190926251179665,2.9885176844556467,-0.6826990872994961
2.7851500511169434,0.007758833467960358,0.2295430302619934,-0.05092976987361908,-0.47392168641090393,0.0927051454782486,1.0141069889068604,-1.4117316181690576,2.9298598677102823,-0.7429537151008901
2.795124053955078,0.019243542104959488,0.22494852542877197,-0.06916128098964691,-0.306458979845047,0.10215017944574356,0.9591736793518066,-1.405597500241539,2.8778247033813376,-0.7966607022476246
2.806563138961792,0.01902191713452339,0.22714745998382568,-0.07915543019771576,-0.17470204830169678,0.1280592679977417,0.9209749102592468,-1.4006503142486477,2.829684750118321,-0.8466569980297286
2.8151960372924805,0.0144566111266613,0.2116008996963501,-0.0675116777420044,-0.11017226427793503,0.12092391401529312,0.8924179673194885,-1.396364950228033,2.7843218525860096,-0.8939908152033254
2.8251311779022217,0.023552238941192627,0.18279051780700684,-0.04347407817840576,-0.08804565668106079,0.09699487686157227,0.8661874532699585,-1.3922037736364226,2.7416068432262826,-0.9384786631739463
2.8352081775665283,0.02634565532207489,0.1607365608215332,-0.031025663018226624,-0.09181526303291321,0.06924855709075928,0.8446936011314392,-1.3879020868704979,2.7016400822510622,-0.9799578904743219
2.8452298641204834,0.019205205142498016,0.14247292280197144,-0.032912030816078186,-0.1149916872382164,0.05215372517704964,0.836861252784729,-1.3832563034955772,2.664445671181439,-1.0184125507341732
2.8572471141815186,0.006549470126628876,0.1322750449180603,-0.03337596356868744,-0.13285569846630096,0.030095204710960388,0.8318907618522644,-1.3781954647387658,2.6296831942801875,-1.0542502454688514
2.865393877029419,-0.003500737249851227,0.12635934352874756,-0.03994619846343994,-0.15565156936645508,-0.018188435584306717,0.8318535089492798,-1.3727459963891113,2.5970850880117946,-1.0875572610988005
2.8752329349517822,-0.009928926825523376,0.1317923665046692,-0.0439535528421402,-0.1660214364528656,-0.059633396565914154,0.8422926664352417,-1.3669311915717002,2.566048286074898,-1.1188183028127285
2.885385036468506,-0.02190302312374115,0.15414494276046753,-0.04741479456424713,-0.18206751346588135,-0.09102726727724075,0.8526635766029358,-1.3607748010437517,2.536282605124629,-1.1484681120045264
2.89560604095459,-0.034471556544303894,0.17720305919647217,-0.052942320704460144,-0.21099542081356049,-0.11738421767950058,0.8624351024627686,-1.3542052039783543,2.5081793600337834,-1.17614895744716
2.907424211502075,-0.04655995965003967,0.20039266347885132,-0.042086243629455566,-0.2806381583213806,-0.13241828978061676,0.8449841737747192,-1.347096024992754,2.4829319370335314,-1.2007466620101288
2.917829990386963,-0.05152900516986847,0.2161526083946228,-0.031201481819152832,-0.35782864689826965,-0.15155701339244843,0.8068729043006897,-1.3394624374799728,2.462031546915699,-1.220738244610958
2.9284420013427734,-0.04382239282131195,0.23562538623809814,-0.016593798995018005,-0.42801785469055176,-0.1830957680940628,0.750440776348114,-1.3314677881923602,2.44564103871586,-1.2358859583782282
2.935554027557373,-0.03490923345088959,0.2612879276275635,-0.012615099549293518,-0.5017344951629639,-0.22676651179790497,0.6711769700050354,-1.323311158750595,2.4337892191023833,-1.2459974351634753
2.9456498622894287,-0.04237157106399536,0.2805247902870178,-0.008360356092453003,-0.5509374737739563,-0.2553749680519104,0.5938699245452881,-1.3151765881848725,2.426193789835423,-1.2513247204413687
2.9566490650177,-0.06653997302055359,0.3022305965423584,0.008815675973892212,-0.5508168935775757,-0.2404307872056961,0.5169352293014526,-1.3073570788021747,2.4216033207292895,-1.2534621140910278
2.9654018878936768,-0.0892810970544815,0.330754816532135,0.01767745614051819,-0.5275830030441284,-0.2189425379037857,0.44816678762435913,-1.300108582128381,2.4190770224381515,-1.2537160243089343
2.9753968715667725,-0.0838632583618164,0.3525928258895874,0.017266780138015747,-0.5064817667007446,-0.2246224284172058,0.3583124577999115,-1.2935562839154953,2.418217470977113,-1.2523207937492018
2.9854350090026855,-0.07039599120616913,0.3463987708091736,0.021642357110977173,-0.4924412965774536,-0.22937990725040436,0.26410287618637085,-1.287757911487784,2.419332775307161,-1.2487806565809771
2.995404005050659,-0.07593965530395508,0.3339674472808838,0.03359568119049072,-0.4526312053203583,-0.19686159491539001,0.1899535059928894,-1.2827036585441738,2.4220333815259383,-1.2437193456062365
3.007266044616699,-0.08768177032470703,0.32257628440856934,0.0465235710144043,-0.3860742747783661,-0.14248384535312653,0.12014086544513702,-1.278518987438493,2.4256653016065175,-1.238161318863407
3.015497922897339,-0.08297713100910187,0.3155261278152466,0.04840397834777832,-0.308404803276062,-0.1110520213842392,0.04546007886528969,-1.2753602676036155,2.429850355452162,-1.2324851989503802
3.0253970623016357,-0.06325171887874603,0.3017565608024597,0.05913709104061127,-0.24261993169784546,-0.09353640675544739,-0.03148530423641205,-1.273239766772876,2.434482056143176,-1.2265543497245088
3.0354340076446533,-0.054165035486221313,0.2693459987640381,0.08375321328639984,-0.1885305941104889,-0.06062666326761246,-0.08550219982862473,-1.271996338916982,2.43972762025525,-1.2202612372416868
3.045405149459839,-0.05574256181716919,0.23783022165298462,0.09305882453918457,-0.13300821185112,-0.04199465364217758,-0.12353826314210892,-1.2714485781903824,2.445188731579848,-1.2140092903895516
3.0566818714141846,-0.05588652193546295,0.21801936626434326,0.10523532330989838,-0.0827580988407135,-0.01563575305044651,-0.1688186675310135,-1.2715686185399988,2.450758048755296,-1.2078718019575678
3.065335988998413,-0.05897507071495056,0.1966903805732727,0.1096736490726471,-0.053769856691360474,0.01108640432357788,-0.19642579555511475,-1.2722333290228172,2.456738984406681,-1.2016079339784473
3.075330972671509,-0.05955928564071655,0.18222975730895996,0.09991204738616943,-0.05139458179473877,0.019215170294046402,-0.2172549068927765,-1.2731518865834386,2.463124189957429,-1.1950839640922506
3.0856430530548096,-0.06236477196216583,0.17647117376327515,0.10071459412574768,-0.06476885080337524,0.03155350685119629,-0.24247248470783234,-1.2741630898907403,2.4703702473396114,-1.1877637360256006
3.095608949661255,-0.06786932051181793,0.17969268560409546,0.10308206081390381,-0.08125313371419907,0.04691803827881813,-0.2564639151096344,-1.275149621251324,2.4786888599470975,-1.179481461521068
3.1073670387268066,-0.0604715496301651,0.19624394178390503,0.1046363115310669,-0.09154864400625229,0.05879520624876022,-0.27566051483154297,-1.2761093666441445,2.487840318516559,-1.170477217652796
3.115601062774658,-0.03801123797893524,0.21117597818374634,0.10289688408374786,-0.12140855938196182,0.03513776510953903,-0.3193513751029968,-1.2770777476423443,2.498156996218434,-1.1602194432159287
3.12565016746521,-0.023109525442123413,0.218056321144104,0.09645199775695801,-0.17689205706119537,0.008848106488585472,-0.3769174814224243,-1.2779803575282618,2.5105647029196247,-1.1474572426259837
3.1355979442596436,-0.03964371979236603,0.2252534031867981,0.09574505686759949,-0.22075308859348297,0.034369535744190216,-0.4119062125682831,-1.2786856074675013,2.525270689518948,-1.1323030833396155
3.145693063735962,-0.06874847412109375,0.2420009970664978,0.09248635172843933,-0.2531624436378479,0.04451644420623779,-0.45362675189971924,-1.2792387994775036,2.541989761699936,-1.1152659409547998
3.157356023788452,-0.0805290937423706,0.2721640467643738,0.07685719430446625,-0.245849147439003,0.052898477762937546,-0.49905848503112793,-1.2798358443664153,2.5603541924243496,-1.09659602332391
3.1657400131225586,-0.07425563037395477,0.3211708664894104,0.0460275262594223,-0.18898506462574005,0.05576403811573982,-0.545829176902771,-1.2809171452923567,2.5795152374867487,-1.0771665933677945
3.1766550540924072,-0.06354418396949768,0.37923628091812134,0.01491972804069519,-0.09526152908802032,0.04538929462432861,-0.5935718417167664,-1.2828247927172558,2.598772903089987,-1.0575940019216077
3.1856958866119385,-0.06447626650333405,0.42906051874160767,0.003770500421524048,0.016055412590503693,0.06461305916309357,-0.6432650685310364,-1.2856715415295465,2.618079398334051,-1.038008907897294
3.195762872695923,-0.07209010422229767,0.4687376618385315,-0.0034810006618499756,0.10745923966169357,0.09451693296432495,-0.7158327102661133,-1.289588381548595,2.6380784659603758,-1.0180182872788144
3.2067039012908936,-0.056375131011009216,0.49268579483032227,-0.001844167709350586,0.1459437757730484,0.09931808710098267,-0.8440119624137878,-1.2944418450954385,2.6607538933693946,-0.9954331625594176
3.2157020568847656,-0.03096769005060196,0.5146345496177673,0.028793126344680786,0.11883462220430374,0.10608424246311188,-1.004730463027954,-1.2998380132331229,2.689010554214056,-0.9671562271707859
3.2257730960845947,-0.012728527188301086,0.5358458161354065,0.061509713530540466,0.03746839240193367,0.10741209983825684,-1.1807936429977417,-1.3051849213427622,2.724873265205282,-0.9310628883355546
3.2357819080352783,-0.00979672372341156,0.5260981321334839,0.06492505967617035,-0.06697767227888107,0.139764666557312,-1.3861854076385498,-1.3099836268908278,2.770327057796133,-0.8852436420932288
3.245814085006714,-0.019775807857513428,0.5140696167945862,0.06645296514034271,-0.14018583297729492,0.18997031450271606,-1.5787221193313599,-1.3139961206583683,2.8261467190761542,-0.829206156073045
3.256669044494629,-0.007018823176622391,0.5163573622703552,0.05827626585960388,-0.1846247911453247,0.2189178466796875,-1.746086597442627,-1.317082160120456,2.8912598201905113,-0.7640383586743699
3.265899896621704,0.02512093260884285,0.501485288143158,0.05246661603450775,-0.210732564330101,0.26467734575271606,-1.9021658897399902,-1.319014151979986,2.9644764273531696,-0.6909045379521355
3.275846004486084,0.04518669843673706,0.4809655547142029,0.05286923050880432,-0.1596398651599884,0.33094891905784607,-2.013597011566162,-1.3197989305448976,3.0442696735401604,-0.6116029253661778
3.2858331203460693,0.0638241246342659,0.4725322723388672,0.04125753045082092,-0.0421057790517807,0.37308865785598755,-2.0900392532348633,-1.3199023742073548,3.1281187879062937,-0.5287072015880214
3.295957088470459,0.07975970208644867,0.44066154956817627,0.03513908386230469,0.06293197721242905,0.4057108163833618,-2.159635066986084,-1.3193910311054808,-3.068158181522165,-0.443003848984951
3.3067681789398193,0.08184695243835449,0.3941768407821655,0.062386274337768555,0.15068979561328888,0.44312211871147156,-2.206908941268921,-1.317887837261185,-2.9790998248439453,-0.3554155381467531
3.3158509731292725,0.08812933415174484,0.3617926836013794,0.11117902398109436,0.20763112604618073,0.4906954765319824,-2.265641450881958,-1.3150575901340398,-2.8887165822180045,-0.26686313135926765
3.325834035873413,0.10525799542665482,0.3420865535736084,0.16238048672676086,0.20256446301937103,0.5355124473571777,-2.3375306129455566,-1.3103029154431205,-2.797745781708713,-0.17810876418091867
3.335865020751953,0.13741543889045715,0.31961625814437866,0.2099916785955429,0.1614503562450409,0.5521867871284485,-2.3983213901519775,-1.302974455030962,-2.7085500305674053,-0.09136994840184197
3.34592604637146,0.17784203588962555,0.284420371055603,0.24027001857757568,0.174367755651474,0.5588250160217285,-2.4455349445343018,-1.2933189079205465,-2.623201331896339,-0.00852795328147329
3.3581020832061768,0.20359395444393158,0.24472081661224365,0.258109986782074,0.20104961097240448,0.5758517980575562,-2.51939058303833,-1.281732161846528,-2.5416948006841253,0.07046540769400025
3.3673250675201416,0.20507501065731049,0.22207021713256836,0.28838562965393066,0.20430265367031097,0.6169139742851257,-2.5746843814849854,-1.2681466793939267,-2.4644486151609297,0.14497072372384442
3.37597918510437,0.21564456820487976,0.2144041657447815,0.29531314969062805,0.15937469899654388,0.6484383940696716,-2.622891664505005,-1.252582049184292,-2.3929945955663228,0.21335148501872192
3.385930061340332,0.2355853021144867,0.2012304663658142,0.2983662784099579,-0.003702629590407014,0.7191793918609619,-2.7394444942474365,-1.2342805231220368,-2.328251096610361,0.27452366413285906
3.3960611820220947,0.25336766242980957,0.20267945528030396,0.3346545696258545,-0.1893375962972641,0.7819914817810059,-2.8165197372436523,-1.2128488061204683,-2.271445153872606,0.3269069551655007
3.4066340923309326,0.2840574085712433,0.20114487409591675,0.3540990352630615,-0.3284459710121155,0.8097964525222778,-2.8887977600097656,-1.188941053742769,-2.222659620762285,0.3706513367341838
3.4161741733551025,0.3046870529651642,0.18589401245117188,0.3506787121295929,-0.41631606221199036,0.8437391519546509,-2.9838404655456543,-1.1629767420422557,-2.1800861957902162,0.4078391199582128
3.425987958908081,0.3034113645553589,0.18421387672424316,0.3281986713409424,-0.4326590895652771,0.931980311870575,-3.064274549484253,-1.1354240474869373,-2.141566640535201,0.44033553273996656
3.435994863510132,0.3057069182395935,0.20649152994155884,0.2909070551395416,-0.3829246461391449,1.019237995147705,-3.119717597961426,-1.1069163584872808,-2.105338450388681,0.46969174774714995
3.4460651874542236,0.322734534740448,0.219681978225708,0.2682846188545227,-0.3342670798301697,1.0889984369277954,-3.1649727821350098,-1.0778011808418968,-2.070753638717447,0.49676528216743016
3.456624984741211,0.3428381681442261,0.2188926339149475,0.282137393951416,-0.32207053899765015,1.1681880950927734,-3.19929838180542,-1.0480772523922968,-2.0380311115518626,0.5212767932550783
3.4660160541534424,0.3623679578304291,0.21286875009536743,0.2857355773448944,-0.3251400887966156,1.2501604557037354,-3.2468786239624023,-1.0176332679872466,-2.007215480985036,0.5430516362942072
3.4760591983795166,0.37731772661209106,0.20001673698425293,0.2768658399581909,-0.2920858561992645,1.3196871280670166,-3.286632537841797,-0.9865024156612824,-1.977825728243093,0.5626644187368766
3.486029863357544,0.38792532682418823,0.18976497650146484,0.25256454944610596,-0.24641583859920502,1.392673134803772,-3.3202810287475586,-0.9549106487815437,-1.949382284886861,0.5806675248876197
3.496147871017456,0.39494913816452026,0.18393337726593018,0.22620056569576263,-0.18045590817928314,1.4448027610778809,-3.345698833465576,-0.9229571860951172,-1.9216461433752696,0.5974259227183856
3.5066120624542236,0.3986084461212158,0.1819620132446289,0.20525074005126953,-0.08074343204498291,1.5055962800979614,-3.352602481842041,-0.8908672645087001,-1.8943261778576224,0.6133963962617194
3.5162861347198486,0.393756628036499,0.18013155460357666,0.18909499049186707,0.05294019356369972,1.616342306137085,-3.330638885498047,-0.8589462099475742,-1.8666696191068155,0.6290951872623496
3.52773118019104,0.39726144075393677,0.1669551134109497,0.17420531809329987,0.16937199234962463,1.70458984375,-3.3112235069274902,-0.827321367693646,-1.8384250454769318,0.6446260825635862
3.536346197128296,0.41230905055999756,0.14331233501434326,0.1804429441690445,0.29141879081726074,1.7337353229522705,-3.2816591262817383,-0.7959398407237274,-1.810119578251071,0.6598612111189947
3.546251058578491,0.4160115718841553,0.12020474672317505,0.19909846782684326,0.4359208643436432,1.7489200830459595,-3.2534193992614746,-0.7648762783424101,-1.7819741192894996,0.6751382796629155
3.5567800998687744,0.37940698862075806,0.10475265979766846,0.20803117752075195,0.5894536375999451,1.8450888395309448,-3.1998767852783203,-0.7341636590493228,-1.7534725664863535,0.6906225072451503
3.5663211345672607,0.33433955907821655,0.11630314588546753,0.22035695612430573,0.7641341090202332,1.9487544298171997,-3.1436033248901367,-0.7040068331028954,-1.7239651696582008,0.7065756155563108
3.5761160850524902,0.32183974981307983,0.13638794422149658,0.24492047727108002,0.9094017148017883,2.0591022968292236,-3.1188673973083496,-0.6741285427204796,-1.6935040196295592,0.7229467475530865
3.586193084716797,0.33771181106567383,0.16968673467636108,0.28970563411712646,1.0205389261245728,2.1458773612976074,-3.1088781356811523,-0.64418418927125,-1.6623874725734322,0.7393447581319768
3.5962369441986084,0.38312089443206787,0.19271880388259888,0.3326551914215088,1.097058653831482,2.187460422515869,-3.1154000759124756,-0.613943385666542,-1.631225560381275,0.7553744452526848
3.6074321269989014,0.4362912178039551,0.18621039390563965,0.3679018020629883,1.1408311128616333,2.195829391479492,-3.148839235305786,-0.5831447894194087,-1.6006733832116662,0.7706516326791745
3.616536855697632,0.48230117559432983,0.17198854684829712,0.3834354877471924,1.1865872144699097,2.212270498275757,-3.225578546524048,-0.5514274703743036,-1.570906857014895,0.785011299639621
3.6264779567718506,0.522218644618988,0.16982871294021606,0.3816291093826294,1.2473104000091553,2.2384872436523438,-3.323514223098755,-0.5184985056133855,-1.5416920126072091,0.7986252782893235
3.6364901065826416,0.5605244636535645,0.17790207266807556,0.38046038150787354,1.2274940013885498,2.294398307800293,-3.472130298614502,-0.48397535876659836,-1.5130173838088274,0.8111294254371868
3.647822141647339,0.5943663120269775,0.21182867884635925,0.3866410255432129,1.1494373083114624,2.3314521312713623,-3.5791380405426025,-0.44787762399898257,-1.4851196487953817,0.8215873221722734
3.656919002532959,0.6419636607170105,0.24363642930984497,0.3963731527328491,1.0863984823226929,2.3037195205688477,-3.670750141143799,-0.41067859906970633,-1.4584267477548774,0.8298833494859157
3.6663591861724854,0.6780040860176086,0.22626334428787231,0.4068690538406372,1.022123098373413,2.2737619876861572,-3.776261329650879,-0.37238687709901164,-1.4331241699111255,0.8361922742617234
3.6762590408325195,0.67763352394104,0.19538533687591553,0.40460389852523804,0.9419858455657959,2.2883248329162598,-3.8840389251708984,-0.33299730478495615,-1.4088398839824667,0.8404508216864218
3.686367988586426,0.6604563593864441,0.17463558912277222,0.39394140243530273,0.8690226674079895,2.3264272212982178,-3.9681036472320557,-0.29269081753612847,-1.385068019650411,0.8426897948414316
3.6964828968048096,0.6484510898590088,0.16778460144996643,0.38029980659484863,0.8468025922775269,2.361521005630493,-4.021125316619873,-0.25178311035999335,-1.3614494116866698,0.8432346257350345
3.7067160606384277,0.6487947702407837,0.16744780540466309,0.3773460388183594,0.8715444207191467,2.388763189315796,-4.060807228088379,-0.21042920399475668,-1.337789119177291,0.8427199518650487
3.7163798809051514,0.6594855785369873,0.170765221118927,0.36150458455085754,0.9225195646286011,2.382899761199951,-4.1015496253967285,-0.16860976503842143,-1.3141190030758654,0.8414956859617991
3.726362943649292,0.6685817241668701,0.1772254854440689,0.34671178460121155,0.9745718836784363,2.367609739303589,-4.126644611358643,-0.12637903654550117,-1.2906154288717564,0.8396968420964167
3.73640513420105,0.6675289869308472,0.1813545823097229,0.33214041590690613,1.0337445735931396,2.356199026107788,-4.142623424530029,-0.0838498037295365,-1.2672522763034442,0.8373903511439496
3.747588872909546,0.6590457558631897,0.19346898794174194,0.31900131702423096,1.1083775758743286,2.359142541885376,-4.156505107879639,-0.0410395806448173,-1.2438542263159702,0.8346869366620945
3.7567689418792725,0.65159672498703,0.20614244043827057,0.3027312159538269,1.2056554555892944,2.343352794647217,-4.166053771972656,0.0020714232767627414,-1.2204601967235347,0.8317586192690878
3.766447067260742,0.6439594030380249,0.21708403527736664,0.285390168428421,1.302269697189331,2.3310277462005615,-4.176745891571045,0.04552995390982418,-1.197090010943193,0.8287170124660259
3.7764530181884766,0.6309208273887634,0.23088036477565765,0.2722417116165161,1.4484186172485352,2.307537317276001,-4.189782619476318,0.08948977676923361,-1.1736747954779605,0.8256870143029795
3.786484956741333,0.6157239675521851,0.24312199652194977,0.2713559865951538,1.6115458011627197,2.3092291355133057,-4.215103626251221,0.13419521014232794,-1.1503771231331066,0.8230392541864581
3.7965362071990967,0.6022971272468567,0.26132088899612427,0.25449803471565247,1.8466287851333618,2.2106945514678955,-4.263792991638184,0.17989208069516108,-1.1272472186203848,0.8209035292918518
3.80678391456604,0.57904052734375,0.27274298667907715,0.25834736227989197,2.0777175426483154,2.129270553588867,-4.3121161460876465,0.22712913366114204,-1.1053759703080852,0.8197461475493143
3.8164689540863037,0.5663101077079773,0.28859567642211914,0.260794460773468,2.275061845779419,2.075690984725952,-4.366409778594971,0.2757183828025323,-1.0841823501556258,0.8191947592139897
3.8265089988708496,0.5516141653060913,0.30263882875442505,0.2465684413909912,2.421754837036133,2.0475387573242188,-4.422905445098877,0.3256202236957966,-1.063505339640923,0.8189079741864711
3.836564064025879,0.5399076342582703,0.29950380325317383,0.25034528970718384,2.5203399658203125,2.027575731277466,-4.479348182678223,0.37661153888228055,-1.042888608864134,0.8183562340328661
3.846771001815796,0.5432285070419312,0.29411056637763977,0.2441895604133606,2.51251220703125,1.956544280052185,-4.549948215484619,0.4283686415193175,-1.0222815038499193,0.8167621931564629
3.856790065765381,0.556585431098938,0.2688204050064087,0.2615566849708557,2.410675287246704,1.8217278718948364,-4.653732776641846,0.4805032689888493,-1.001639437366309,0.8128982727045088
3.866647958755493,0.5681077241897583,0.22020232677459717,0.29537418484687805,2.195124387741089,1.693703532218933,-4.787356376647949,0.5326998081166026,-0.9804310858618439,0.8054480099634268
3.876638174057007,0.5638902187347412,0.173875629901886,0.31596916913986206,1.8950642347335815,1.6077903509140015,-4.91606330871582,0.5843443706715977,-0.95728004426551,0.7929231239828056
3.8867151737213135,0.5505872964859009,0.1470929980278015,0.3091931939125061,1.549401879310608,1.5741897821426392,-5.020183563232422,0.6347802631102502,-0.9307620557395894,0.774406177407781
3.8968279361724854,0.5353306531906128,0.1382163166999817,0.27179694175720215,1.1354962587356567,1.5803414583206177,-5.098489284515381,0.6831548282247599,-0.8993009274050378,0.7488350644672089
3.9074199199676514,0.5231596231460571,0.13604098558425903,0.24397283792495728,0.7233020663261414,1.6057850122451782,-5.149007797241211,0.7286208531165218,-0.8615793139369271,0.7152896754450975
3.9168670177459717,0.5185073018074036,0.12925076484680176,0.2304132580757141,0.30576908588409424,1.6226874589920044,-5.1900248527526855,0.7706091959080651,-0.8167806464961025,0.6733314483527895
3.9269402027130127,0.5183780193328857,0.1204456090927124,0.2227262556552887,-0.09728436172008514,1.6199021339416504,-5.221724987030029,0.808355560978616,-0.7642580338591424,0.6222526352319335
3.937019109725952,0.5143743753433228,0.10680186748504639,0.22894644737243652,-0.42471522092819214,1.6092511415481567,-5.237223148345947,0.8414971094963474,-0.704085571440708,0.5623805987061202
3.9475290775299072,0.5050281286239624,0.09728491306304932,0.21468734741210938,-0.788599967956543,1.607264757156372,-5.238480567932129,0.8693518485078556,-0.6363215931307575,0.4939770385694543
3.9576940536499023,0.49514150619506836,0.09661972522735596,0.21722090244293213,-1.1097644567489624,1.5983046293258667,-5.20922327041626,0.8909192645861322,-0.5614184606137186,0.41764913147069804
3.966762065887451,0.48782050609588623,0.07283133268356323,0.22964149713516235,-1.3694623708724976,1.5926477909088135,-5.160186767578125,0.9060607358172881,-0.48111431610134714,0.3354688777599283
3.9767801761627197,0.4730723798274994,0.0652647614479065,0.23671138286590576,-1.657916784286499,1.5776307582855225,-5.091884136199951,0.9141198362644017,-0.3970726886241434,0.24919588256713526
3.9867289066314697,0.4558677077293396,0.063282310962677,0.25789713859558105,-1.8445985317230225,1.5225211381912231,-5.009328842163086,0.9151972634642753,-0.31196500922264353,0.1614296125765433
3.9968478679656982,0.4379631280899048,0.03708988428115845,0.23750907182693481,-2.0614817142486572,1.4682295322418213,-4.892144203186035,0.9096470087378785,-0.2284275843315358,0.07479076118766068
4.009116888046265,0.4011050760746002,0.04506635665893555,0.2293580174446106,-2.327988386154175,1.4140554666519165,-4.738503932952881,0.8970683679777758,-0.14865393595738285,-0.008391496058768983
4.017309904098511,0.35669639706611633,0.03467613458633423,0.2775450348854065,-2.4829347133636475,1.4482743740081787,-4.551836013793945,0.8782150195523326,-0.07423114814847896,-0.08596954162105121
4.026802062988281,0.2989683449268341,0.03123164176940918,0.3113276958465576,-2.549213409423828,1.6074097156524658,-4.287795066833496,0.8548194243212318,-0.00565368445766159,-0.1558739844906894
4.036855936050415,0.2743225395679474,0.07470458745956421,0.27327537536621094,-2.6664087772369385,1.7293968200683594,-4.043797969818115,0.8276689225885995,0.05695280365212801,-0.21735583499353042
4.046976089477539,0.31090018153190613,0.04015403985977173,0.23508459329605103,-2.8131728172302246,1.7246711254119873,-3.860196828842163,0.796979788886082,0.11349048084420678,-0.27123432112736195
4.056957960128784,0.3614567816257477,-0.027638018131256104,0.21990430355072021,-2.902066946029663,1.5546542406082153,-3.7059154510498047,0.7633642823765131,0.16318269503713842,-0.3184283333277768
4.06692099571228,0.3823440670967102,-0.037486732006073,0.18088209629058838,-3.000040292739868,1.2868003845214844,-3.5460636615753174,0.7276333611230239,0.2054031294164317,-0.35965011933854846
4.07694411277771,0.3510936498641968,-0.022167623043060303,0.12165564298629761,-3.008005142211914,1.0904291868209839,-3.3424370288848877,0.6906950517776802,0.24038899994770854,-0.3952456047771957
4.086815118789673,0.26135021448135376,-0.004231512546539307,0.07325392961502075,-3.08481502532959,1.1474162340164185,-3.0649614334106445,0.6530739517520723,0.2700355045594495,-0.4251126992972891
4.096853017807007,0.1688745766878128,0.04673117399215698,0.03307461738586426,-3.0957045555114746,1.3617541790008545,-2.7570128440856934,0.6151872007012406,0.29675696213807745,-0.4491039858180761
4.107431173324585,0.14730849862098694,0.07293683290481567,0.015431344509124756,-3.0028531551361084,1.5424541234970093,-2.4777746200561523,0.5780436974585822,0.32201357878178327,-0.46796150070442305
4.116869211196899,0.19510334730148315,0.12012332677841187,0.002310037612915039,-2.72228741645813,1.518505334854126,-2.264010190963745,0.5431337869037858,0.34560997702639895,-0.48328274079239275
4.12689208984375,0.2717186510562897,0.16940322518348694,-0.03946888446807861,-2.4424521923065186,1.3186694383621216,-2.100466728210449,0.5113437329436743,0.3665526709722475,-0.49654131356210723
4.137152910232544,0.33544066548347473,0.20571228861808777,-0.10530287027359009,-2.318718671798706,1.0200400352478027,-1.9534989595413208,0.4818312897571196,0.3838319606168083,-0.5081374017766008
4.14683985710144,0.36438941955566406,0.18961161375045776,-0.13754522800445557,-2.3648812770843506,0.7027243375778198,-1.7860803604125977,0.4531116638472789,0.39670011704162517,-0.5175909222830684
4.156967878341675,0.32626351714134216,0.1495092809200287,-0.11093813180923462,-2.579775333404541,0.5196349620819092,-1.625552773475647,0.42378414134296677,0.4055253742780893,-0.5243228714034797
4.166918992996216,0.22425565123558044,0.11766359210014343,-0.038384199142456055,-2.908475160598755,0.5790924429893494,-1.4727894067764282,0.39242925142028373,0.4123552802586679,-0.5279330523188543
4.176853895187378,0.14481911063194275,0.08004239201545715,0.03132343292236328,-3.2191553115844727,0.736108660697937,-1.3371267318725586,0.35864737226619897,0.41911600085030204,-0.5284149093902263
4.18681788444519,0.139928936958313,0.05463230609893799,0.06324785947799683,-3.4388935565948486,0.8066413998603821,-1.2546361684799194,0.32289407692759314,0.42625821768476896,-0.5263831370108267
4.196924924850464,0.1835995614528656,0.06259796023368835,0.06901991367340088,-3.5342395305633545,0.775968611240387,-1.2627850770950317,0.28588238991044423,0.4332289382078469,-0.5230901559989627
4.206834077835083,0.2422190010547638,0.09682139754295349,0.02618485689163208,-3.511495351791382,0.6854903697967529,-1.2608681917190552,0.24843217283851074,0.4396443729044992,-0.5194818174587255
4.216896057128906,0.2864213287830353,0.18255354464054108,-0.09030479192733765,-3.337584972381592,0.5276060700416565,-1.193565011024475,0.2121411039076009,0.44491376427906787,-0.5158105536188744
4.227083921432495,0.30037423968315125,0.22606588900089264,-0.2057933807373047,-3.0913307666778564,0.36818793416023254,-1.1161588430404663,0.1780551023131389,0.44866511754756555,-0.512231018566361
4.23703408241272,0.26175448298454285,0.2091711312532425,-0.25509214401245117,-2.8105175495147705,0.3512486517429352,-0.9951485991477966,0.14689372544089305,0.451589387654117,-0.5089286032174313
4.247426986694336,0.19054600596427917,0.21435019373893738,-0.25365954637527466,-2.594198226928711,0.4642082154750824,-0.8117396235466003,0.11863532279779368,0.4551917196286267,-0.5052046361092829
4.2586669921875,0.1730426847934723,0.2030269354581833,-0.22389096021652222,-2.4238791465759277,0.5012333989143372,-0.6368248462677002,0.09291589286815809,0.4595961905010616,-0.5005783870793794
4.266995191574097,0.20490175485610962,0.11224645376205444,-0.15910053253173828,-2.2607510089874268,0.42418840527534485,-0.5068582892417908,0.06942509199887145,0.4638796509625445,-0.49521577954747464
4.2771241664886475,0.2245168685913086,0.033139195293188095,-0.08564257621765137,-2.2166056632995605,0.3027084469795227,-0.4306347668170929,0.0473629161081355,0.4671576055183904,-0.4893390334002856
4.2870519161224365,0.21263372898101807,-0.02362127974629402,-0.013714730739593506,-2.195866823196411,0.29048559069633484,-0.35754936933517456,0.02585067464739568,0.46980129070461896,-0.48289023523267555
4.298250913619995,0.18913784623146057,-0.06459096819162369,0.010881781578063965,-2.202258586883545,0.3444327712059021,-0.26838427782058716,0.004867141206759226,0.47288858820928203,-0.47570001841606596
4.307910203933716,0.18197113275527954,-0.09156407415866852,-0.016764461994171143,-2.2502145767211914,0.3643239140510559,-0.20667725801467896,-0.01604893009501744,0.47649461994224374,-0.46759751768653307
4.317255020141602,0.19623950123786926,-0.1369016319513321,-0.06414937973022461,-2.304703712463379,0.3870157301425934,-0.17262665927410126,-0.03716338735342362,0.48046449901509813,-0.4587953732599407
4.32711386680603,0.20322126150131226,-0.11753702908754349,-0.1514565348625183,-2.3074839115142822,0.4049297571182251,-0.08537084609270096,-0.05828953659518404,0.4849161567570008,-0.4492245311240799
4.337153196334839,0.19264033436775208,-0.03402465581893921,-0.22370338439941406,-2.228785276412964,0.4031224548816681,0.046555809676647186,-0.07844704321516907,0.4896536904373175,-0.4387288676761602
4.347184896469116,0.17741090059280396,-0.000525258481502533,-0.2585270404815674,-2.120157241821289,0.46101024746894836,0.1466483175754547,-0.09722059767264696,0.49493953793677853,-0.427496932344403
4.357538938522339,0.167344868183136,0.025876745581626892,-0.266093909740448,-1.9741696119308472,0.5262575149536133,0.24658694863319397,-0.11431027282750306,0.5011082581712987,-0.4159086280238165
4.367132902145386,0.17331627011299133,0.072702556848526,-0.2202635407447815,-1.7584866285324097,0.5009772181510925,0.35287797451019287,-0.12924068842726888,0.5078006484494777,-0.40413270331457063
4.377156972885132,0.20471340417861938,0.09372863173484802,-0.15214049816131592,-1.5489219427108765,0.3627505600452423,0.39810457825660706,-0.14179229127400586,0.5137088834894188,-0.3926386954660327
4.387155055999756,0.22557500004768372,0.06896710395812988,-0.11941641569137573,-1.4704899787902832,0.2361883670091629,0.4018668234348297,-0.1528800535068409,0.5182925708415662,-0.3816150248479051
4.397181987762451,0.21272137761116028,0.0504949688911438,-0.13580572605133057,-1.4257830381393433,0.202889084815979,0.4181712865829468,-0.16344269010001514,0.5221313255519447,-0.3707202900095049
4.4072558879852295,0.1916789710521698,0.051991596817970276,-0.1939830183982849,-1.4287716150283813,0.2623577415943146,0.4350011348724365,-0.17364151316776394,0.5262641097500538,-0.3597326215476283
4.4172961711883545,0.16903012990951538,0.12510105967521667,-0.2737619876861572,-1.364136815071106,0.30104103684425354,0.43591293692588806,-0.1835758836686765,0.531106441074183,-0.3486919807059684
4.4272301197052,0.159770667552948,0.1699300855398178,-0.28135961294174194,-1.2817455530166626,0.2555185556411743,0.41264328360557556,-0.1927883096994535,0.5358917898589991,-0.33811718068366586
4.437201023101807,0.17233538627624512,0.14869923889636993,-0.23057609796524048,-1.2555019855499268,0.20261646807193756,0.36457401514053345,-0.2016482142202077,0.540147642090314,-0.3280775959876919
4.447435140609741,0.1819247007369995,0.1177220344543457,-0.16758036613464355,-1.2813441753387451,0.14931915700435638,0.2908036410808563,-0.2108321495695465,0.5438623803226443,-0.3185044321723109
4.457331895828247,0.1738482117652893,0.09351402521133423,-0.1026795506477356,-1.2797404527664185,0.10804730653762817,0.21269743144512177,-0.22050915113344413,0.5470731107516654,-0.30948240338912614
4.4672229290008545,0.15023314952850342,0.09387184679508209,-0.04995805025100708,-1.2540193796157837,0.08352145552635193,0.12304717302322388,-0.2304117423549307,0.5498668342418006,-0.3012556063421879
4.477222204208374,0.126872718334198,0.1147114634513855,-0.07080620527267456,-1.3051620721817017,0.09413224458694458,0.041175477206707,-0.2408826522802448,0.5524982874019271,-0.2936460375119413
4.4873669147491455,0.11607015132904053,0.12714342772960663,-0.12582671642303467,-1.32733952999115,0.1486886888742447,-0.02242613397538662,-0.252105423508521,0.5554654003414446,-0.28640723908325916
4.49724006652832,0.11481064558029175,0.09555858373641968,-0.18118500709533691,-1.30369234085083,0.18085327744483948,-0.06141657009720802,-0.26352956088163454,0.5588955163007086,-0.2795778190754177
4.507377862930298,0.11422407627105713,0.06659388542175293,-0.2128024697303772,-1.2281794548034668,0.1754678338766098,-0.0893603265285492,-0.27472403470949885,0.5623748394775135,-0.27322467920598287
4.517418146133423,0.10905015468597412,0.03904798626899719,-0.21482867002487183,-1.1325867176055908,0.16611655056476593,-0.09469357132911682,-0.2851750210366057,0.565667211608997,-0.2674987988310325
4.527325868606567,0.09411579370498657,0.03610619902610779,-0.21710610389709473,-1.018933892250061,0.1572255939245224,-0.06694290041923523,-0.29472584030718896,0.5688182472688665,-0.26217672465786784
4.537462949752808,0.07707458734512329,0.05631384253501892,-0.19751393795013428,-0.8914521336555481,0.1458013355731964,-0.020032113417983055,-0.30303926541772586,0.5718044407188967,-0.25714629323554944
4.547395944595337,0.06940823793411255,0.05627450346946716,-0.16965240240097046,-0.8181520700454712,0.10653596371412277,0.003244980238378048,-0.31017084510608267,0.5745652038099963,-0.25236616192491557
4.557564973831177,0.06380206346511841,0.05190512537956238,-0.12782001495361328,-0.6634296178817749,0.011512154713273048,0.0024613714776933193,-0.31643192617354216,0.5764625490753881,-0.24809077712035715
4.567434072494507,0.06390887498855591,0.0682063102722168,-0.1341915726661682,-0.5497727990150452,-0.1367660015821457,0.02010161802172661,-0.3214404587717766,0.5770016399501433,-0.2445017964715918
4.577638864517212,0.07948774099349976,0.13203290104866028,-0.17805814743041992,-0.516823410987854,-0.2317114621400833,-0.023194029927253723,-0.3258190775267803,0.5760372708187085,-0.24146128770410002
4.587512016296387,0.06941670179367065,0.11936360597610474,-0.19102448225021362,-0.5828234553337097,-0.22882619500160217,-0.08528802543878555,-0.3307403385610293,0.5745117285784744,-0.23882337308869442
4.598157167434692,0.043163299560546875,0.08124122023582458,-0.21576887369155884,-0.5362215638160706,-0.1709752380847931,-0.0715450569987297,-0.33599462871014035,0.5733526135206387,-0.236261677820709
4.608286142349243,0.024076104164123535,0.08007588982582092,-0.22203785181045532,-0.3511611819267273,-0.11495936661958694,-0.07215225696563721,-0.34015744903128264,0.5726010262358818,-0.23427311287351502
4.617400884628296,0.014448344707489014,0.09492433071136475,-0.195498526096344,-0.11989286541938782,-0.11359893530607224,-0.11662549525499344,-0.3426333290626101,0.5716452542781891,-0.2337664076353313
4.627410173416138,0.015477478504180908,0.1212196946144104,-0.1507900357246399,0.05952083319425583,-0.14721469581127167,-0.16431711614131927,-0.34363316352210915,0.5699789270883919,-0.234861685205196
4.637484073638916,0.015494048595428467,0.10289222002029419,-0.09339720010757446,0.1702171117067337,-0.13843460381031036,-0.1914215385913849,-0.3435538857534282,0.5677278610872014,-0.2371720342696479
4.647402048110962,0.0019045472145080566,0.06035572290420532,-0.05539363622665405,0.22603324055671692,-0.08632079511880875,-0.2008853554725647,-0.34294904462997333,0.5656044976099447,-0.24007367618604067
4.657576084136963,-0.022907137870788574,0.04852667450904846,-0.03689795732498169,0.24529005587100983,-0.021786902099847794,-0.211098313331604,-0.3420455106611522,0.5640205949283179,-0.24323864485934116
4.667950868606567,-0.030365586280822754,0.02729654312133789,-0.011772334575653076,0.2890452742576599,0.023439165204763412,-0.2397398054599762,-0.3409983906982321,0.56286214230065,-0.24677704723635335
4.677715063095093,-0.023486077785491943,-0.009843051433563232,0.010322868824005127,0.2848787009716034,0.05679002031683922,-0.2499573528766632,-0.33986494721456184,0.5619803533039828,-0.2506325074502464
4.687551021575928,-0.01692718267440796,-0.016233086585998535,0.020898103713989258,0.2836379408836365,0.0807262510061264,-0.2544389069080353,-0.3388095729281026,0.5613856355595929,-0.2544983962148439
4.697757959365845,-0.00872945785522461,-0.023092567920684814,0.023181438446044922,0.25770172476768494,0.10078704357147217,-0.24735480546951294,-0.33784778488729056,0.5610535992927873,-0.2582882002535507
4.708226919174194,-0.0006741881370544434,-0.037839412689208984,0.014405488967895508,0.26659613847732544,0.1118367612361908,-0.22683382034301758,-0.3369333123569235,0.5609300993376579,-0.2618787640223728
4.7178661823272705,0.00435870885848999,-0.043377310037612915,0.0070223212242126465,0.31721168756484985,0.12041786313056946,-0.19879668951034546,-0.3355905846966375,0.5609437735589687,-0.2654339675336526
4.727930068969727,0.005934417247772217,-0.01598760485649109,-0.0011180639266967773,0.40124478936195374,0.1095481738448143,-0.18253250420093536,-0.3335872648517999,0.5608827777462685,-0.2691557279762248
4.73769998550415,0.009393036365509033,0.009185969829559326,-0.01090383529663086,0.44770458340644836,0.06820228695869446,-0.17476005852222443,-0.33091134825746904,0.5604809573219162,-0.2731523337438708
4.747559070587158,0.01500767469406128,0.009051799774169922,-0.007150232791900635,0.5149890780448914,0.03263417258858681,-0.1758253276348114,-0.32776358203584616,0.5596167719987757,-0.27742418518005757
4.757745027542114,0.010638535022735596,-0.0016919374465942383,0.006228387355804443,0.5271583795547485,-0.0017050686292350292,-0.16503553092479706,-0.3241894823356474,0.558335447078757,-0.2819055926927894
4.768038034439087,0.0036634206771850586,0.019493043422698975,0.011351704597473145,0.4422011375427246,-0.02001190558075905,-0.16182482242584229,-0.3208852391196349,0.5568906651846837,-0.28608494008847796
4.777656078338623,0.00016623735427856445,0.027567237615585327,0.016562461853027344,0.27839958667755127,-0.017780041322112083,-0.16623267531394958,-0.31864858711171323,0.5556010239978089,-0.28958744951090487
4.7875800132751465,-0.009599924087524414,0.010928183794021606,0.017821550369262695,0.08669617027044296,-0.008463505655527115,-0.1586351990699768,-0.31798118285142785,0.5546902138125104,-0.2920604405792167
4.79769492149353,-0.01961544156074524,0.01659819483757019,0.01743251085281372,-0.09194900095462799,-0.0021167495287954807,-0.14603367447853088,-0.3188232099200944,0.5542266824771519,-0.29339733747336677
4.807916879653931,-0.024987459182739258,0.030696839094161987,0.016803443431854248,-0.23612748086452484,-0.013380056247115135,-0.13832993805408478,-0.3209937404695823,0.5540489980088504,-0.2937557362380293
4.817655086517334,-0.024962782859802246,0.03340873122215271,0.020193099975585938,-0.3296431601047516,-0.0279744453728199,-0.13169695436954498,-0.32413541020867837,0.5539680214562311,-0.2933657265235775
4.82757306098938,-0.02617853879928589,0.03314414620399475,0.02121412754058838,-0.36534416675567627,-0.0459425263106823,-0.12435223907232285,-0.3277971788337706,0.5538373226142996,-0.29258382577742986
4.837746858596802,-0.02685299515724182,0.039847493171691895,0.016286134719848633,-0.3782626688480377,-0.05981338024139404,-0.11726438999176025,-0.3316143257111946,0.553624804430038,-0.2915966631527365
4.847594976425171,-0.02503296732902527,0.04672551155090332,0.009889543056488037,-0.36510878801345825,-0.06357429176568985,-0.11664414405822754,-0.3354293430549905,0.5533352980156588,-0.29055475062754865
4.858150005340576,-0.023905962705612183,0.04364535212516785,0.008545994758605957,-0.3308601975440979,-0.06994275748729706,-0.11809886246919632,-0.33900058489444423,0.552970892809183,-0.2896729056092308
4.867707967758179,-0.02439063787460327,0.033294677734375,0.009622573852539062,-0.29947298765182495,-0.07962707430124283,-0.11858861893415451,-0.3422924860653283,0.552449773934673,-0.28900226293854764
4.8778040409088135,-0.021183431148529053,0.01722213625907898,0.014229655265808105,-0.2838127613067627,-0.08838261663913727,-0.1219235435128212,-0.3454258726861494,0.5518048494962777,-0.2884565604720437
4.887701034545898,-0.021512895822525024,0.005071431398391724,0.021258115768432617,-0.27082905173301697,-0.1007937490940094,-0.10772223025560379,-0.34838391926057094,0.5510071398747122,-0.28799147971849015
4.897768974304199,-0.022401034832000732,0.004903078079223633,0.026254594326019287,-0.2664880156517029,-0.10805831849575043,-0.10398197919130325,-0.3512268634224307,0.5501420628347355,-0.2874451588573696
4.907891035079956,-0.022933393716812134,-0.0006565749645233154,0.022451281547546387,-0.2839586138725281,-0.11871122568845749,-0.10549093037843704,-0.35411061450441206,0.5492266034632133,-0.28687149493739483
4.917987108230591,-0.021860867738723755,-0.00666770339012146,0.011939764022827148,-0.31513118743896484,-0.14117108285427094,-0.10416892915964127,-0.35720243823965325,0.5481870527198368,-0.2861634284566822
4.927731990814209,-0.0076712071895599365,-0.011020481586456299,-0.004628360271453857,-0.3304688632488251,-0.16017700731754303,-0.10707550495862961,-0.36054758956276606,0.5469683420564897,-0.285305149405971
4.937910079956055,-0.002514660358428955,-0.009056836366653442,-0.026175320148468018,-0.31579267978668213,-0.1710064858198166,-0.10766294598579407,-0.3638651574551301,0.5455949930589291,-0.28447962961342194
4.947800874710083,-0.004648417234420776,0.0012577474117279053,-0.04157787561416626,-0.2572270929813385,-0.17737942934036255,-0.09358733892440796,-0.3669042626436363,0.544099619360572,-0.28380316551612195
4.958326101303101,0.004729121923446655,0.004186093807220459,-0.0598483681678772,-0.20662271976470947,-0.1999373435974121,-0.09722154587507248,-0.36934254811747597,0.5423641034947598,-0.28337549169338067
4.967902898788452,0.014297962188720703,0.00026935338973999023,-0.0727759599685669,-0.1527610868215561,-0.19810053706169128,-0.10569944977760315,-0.3714326181402929,0.540386207880706,-0.28331546503787
4.978146076202393,0.012332171201705933,-0.00800633430480957,-0.0902642011642456,-0.12145265191793442,-0.18851445615291595,-0.09467833489179611,-0.37312566158554045,0.5383922656929601,-0.2834869254072477
4.987860918045044,0.025101691484451294,-0.002779364585876465,-0.10624295473098755,-0.09509561210870743,-0.18012763559818268,-0.09043271839618683,-0.3745261590918327,0.5364517034730888,-0.2837503763448072
4.997892141342163,0.03296664357185364,-0.0004048943519592285,-0.10560405254364014,-0.10198182612657547,-0.17399263381958008,-0.09034590423107147,-0.37579528272176227,0.5345851244801112,-0.28404327976895904
5.008105993270874,0.029497981071472168,0.0007927119731903076,-0.08861654996871948,-0.1402437388896942,-0.1651754379272461,-0.10994330793619156,-0.37736253129355934,0.5327847529366214,-0.28431959679387453
5.017853021621704,0.030599594116210938,-0.010501682758331299,-0.07305830717086792,-0.19652163982391357,-0.15109704434871674,-0.12563182413578033,-0.3793852873021454,0.5311393702549981,-0.2844944888523772
5.027878046035767,0.03268250823020935,-0.024685651063919067,-0.06675881147384644,-0.2469424605369568,-0.1393786072731018,-0.15241177380084991,-0.3820406617960677,0.5296571436151173,-0.28456985774626775
5.038256883621216,0.038187265396118164,-0.03843355178833008,-0.06364154815673828,-0.26672422885894775,-0.12040898948907852,-0.1542099416255951,-0.38505152212147276,0.5283516852893371,-0.28459982015264823
5.050190210342407,0.04636475443840027,-0.04165419936180115,-0.06290286779403687,-0.27298933267593384,-0.1046619862318039,-0.15025594830513,-0.38816636075778854,0.5272426342020823,-0.2845493730872106
5.058079957962036,0.051989614963531494,-0.026584535837173462,-0.05486351251602173,-0.27146613597869873,-0.08575283735990524,-0.13979122042655945,-0.39127409513966005,0.5263318634588157,-0.2844204712728799
5.067944049835205,0.049043625593185425,-0.018034666776657104,-0.04622018337249756,-0.27748435735702515,-0.06598898023366928,-0.13074153661727905,-0.3943242788604235,0.525653579637504,-0.2842036252606018
5.078309059143066,0.0451524555683136,-0.01346653699874878,-0.037259697914123535,-0.27311816811561584,-0.04938098043203354,-0.1255553960800171,-0.3973609864087016,0.5252043974138372,-0.2839174462685094
5.088479995727539,0.041645348072052,-0.0054794251918792725,-0.026100635528564453,-0.26269590854644775,-0.03446008637547493,-0.12619295716285706,-0.40030106337375637,0.524904918841582,-0.2836323368552622
5.098806142807007,0.03350415825843811,-0.0022105276584625244,-0.015285909175872803,-0.25183606147766113,-0.025990214198827744,-0.12764021754264832,-0.40318190981436036,0.5246851095938627,-0.2834331564596725
5.10820198059082,0.024583131074905396,-0.00016197562217712402,-0.008651912212371826,-0.2513372600078583,-0.018350135535001755,-0.13313326239585876,-0.40601613779648493,0.5245177255322244,-0.2832815293368507
5.118090867996216,0.020675957202911377,-0.004583209753036499,-0.0029278993606567383,-0.23555898666381836,-0.01244395598769188,-0.1288500428199768,-0.40878737308707647,0.5244043498416181,-0.28319212293272505
5.128005027770996,0.016011089086532593,-0.008504480123519897,-0.00020742416381835938,-0.2274795025587082,-0.005185776390135288,-0.12968094646930695,-0.41143260964449757,0.524333713484661,-0.2831536651472386
5.138190984725952,0.011828690767288208,-0.007383376359939575,0.006133675575256348,-0.23168975114822388,-0.004418163560330868,-0.13229089975357056,-0.41407331849750395,0.5243115902216496,-0.283132714119241
5.148042917251587,0.009343147277832031,-0.007577478885650635,0.015116214752197266,-0.2192317545413971,-0.006733782589435577,-0.12925302982330322,-0.4167036491186327,0.5242483132735902,-0.2831375296747543
5.158493995666504,0.009851634502410889,-0.012799441814422607,0.020152509212493896,-0.19830270111560822,-0.005341837182641029,-0.12988148629665375,-0.4191616994447374,0.5241595985045013,-0.2832138729957065
5.168127059936523,0.007472306489944458,-0.004140704870223999,0.022600293159484863,-0.17780674993991852,0.0004361569881439209,-0.13662832975387573,-0.42146050695787346,0.524037941201165,-0.2834570683331075
5.17822003364563,0.004260212182998657,-0.0025864839553833008,0.01899939775466919,-0.1545422375202179,0.0042463866993784904,-0.13496823608875275,-0.4235708287696607,0.5239003757955107,-0.28383910931336864
5.188067197799683,0.006766170263290405,-0.004202038049697876,0.012973427772521973,-0.14483074843883514,0.014575723558664322,-0.1386745572090149,-0.4255447697071254,0.5237925235123007,-0.284324545023936
5.198235988616943,0.00741228461265564,-0.0008659958839416504,0.007485687732696533,-0.14994405210018158,0.01789047196507454,-0.13864164054393768,-0.42751186789646284,0.5237408847402796,-0.2848380125834026
5.208288908004761,0.006748825311660767,-0.0036568641662597656,0.004406869411468506,-0.14492878317832947,0.019736308604478836,-0.13373103737831116,-0.4294729811014587,0.5237251524219549,-0.2853199600487641
5.2182300090789795,0.008184641599655151,-0.006005436182022095,0.0010486841201782227,-0.1433812826871872,0.022141054272651672,-0.12961244583129883,-0.4303444908084334,0.5237408186455783,-0.2857784279605644
5.2282350063323975,0.008675694465637207,0.0030065178871154785,0.0011954903602600098,-0.1410382241010666,0.024610070511698723,-0.12916317582130432,-0.43134189937373996,0.5238663566264086,-0.28619602312193243
5.238290071487427,0.0073899030685424805,0.009188920259475708,0.003500223159790039,-0.13689886033535004,0.02734895423054695,-0.13059601187705994,-0.4322294591806641,0.5240301891211445,-0.2866330471530157
5.248157024383545,0.005722224712371826,0.006706982851028442,0.004441976547241211,-0.15228234231472015,0.02500244230031967,-0.13745790719985962,-0.4337870516844319,0.524238499264715,-0.28705234438329896
5.258558034896851,0.005148470401763916,3.972649574279785e-05,0.005049943923950195,-0.1427209973335266,0.024503499269485474,-0.13779272139072418,-0.43545158300571507,0.5243861324640255,-0.2875086140061003
5.268177032470703,0.005163639783859253,-0.00191575288772583,0.003210306167602539,-0.13012078404426575,0.024083785712718964,-0.13553623855113983,-0.4368346179410366,0.5244674158540577,-0.2880330401990924
5.278451204299927,0.012006938457489014,0.004812031984329224,0.004875600337982178,-0.12214788794517517,0.029016580432653427,-0.13613443076610565,-0.43820058478980345,0.5245357562172965,-0.28861309582913913
5.288341045379639,0.00923207402229309,0.01029476523399353,0.008779168128967285,-0.11309447139501572,0.03255964815616608,-0.13301613926887512,-0.4393751611638609,0.5245986979136784,-0.2892337847206598
5.2997660636901855,0.006677806377410889,0.013690918684005737,0.011563241481781006,-0.10723169893026352,0.03352322801947594,-0.12965847551822662,-0.44032676007039656,0.5246512280292959,-0.28987933442818886
5.3086020946502686,0.006426990032196045,0.014737248420715332,0.010637879371643066,-0.09507197141647339,0.03028828278183937,-0.12857909500598907,-0.4415488065032596,0.5247206410842289,-0.29053824504728504
5.3183300495147705,0.0026741623878479004,0.01318669319152832,0.008429169654846191,-0.0877201184630394,0.024461111053824425,-0.12960340082645416,-0.44294367043003824,0.5247507808055107,-0.2912238288581097
5.328463077545166,-0.0025625228881835938,0.01781025528907776,0.011768877506256104,-0.07820837199687958,0.019482064992189407,-0.1297067254781723,-0.44421053396684285,0.5246930359851997,-0.29199143021540186
5.338565111160278,-0.007034718990325928,0.016957193613052368,0.008614540100097656,-0.0745384693145752,0.010779031552374363,-0.12861397862434387,-0.4452230694872591,0.5245248853069496,-0.29279827497696304
5.348345994949341,-0.008483141660690308,0.012651622295379639,0.0069661736488342285,-0.08120595663785934,0.005493988748639822,-0.13203400373458862,-0.44620683023918717,0.5242873051429846,-0.29359270638586693
5.3585240840911865,-0.009689956903457642,0.010264575481414795,0.009841978549957275,-0.08364003896713257,0.0015706634148955345,-0.1301073133945465,-0.4474324614299664,0.5241008990903337,-0.2943444702973901
5.368366003036499,-0.00843900442123413,0.006723910570144653,0.008965671062469482,-0.08736845850944519,-0.00308933574706316,-0.12227470427751541,-0.4489061054543356,0.5239044882662194,-0.2950257924506406
5.378431081771851,-0.004720062017440796,0.00888410210609436,0.011000871658325195,-0.0781283751130104,-0.005666609853506088,-0.11729847639799118,-0.45047220036803554,0.5237008174021378,-0.2956477969533334
5.388305902481079,-0.0038135945796966553,0.009865492582321167,0.007666110992431641,-0.06335476040840149,-0.009669607505202293,-0.11305339634418488,-0.45187411618510687,0.5234585021897947,-0.29630798329015967
5.398483037948608,-0.0022231340408325195,0.008486241102218628,0.008797764778137207,-0.06392630934715271,-0.019179753959178925,-0.1101657897233963,-0.4531532495415285,0.5230879893976134,-0.2969960813482678
5.408905029296875,-0.001379638910293579,0.004393875598907471,0.01415318250656128,-0.058220215141773224,-0.024119652807712555,-0.10663257539272308,-0.4545996616421827,0.5226466001490134,-0.2976460329949397
5.4187171459198,-0.0011281371116638184,0.003239870071411133,0.015108346939086914,-0.04333813861012459,-0.029047474265098572,-0.09860937297344208,-0.45585051973115426,0.5221075247600732,-0.2983483624427934
5.428548097610474,0.0004947483539581299,0.006849765777587891,0.014681100845336914,-0.03871489316225052,-0.030985459685325623,-0.09420929849147797,-0.4568436215328983,0.5214984196763817,-0.2990596376767448
5.44048285484314,0.0010648369789123535,0.007339775562286377,0.01410830020904541,-0.03338918462395668,-0.03636544197797775,-0.08874715864658356,-0.4577600766116357,0.5208678532574663,-0.29973429674439206
5.448630094528198,0.0010505914688110352,0.006553381681442261,0.011092901229858398,-0.04024709016084671,-0.04145021736621857,-0.08519183844327927,-0.458551792804745,0.5202078963938764,-0.3003645367336977
5.458724021911621,0.0012252330780029297,0.006369143724441528,0.009156227111816406,-0.055015966296195984,-0.04770229756832123,-0.07909096032381058,-0.45950623571775145,0.5195866672107783,-0.3008682882940926
5.46838903427124,0.0005131661891937256,0.005249053239822388,0.010370612144470215,-0.06494183838367462,-0.05511147901415825,-0.07284185290336609,-0.4605348821506683,0.5189495240111839,-0.30123791643410913
5.480562925338745,-0.0003012418746948242,0.0053802430629730225,0.010417282581329346,-0.06759215891361237,-0.05795302242040634,-0.07040516287088394,-0.4615810337910968,0.5183118088440933,-0.3015301912108474
5.488457918167114,-1.1175870895385742e-05,0.007236212491989136,0.010389566421508789,-0.0721040889620781,-0.06275976449251175,-0.06895507127046585,-0.46261009445408885,0.5176815448756854,-0.30176489465184125
5.498581171035767,-0.003253042697906494,0.005967170000076294,0.01113581657409668,-0.07567250728607178,-0.0652725026011467,-0.06897813826799393,-0.4636703998473882,0.5170302973275184,-0.3019702388009739
5.50915002822876,-0.00492328405380249,0.00642058253288269,0.012471914291381836,-0.06647608429193497,-0.0643790140748024,-0.06523612886667252,-0.46476740009459566,0.5163897123679329,-0.30216568078846706
5.518765211105347,-0.004840224981307983,0.006163537502288818,0.009824872016906738,-0.05744905024766922,-0.06291760504245758,-0.06608237326145172,-0.46575506351162343,0.5157397332035094,-0.302407647491582
5.528963088989258,-0.006856828927993774,0.004670292139053345,0.00809389352798462,-0.05106784775853157,-0.05864322930574417,-0.06345436722040176,-0.46662382328538143,0.5150874221745018,-0.3026944987907767
5.540412187576294,-0.005733907222747803,0.0033854544162750244,0.007137298583984375,-0.05196869745850563,-0.055651165544986725,-0.06181875988841057,-0.4674304665236487,0.5144616475644768,-0.30298222417427545
5.548666000366211,-0.0025412142276763916,0.005072653293609619,0.00706636905670166,-0.04774225875735283,-0.048978619277477264,-0.06056281179189682,-0.4682241971222953,0.5138785033819921,-0.3032709221661919
5.559117078781128,0.0004203319549560547,0.0023559927940368652,0.006188631057739258,-0.037818871438503265,-0.045225027948617935,-0.060484517365694046,-0.46896024860038177,0.5133408007282921,-0.3035802418699504
5.568681001663208,0.00192338228225708,0.0033599138259887695,0.003527224063873291,-0.03025709092617035,-0.03999963775277138,-0.05986746400594711,-0.46966526716481855,0.5128253580348663,-0.30394081207988893
5.578896999359131,0.0022158920764923096,-6.076693534851074e-05,0.002232074737548828,-0.025403447449207306,-0.03709768131375313,-0.057161957025527954,-0.47030152330293107,0.5123165637059096,-0.3043354907276466
5.5885889530181885,0.0018961429595947266,-0.0020280778408050537,0.004544675350189209,-0.028694314882159233,-0.03632509708404541,-0.05829806253314018,-0.470950894520492,0.5118140597894639,-0.3047290117871983
5.598730087280273,0.0001271069049835205,-0.0029640793800354004,0.00685042142868042,-0.037508316338062286,-0.03638368844985962,-0.05770231410861015,-0.4716418034997875,0.5113230456337522,-0.30509435720088623
5.608630895614624,-0.00018388032913208008,-0.005192071199417114,0.011458158493041992,-0.0425342321395874,-0.037074510008096695,-0.05515686422586441,-0.47234442989604813,0.5108245210134733,-0.3054174904988245
5.618561029434204,-0.0023072361946105957,-0.002796262502670288,0.010595917701721191,-0.047728728502988815,-0.035705115646123886,-0.05551452562212944,-0.4730469397992667,0.5103412847387888,-0.3057086689872473
5.628539085388184,-0.003473728895187378,-0.0005649030208587646,0.00989300012588501,-0.05196235701441765,-0.033655811101198196,-0.05309850722551346,-0.47381438892077254,0.5099217613348092,-0.3059444951085171
5.638751983642578,-0.003145545721054077,0.0035753846168518066,0.009612083435058594,-0.05046406015753746,-0.03200651705265045,-0.05005025491118431,-0.4745117406612828,0.5095420214644237,-0.3061552664718951
5.648558855056763,-0.0038917064666748047,0.005152970552444458,0.006339311599731445,-0.04590262845158577,-0.03184104338288307,-0.053325142711400986,-0.47517420585047637,0.509160419199015,-0.3063874199728337
5.658761024475098,-0.002147585153579712,0.005158573389053345,0.007775843143463135,-0.037791941314935684,-0.03096894919872284,-0.052060142159461975,-0.4757171006464352,0.5087600917454737,-0.30665871813326046
5.668615102767944,-0.002858757972717285,0.008046180009841919,0.008301496505737305,-0.03256868198513985,-0.029802750796079636,-0.05641014873981476,-0.4761936102214657,0.5083389876817603,-0.30698466938635943
5.678745985031128,-0.006779462099075317,0.006414651870727539,0.007586240768432617,-0.03216781094670296,-0.027016017585992813,-0.05602148547768593,-0.4766731008532879,0.5079254437476434,-0.30734020673084766
5.688801050186157,-0.008260965347290039,0.003170192241668701,0.005799412727355957,-0.038895223289728165,-0.02603810653090477,-0.05294819548726082,-0.4771819775829851,0.5075625015765143,-0.307648459686863
5.698834180831909,-0.009365260601043701,0.0036381781101226807,0.008217573165893555,-0.04237695410847664,-0.02501806989312172,-0.05172745883464813,-0.4777718391055032,0.5072087668473464,-0.30793269067856177
5.708973169326782,-0.00923764705657959,0.0015064775943756104,0.008378088474273682,-0.0370439738035202,-0.021746376529335976,-0.04868612438440323,-0.4783681679446961,0.5068817990026206,-0.3081920853215838
5.718688011169434,-0.01113918423652649,-0.0009715855121612549,0.005737245082855225,-0.035044971853494644,-0.01985739730298519,-0.04828314110636711,-0.47899394350635716,0.5065826625554047,-0.30845626777495844
5.728859186172485,-0.009685248136520386,0.0013227462768554688,0.003356337547302246,-0.024060498923063278,-0.014446919783949852,-0.04417148604989052,-0.4795552073447797,0.5063062205363182,-0.30873952679211314
5.740511178970337,-0.007191896438598633,0.004315733909606934,0.00017684698104858398,-0.019189178943634033,-0.010494166053831577,-0.044485095888376236,-0.4800343070487828,0.5060824899817219,-0.30903221237848993
5.748708009719849,-0.0045413970947265625,0.0035733282566070557,-0.002222716808319092,-0.015665816143155098,-0.008213700726628304,-0.04137319326400757,-0.4805273217461826,0.5058765806872831,-0.309341337912788
5.7588560581207275,-0.0033061206340789795,0.0015766918659210205,-0.0011305809020996094,-0.014808560721576214,-0.008139532059431076,-0.03700763359665871,-0.48095502632896203,0.5056665843398035,-0.309634750179725
5.76877498626709,-0.004386603832244873,0.003935664892196655,-0.0007126927375793457,-0.00982232391834259,-0.0077448515221476555,-0.03311489149928093,-0.48128896329216014,0.5054445492975851,-0.3099205947395923
5.778920888900757,-0.005786418914794922,0.003314405679702759,-0.000379025936126709,-0.008339276537299156,-0.008734926581382751,-0.029309021309018135,-0.4815939850485187,0.5052324338055447,-0.31018464852220057
5.79324197769165,-0.0068032145500183105,0.00292128324508667,0.0035962462425231934,-0.010433852672576904,-0.008960495702922344,-0.026163563132286072,-0.48186538292452635,0.5050282985201725,-0.31041362430208885
5.80171799659729,-0.009493380784988403,0.004731267690658569,0.008105635643005371,-0.01679581217467785,-0.012581241317093372,-0.02265191823244095,-0.48211304795695664,0.5048107638889906,-0.31058982615585573
5.811654090881348,-0.011582016944885254,0.005799651145935059,0.00849992036819458,-0.012775236740708351,-0.011496801860630512,-0.018851853907108307,-0.4823710648969497,0.5046075452856087,-0.31072952987472063
5.818998098373413,-0.011922240257263184,0.004718989133834839,0.00510251522064209,-0.007505740039050579,-0.009098447859287262,-0.016934962943196297,-0.4825919211673729,0.504421425019613,-0.31087366213877476
5.828804016113281,-0.01251906156539917,0.0033153891563415527,0.0024105310440063477,-0.00859870109707117,-0.009354643523693085,-0.017267858609557152,-0.48276395958251983,0.5042373524975922,-0.31101741300659025
5.842353105545044,-0.011482000350952148,0.004219681024551392,0.0036979317665100098,-0.00875304825603962,-0.013687917962670326,-0.016882818192243576,-0.48291442713356547,0.5040454512507889,-0.31115488213961806
5.850171089172363,-0.011164933443069458,0.001660078763961792,0.004591524600982666,-0.012275079265236855,-0.015601931139826775,-0.015346706844866276,-0.48311684549754075,0.5038328479952244,-0.31126964953268504
5.861060857772827,-0.011671125888824463,0.000659257173538208,0.007134139537811279,-0.014059945940971375,-0.015922263264656067,-0.016151301562786102,-0.4833337522721034,0.5036038472528489,-0.3113711077758179
5.869060039520264,-0.012250274419784546,0.0038400888442993164,0.008867084980010986,-0.011618359014391899,-0.018549740314483643,-0.016222940757870674,-0.483584350904433,0.5033802952562263,-0.31147170426716586
5.879029989242554,-0.01146283745765686,0.0033022165298461914,0.007130563259124756,-0.01373184472322464,-0.019835248589515686,-0.014657001942396164,-0.48389897925997927,0.5031445697652952,-0.3115580223970883
5.890606164932251,-0.01048576831817627,0.0037873685359954834,0.009102702140808105,-0.01739528961479664,-0.01805359125137329,-0.013393065892159939,-0.48424729084929596,0.502910211383516,-0.31161556819676284
5.899152040481567,-0.010122805833816528,0.0027730166912078857,0.008516550064086914,-0.018561553210020065,-0.016776252537965775,-0.009972554631531239,-0.4845658888606545,0.5026917384760465,-0.31164432654662955
5.908962965011597,-0.00774344801902771,0.004725545644760132,0.007679879665374756,-0.01513166818767786,-0.017237510532140732,-0.0072454772889614105,-0.4848252301662004,0.5024729306138569,-0.31166537245973275
5.9189980030059814,-0.005590349435806274,0.0060538649559021,0.0034503936767578125,-0.013254673220217228,-0.014117972925305367,-0.009169930592179298,-0.48506581072693655,0.5022846958681768,-0.31168528440426974
5.929062128067017,-0.004213988780975342,0.005911827087402344,0.0028362274169921875,-0.015348982997238636,-0.012487852945923805,-0.005097425077110529,-0.48527812994093117,0.5021257243711138,-0.3116938619423926
5.940553903579712,-0.0053872764110565186,0.006563365459442139,0.002868175506591797,-0.017291424795985222,-0.013585873879492283,-0.007441699504852295,-0.48550759709871866,0.501973566186258,-0.31168157602221236
5.949050188064575,-0.004444479942321777,0.004562079906463623,0.0035935640335083008,-0.019381208345294,-0.011956817470490932,-0.006696014199405909,-0.48582080565310304,0.5018322916488153,-0.3116561501437048
5.958998918533325,-0.004916101694107056,0.002596557140350342,0.007356524467468262,-0.009809007868170738,-0.008743093349039555,-0.008083361200988293,-0.4860764371960539,0.5017077503795707,-0.31165724960867286
5.968941926956177,-0.0070705413818359375,0.002380847930908203,0.005228996276855469,0.0007349790539592505,-0.0017637470737099648,-0.01005010586231947,-0.4862686075484871,0.5016097920947364,-0.3117220862512686
5.97947096824646,-0.0070521533489227295,0.0029950737953186035,0.0027080178260803223,0.0045502400025725365,0.0013326662592589855,-0.008028820157051086,-0.486385113170317,0.5015410858599103,-0.31183072485164
5.990390062332153,-0.007225066423416138,0.0006554722785949707,0.0028652548789978027,0.008465087041258812,0.006122894119471312,-0.005781644023954868,-0.48645977761797526,0.5015299110869879,-0.3119390247141585
5.999027967453003,-0.00643080472946167,0.002045959234237671,0.003791332244873047,0.004538223147392273,0.008663905784487724,-0.005879116244614124,-0.4865266557762745,0.5015482800798413,-0.3120411003206495
6.009002923965454,-0.0072560906410217285,0.0016454756259918213,0.004946351051330566,-0.0007697236724197865,0.01085861586034298,-0.004360848106443882,-0.48661717754579603,0.5016155816637192,-0.31210331731648633
6.019107103347778,-0.0071578919887542725,-0.00017189979553222656,0.006024301052093506,-0.0069877225905656815,0.008669097907841206,-0.006291320081800222,-0.4867743406295428,0.5016920357717457,-0.31214015887137836
6.028995037078857,-0.008096903562545776,0.0008238255977630615,0.009970426559448242,-0.011598719283938408,0.00637851282954216,-0.007232214789837599,-0.48697712205267774,0.5017615233879977,-0.3121434966045576
