timestamp,accel_x,accel_y,accel_z,rotation_x,rotation_y,rotation_z, pitch,roll,yaw
0.042855024337768555,-0.0009497106075286865,0.0015486613847315311,0.011984527111053467,0.010725561529397964,-0.00446273572742939,0.018705572932958603,-0.005287299255861289,0.18750433246311568,0.0004971543888717354
0.056282997131347656,0.0003009289503097534,0.004519122187048197,0.013980090618133545,-0.0007142468821257353,-0.0078329648822546,0.013497602194547653,-0.005200744944999836,0.18744272369689757,0.0006413191666734193
0.06793498992919922,0.0017531663179397583,0.0006977501325309277,0.0160977840423584,-0.008250992745161057,-0.00553012965247035,0.010634969919919968,-0.005222678407472878,0.1873779120145597,0.0007632315367949835
0.07568812370300293,0.00020566582679748535,-0.0012758909724652767,0.01802748441696167,-0.010223595425486565,-0.00345286400988698,0.01392743643373251,-0.005288973096830645,0.18733786241319472,0.0009015544209360432
0.07893109321594238,-0.00010092556476593018,0.00031723128631711006,0.018212854862213135,-0.010167136788368225,0.0008092587813735008,0.012270417995750904,-0.005359061642716874,0.18732384936518462,0.0010459939706931826
0.08608007431030273,-0.004611745476722717,0.0032567596063017845,0.018247783184051514,-0.00579823786392808,0.011380543932318687,0.010806051082909107,-0.005425512281745436,0.1873801494378396,0.0011844825094908214
0.09438014030456543,-0.00864468514919281,0.0035028434358537197,0.013856887817382812,0.003809381974861026,0.01657157763838768,0.005297835450619459,-0.0054235694417181434,0.18752461208376398,0.0012701870379488505
0.1003730297088623,-0.008613750338554382,0.001985236071050167,0.012101292610168457,0.010352369397878647,0.016846414655447006,0.00548739917576313,-0.0053390054558537705,0.18769496551941978,0.0013054470141210086
0.11050701141357422,-0.010603591799736023,0.004780136980116367,0.013673782348632812,0.007526222616434097,0.0152482520788908,0.0014127629110589623,-0.00524491135069764,0.1878565001018978,0.0013283571353429422
0.12033510208129883,-0.009748607873916626,0.0044274539686739445,0.01500314474105835,0.00322869629599154,0.013883071020245552,-0.002300962107256055,-0.005200866478708062,0.1880112842944106,0.0013101400290383585
0.13071203231811523,-0.009702011942863464,-0.0024049263447523117,0.01225811243057251,-0.004656391218304634,0.015251935459673405,-0.0030056345276534557,-0.005212561719966321,0.18816578841805626,0.0012812012296416417
0.14067721366882324,-0.009602382779121399,-0.005413401406258345,0.009148001670837402,-0.006242369767278433,0.013765448704361916,-0.0004594394122250378,-0.005276093705642947,0.18831295194967818,0.0012781095530994128
0.1506788730621338,-0.007417812943458557,-0.0014278455637395382,0.0061647891998291016,-0.0018145982176065445,0.01186714693903923,-0.00141498155426234,-0.005318857362953764,0.1884346558647337,0.001280133689141185
0.1620190143585205,-0.008486434817314148,-0.0024539497680962086,0.003870666027069092,-0.0012304504634812474,0.00974571704864502,0.0015480514848604798,-0.005337880483212699,0.18854393469564037,0.0012848730143634134
0.1714000701904297,-0.005498707294464111,-0.0017870706506073475,0.0014046430587768555,-0.0006157928146421909,0.0018632931169122458,0.0018082422902807593,-0.005342394634214539,0.18859359753307287,0.0013097117328074847
0.18058109283447266,-0.004269465804100037,0.0005694814026355743,0.0020441412925720215,-0.0015093334950506687,0.0012311914470046759,0.002289262367412448,-0.005350951292919534,0.18860045348595247,0.0013309527779406885
0.19069790840148926,-0.0052767544984817505,-0.0013597272336483002,0.0027925968170166016,0.0007415702566504478,0.01261007972061634,0.0038860938511788845,-0.0053422948987630545,0.18867830552093945,0.00136126786372298
0.20067191123962402,-0.008672192692756653,-0.003326987847685814,-0.0016735196113586426,0.004528402350842953,0.004652510397136211,0.0013873029965907335,-0.005386950878254917,0.1887331109004389,0.0013933153618384713
0.2110459804534912,-0.0046885013580322266,0.0019959891214966774,-0.006187021732330322,0.00869571603834629,-0.012475610710680485,-0.0057036299258470535,-0.005267212929172634,0.18863860626735285,0.001357320883815875
0.2205641269683838,-7.860362529754639e-05,0.0014396468177437782,-0.001964271068572998,0.004809216596186161,-0.0181103702634573,-0.010112812742590904,-0.005121651271420395,0.1884192112624982,0.0012597240137979277
0.2305140495300293,0.0008893311023712158,-0.0016561849042773247,0.0023835301399230957,-0.008071961812675,-0.022164499387145042,-0.010017205029726028,-0.005135210824915901,0.1881794654808714,0.0011646331991093718
0.24068522453308105,0.0005330145359039307,-0.004846063908189535,0.0025772452354431152,-0.020134665071964264,-0.02986178919672966,-0.01576356031000614,-0.005258070941264494,0.18787439113871426,0.001072521130241778
0.2512340545654297,0.001995876431465149,-0.006091361399739981,0.0025078654289245605,-0.02324683591723442,-0.03805580362677574,-0.016186736524105072,-0.005481033349490748,0.18750387501895638,0.0009477853946188039
0.261242151260376,0.0038959085941314697,-0.006110879126936197,0.005980193614959717,-0.015547554939985275,-0.03382426127791405,-0.013282612897455692,-0.0057141757639101775,0.18712330196527077,0.0008383463612662425
0.2706749439239502,0.003247380256652832,-0.003516226075589657,0.007170677185058594,-0.011271849274635315,-0.02800738625228405,-0.0053392029367387295,-0.005835594831434894,0.18678957720164152,0.0007686353404799965
0.28079700469970703,-0.0016417354345321655,-0.004010530188679695,0.007102012634277344,-0.004153203219175339,-0.0197755116969347,-0.001607741229236126,-0.005856871995868813,0.18650097468358628,0.000750946680412169
0.290693998336792,0.000888332724571228,-0.007838670164346695,0.009473323822021484,0.0022793959360569715,-0.01585853472352028,0.0034011323004961014,-0.005885577286250197,0.186302072790016,0.0007631160355839171
0.3008229732513428,0.0018176436424255371,-0.009743062779307365,0.013542652130126953,0.004311021417379379,-0.012119279243052006,0.008715949952602386,-0.005852103664976562,0.18616379714955383,0.0008134053583404154
0.3114039897918701,0.0025517642498016357,-0.00799465924501419,0.01807457208633423,0.006292412988841534,-0.0073024192824959755,0.012461685575544834,-0.0057516496341974595,0.18608432416552464,0.0009081016137622764
0.32085204124450684,0.00456547737121582,-0.006693403236567974,0.01741272211074829,0.005145023576915264,-0.006982218939810991,0.014836318790912628,-0.005579535462926884,0.18603801424810887,0.001042013564863921
0.3314690589904785,0.005411058664321899,-0.004299618303775787,0.01634007692337036,0.0021771970205008984,-0.009433126077055931,0.01322856917977333,-0.00541353620010745,0.18598480299961284,0.0011727697261223907
0.34087395668029785,0.007349938154220581,2.9793009161949158e-06,0.014872312545776367,0.0013174787163734436,-0.009343776851892471,0.007834123447537422,-0.005291841801966687,0.18592154659686186,0.001276419349793217
0.3508479595184326,0.006960749626159668,0.0012197201140224934,0.01353985071182251,-0.0025736659299582243,-0.007942954078316689,0.0059254365041852,-0.005234767769369359,0.18586723361851348,0.001341137801310893
0.3613870143890381,0.00323699414730072,0.0038889916613698006,0.013886868953704834,-0.01238060649484396,-0.004720751196146011,-0.0007092439336702228,-0.00525104397412128,0.18580575392587537,0.0013825004339268815
0.37087512016296387,0.002821013331413269,0.0028485399670898914,0.011340558528900146,-0.01397530734539032,-0.0010434584692120552,-0.00980127602815628,-0.005284413200834545,0.18579434303331746,0.0013576878951943481
0.38092899322509766,0.003018498420715332,0.0018325862474739552,0.008484065532684326,-0.010515960864722729,1.3549812138080597e-05,-0.016484638676047325,-0.0052932879503881725,0.18581077304939608,0.0012560304176677704
0.3908350467681885,0.0003826022148132324,0.002574404701590538,0.008638381958007812,-0.0034231641329824924,0.006961470935493708,-0.01832594722509384,-0.005283891799394677,0.18588442425993917,0.0011035647267226216
0.4010300636291504,-0.0012594610452651978,0.002987399697303772,0.0074083805084228516,-0.002124939812347293,0.010735792107880116,-0.01609720289707184,-0.005252369410185071,0.186018147786567,0.0009411607242458615
0.41237902641296387,-0.002468779683113098,0.0030039530247449875,0.004382610321044922,0.003012297907844186,0.018092507496476173,-0.017274850979447365,-0.00522055374635282,0.18620839765552794,0.0007742847390427022
0.42090487480163574,-0.003247201442718506,-0.0023382287472486496,0.0031281709671020508,0.0017344465013593435,0.02238374948501587,-0.015105227008461952,-0.005222159420282565,0.1864726057158965,0.0006054718770625292
0.4308900833129883,-0.0040838271379470825,-0.006792852655053139,0.000919640064239502,0.008185953833162785,0.028305819258093834,-0.009814324788749218,-0.005205956531754501,0.18678050860183001,0.00047123831299638507
0.44088101387023926,-0.0029175132513046265,-0.008931774646043777,0.0008023977279663086,0.01699003204703331,0.025248954072594643,-0.007134652696549892,-0.005162875310787772,0.18708430042167987,0.0003668389022418947
0.450916051864624,-0.0013189315795898438,-0.011697536334395409,0.0012224912643432617,0.016480568796396255,0.011043386533856392,-0.0071511645801365376,-0.00504472469853597,0.18728972899071897,0.00026822946318985836
0.4627048969268799,0.0036275237798690796,-0.010567714460194111,0.004382669925689697,0.004221007227897644,0.0011227568611502647,-0.005168440751731396,-0.004983019074940964,0.18736467018115266,0.00018818421008122467
0.4709351062774658,0.005290001630783081,-0.010910073295235634,0.0022211074829101562,-0.01343255490064621,-0.0062195779755711555,-0.0050145098939538,-0.005081237550540145,0.18733443260770768,0.0001470606705057688
0.48099803924560547,0.002966463565826416,-0.013752253726124763,-0.001181483268737793,-0.01854124665260315,-0.009819062426686287,-0.002325889188796282,-0.005298904620193897,0.1872457537209707,0.00014386105126825224
0.49128007888793945,0.0007918179035186768,-0.012707589194178581,-0.0012467503547668457,-0.014584588818252087,-0.014849241822957993,5.737354513257742e-05,-0.0055054692168894255,0.18709869073752164,0.0001660572245503071
0.5010931491851807,-0.0012852400541305542,-0.0060938019305467606,0.002278625965118408,-0.004364591557532549,-0.014049982652068138,0.0014824311947450042,-0.005559766500935779,0.18692980335952877,0.00019269256004589825
0.5113232135772705,-0.004243835806846619,-0.0009085275232791901,0.0014079809188842773,0.0024546985514461994,-0.01062995009124279,0.000996137852780521,-0.005470933697740464,0.1867727965592457,0.00021119397961989262
0.5210380554199219,-0.007717907428741455,-0.0007951152510941029,0.0036368966102600098,0.010725710541009903,-0.00013656308874487877,0.0005367959383875132,-0.005281219902375044,0.1866899485364848,0.0002085465471681326
0.5310828685760498,-0.011609986424446106,0.0027886065654456615,0.006452441215515137,0.014723649248480797,0.010576801374554634,-0.0029314386192709208,-0.004993392459468223,0.18673734487594543,0.00017292090783817043
0.541053056716919,-0.01421310007572174,0.002889506984502077,0.008147656917572021,0.02118111401796341,0.017408519983291626,-0.006666415371000767,-0.004678866342368438,0.18690163851052313,9.425345445901745e-05
0.5510861873626709,-0.01312035322189331,0.0024381177499890327,0.009529650211334229,0.02299446053802967,0.016848724335432053,-0.014002891257405281,-0.004336796983521492,0.1871092252630945,-5.486988974382559e-05
0.5612630844116211,-0.010138988494873047,0.004082345403730869,0.010916650295257568,0.02183951437473297,0.015873650088906288,-0.019894016906619072,-0.003974305829580703,0.18728929793081062,-0.0002683951228125315
0.5712110996246338,-0.005797281861305237,0.005889476276934147,0.008433818817138672,0.01925571635365486,0.012284774333238602,-0.02396439202129841,-0.003662528640681912,0.1874360257872926,-0.0005224848951040811
0.5811669826507568,-0.003145188093185425,0.0039499541744589806,0.005914092063903809,0.013083023950457573,0.008171656168997288,-0.026691894978284836,-0.0034963390144071124,0.1875320766037822,-0.0008066840849166909
0.5911991596221924,-0.002686932682991028,0.0033656193409115076,0.006109774112701416,0.008233143016695976,-0.0008868202567100525,-0.03154497593641281,-0.0034550655020344745,0.1875470841881437,-0.001118560738644765
0.6011531352996826,0.0009677261114120483,0.0014129390474408865,0.006913304328918457,0.0009469334036111832,-0.0001629735343158245,-0.03137144446372986,-0.003485135957109771,0.1874925653190132,-0.001422818834028881
0.6112010478973389,0.0018481910228729248,-0.0019103384111076593,0.0058678388595581055,-0.0025380791630595922,0.0020815387833863497,-0.026814240962266922,-0.0036040705951985667,0.18745068122892744,-0.0017014170097145037
0.6212220191955566,0.0006801038980484009,-0.0025421681348234415,0.004094958305358887,-0.002247178927063942,-0.0015198090113699436,-0.022924214601516724,-0.0037323590964807325,0.18738168256382837,-0.0019459088495202568
0.6313540935516357,0.0016100257635116577,-0.002608882263302803,0.004551351070404053,-0.0019065606174990535,-0.0020716157741844654,-0.01681678742170334,-0.003829590455535963,0.1873049757891009,-0.0021393037450533675
0.6411421298980713,0.003299534320831299,-0.002343993168324232,0.004561722278594971,-0.004643790889531374,-0.0019239881075918674,-0.008268306963145733,-0.003930912797050231,0.18724722527555515,-0.002259373553972384
0.6512601375579834,0.0031983256340026855,-0.0006541977636516094,0.0044640302658081055,-0.010661469772458076,-0.005239624064415693,-0.008665118366479874,-0.004087434230202315,0.18719505184325694,-0.0023239210621986556
0.662067174911499,0.0026047825813293457,-0.005103403702378273,0.004099488258361816,-0.014820411801338196,-0.01077362708747387,-0.008047265000641346,-0.004264176500947618,0.18710042115182723,-0.0023821114441478354
0.6712501049041748,0.005589231848716736,-0.0054801879450678825,0.007620513439178467,-0.015699787065386772,-0.017907969653606415,-0.007886409759521484,-0.004457863181266662,0.18695168029251788,-0.002432275895702266
0.6813530921936035,0.006695270538330078,-0.0006600725464522839,0.008754312992095947,-0.016051124781370163,-0.022698376327753067,-0.010180509649217129,-0.004642629859495859,0.18675794648213126,-0.0024976193803035655
0.6913449764251709,0.006301373243331909,-0.0031998860649764538,0.012041747570037842,-0.016198132187128067,-0.0219417717307806,-0.009957603178918362,-0.004786816645502914,0.18655331835590624,-0.0025735568576705967
0.7013490200042725,0.003953173756599426,-0.003867026884108782,0.010855376720428467,-0.012728547677397728,-0.016812479123473167,-0.009043766185641289,-0.004904638265241087,0.18636540032022067,-0.0026352857055546262
0.7120850086212158,0.003224313259124756,-0.0026936433278024197,0.008867263793945312,-0.011654762551188469,-0.014978094026446342,-0.007078886032104492,-0.004997735339969538,0.18622212065054258,-0.0027011206140045555
0.721386194229126,0.002563565969467163,-0.0017468775622546673,0.009438395500183105,-0.0063401744700968266,-0.012261269614100456,-0.007558681070804596,-0.005058052209619859,0.18610266552695395,-0.002752997144295308
0.7312850952148438,0.0025902986526489258,-0.002373711671680212,0.011944711208343506,-0.004583020694553852,-0.012201881036162376,-0.009107309393584728,-0.005105051770585889,0.18599786555884584,-0.002825530840087882
0.7412688732147217,0.0013119280338287354,-0.0034212549217045307,0.016018569469451904,-0.007812486030161381,-0.006448077037930489,-0.008333074860274792,-0.00509973797024958,0.18591679462777927,-0.002909047578228044
0.7513401508331299,0.0011980831623077393,-0.007579512894153595,0.014994680881500244,-0.010886040516197681,-0.0014570471830666065,-0.007992456667125225,-0.005138126178397494,0.1859240013866055,-0.0029689268752169707
0.7619540691375732,0.0010523945093154907,-0.007326516788452864,0.011477291584014893,-0.010791948065161705,-3.807060420513153e-05,-0.006840959191322327,-0.0052513405716779595,0.18596366649853394,-0.0030276238211840063
0.7713580131530762,0.0020842254161834717,-0.005657720845192671,0.009682178497314453,-0.0009760686662048101,0.0010644779540598392,-0.006946686655282974,-0.0052762710128671205,0.18601613780060466,-0.0030825238436938463
0.7814152240753174,0.0035073459148406982,-0.003639018163084984,0.008972704410552979,0.002976927673444152,0.002812043996527791,-0.002437582239508629,-0.005225955219161711,0.18605853818966323,-0.003127551322344909
0.7913930416107178,0.00314176082611084,-0.0010015401057898998,0.007176458835601807,0.006633714772760868,0.005769484676420689,-0.0011363617377355695,-0.005136694483979079,0.18611993350010264,-0.003159508324477383
0.8015182018280029,0.000903397798538208,-0.0028176666237413883,0.005604207515716553,0.00550425099208951,0.006745311431586742,-0.0021890560165047646,-0.005045470949363237,0.1862082570088206,-0.0031785861174167046
0.8117239475250244,0.0019434243440628052,-0.005970693193376064,0.00480961799621582,0.008516285568475723,0.008410053327679634,-0.003278555115684867,-0.0049636306904225465,0.18629886201029672,-0.003217530822450549
0.8214681148529053,0.0008616596460342407,-0.003867620136588812,0.004042863845825195,0.01496681198477745,0.00717385858297348,-0.00046204932732507586,-0.0048136805854837586,0.18640579038235383,-0.003259014162616848
0.8314511775970459,-0.0001643747091293335,-0.0017032348550856113,0.0023382902145385742,0.02687353827059269,0.0022464776411652565,0.000780847854912281,-0.0045261220852304065,0.18647139771712523,-0.0032927009125832416
0.841386079788208,0.00022323429584503174,0.0009788377210497856,0.0029639601707458496,0.038262732326984406,-0.0034569925628602505,0.002111150184646249,-0.004117606020402511,0.18648034857490434,-0.003340998746818933
0.8514931201934814,0.001315191388130188,0.003571690060198307,0.0011268854141235352,0.041688356548547745,-0.00792151503264904,0.004950612783432007,-0.003660977902519509,0.1864402099133268,-0.00338159467688774
0.8618772029876709,0.000567704439163208,0.00464588962495327,0.00031870603561401367,0.03210144117474556,-0.010102111846208572,0.002940884791314602,-0.0032581639652925687,0.18636212704244362,-0.003414035611007884
0.8714940547943115,-4.1604042053222656e-05,-0.0016309826169162989,0.0009625554084777832,0.018888168036937714,-0.013138115406036377,0.0033257114700973034,-0.0030195348622316306,0.18626776168251885,-0.0034296969691375305
0.8813889026641846,-0.0008663982152938843,-0.004002542234957218,0.0014435648918151855,0.007646697573363781,-0.015419378876686096,-0.00015024642925709486,-0.002888649594278516,0.1861442905877347,-0.0034416220058403144
0.8913969993591309,-0.0005544573068618774,-0.004314935766160488,0.0039514899253845215,0.00298589956946671,-0.02524937316775322,-0.004379612393677235,-0.0028043147212599086,0.18595103094483287,-0.003463783381991501
0.9015400409698486,0.0012823045253753662,-0.0028605533298105,0.006232023239135742,0.0031408953946083784,-0.031414058059453964,-0.007985533215105534,-0.002769001976262218,0.18566575878774516,-0.0035239894463843756
0.9127099514007568,0.0023941248655319214,0.0013803583569824696,0.008705615997314453,0.005266097374260426,-0.035619720816612244,-0.010105941444635391,-0.0027395130138820555,0.18532629458424488,-0.003617886228894216
0.9214599132537842,-0.002696797251701355,0.002295122016221285,0.007503032684326172,0.001327282516285777,-0.03481225296854973,-0.011664689518511295,-0.0027555357272328208,0.18497914288699005,-0.0037312443066332872
0.931657075881958,-0.0021865367889404297,0.0031918706372380257,0.006630241870880127,-0.004161675460636616,-0.030684130266308784,-0.015789074823260307,-0.0028506109174264303,0.18466190789511563,-0.003864190117907389
0.941572904586792,-0.003971114754676819,0.0024151597172021866,0.005683779716491699,-0.002372347516939044,-0.020112846046686172,-0.015165308490395546,-0.0029711969730940526,0.184412899930242,-0.004016521578836323
0.9515678882598877,-0.00744059681892395,0.0007718617562204599,0.00787508487701416,0.0064262039959430695,-0.010280720889568329,-0.012551948428153992,-0.002966542786223611,0.18427903457264555,-0.00415706658066605
0.9619040489196777,-0.010331317782402039,0.005669744685292244,0.00888592004776001,0.015652110800147057,-0.01062040776014328,-0.01356608048081398,-0.002829400402801596,0.18417723581669146,-0.004301365724448787
0.9716699123382568,-0.008939608931541443,0.008176990784704685,0.01187676191329956,0.01861514337360859,-0.007750052958726883,-0.013886990956962109,-0.0026262299045719632,0.18409631279520408,-0.004463599018496239
0.9817390441894531,-0.005563125014305115,0.006119491532444954,0.011297047138214111,0.009006490930914879,-0.010821742936968803,-0.017542924731969833,-0.002486462550444752,0.1840142793952938,-0.0046471899314167375
0.9915769100189209,-0.004419848322868347,0.0036694377195090055,0.01041632890701294,-0.008767180144786835,-0.01610119268298149,-0.021171748638153076,-0.002525631294775266,0.1839068129415286,-0.004843678908401567
1.0016460418701172,-0.00013136863708496094,-0.00453289644792676,0.012412488460540771,-0.024979805573821068,-0.015069128945469856,-0.026488855481147766,-0.002808657312180134,0.1837509480460908,-0.00504986711720498
1.01192307472229,0.001694023609161377,-0.006486648693680763,0.013752579689025879,-0.0364505760371685,-0.0330694355070591,-0.01324841845780611,-0.003190756235281795,0.18350863339058415,-0.005203732957688915
1.021665096282959,0.003354877233505249,-0.0023584368173033,0.012982010841369629,-0.04569428786635399,-0.04010963439941406,-0.01982983574271202,-0.003655439248982119,0.1831233450879642,-0.00527351291329301
1.031738042831421,0.01143142580986023,0.002508548554033041,1.3530254364013672e-05,-0.05081687867641449,-0.042585041373968124,-0.02175290510058403,-0.0041748136757419636,0.18268450068707842,-0.00539719261868082
1.0417358875274658,0.007374212145805359,-0.005583486054092646,-0.0029464364051818848,-0.048857372254133224,-0.03756813704967499,-0.01819119043648243,-0.004759524883937132,0.18224886901050313,-0.005494223934525672
1.0517051219940186,0.0007196664810180664,-0.0004235953092575073,0.0025890469551086426,-0.03987346589565277,-0.04011784493923187,-0.017333652824163437,-0.005291172120837299,0.1818321595561023,-0.005583851759221999
1.0619490146636963,-0.004104509949684143,0.006507284939289093,0.011124908924102783,-0.030962761491537094,-0.036397941410541534,-0.014356187544763088,-0.00571503495283803,0.18144718582280686,-0.005682478963636419
1.071702003479004,-0.006626218557357788,0.0023031416349112988,0.015432357788085938,-0.03449331596493721,-0.021796630695462227,-0.013337794691324234,-0.006073970860497725,0.1811569028163857,-0.005744896196442835
1.0819270610809326,-0.00962790846824646,-0.002211610320955515,0.014892101287841797,-0.0320620983839035,-0.011713234707713127,-0.007745528593659401,-0.0063315187302694425,0.1810132029240691,-0.005781641227189459
1.0919559001922607,-0.010402664542198181,-0.002679379191249609,0.010523319244384766,-0.026766138151288033,-0.007894795387983322,-0.008205456659197807,-0.006524635376634184,0.18094790334360614,-0.005794087942570093
1.1036810874938965,-0.005876332521438599,-0.0016865707002580166,0.010996699333190918,-0.02503867819905281,-0.0003855684772133827,-0.00436342041939497,-0.006737280757600936,0.1809382692970612,-0.00581599532743688
1.1127870082855225,-0.004438653588294983,-0.004162596073001623,0.01254415512084961,-0.006949156057089567,-0.002736074384301901,0.0014944687718525529,-0.006909230708889727,0.18098160742935013,-0.005803456158920725
1.1218481063842773,-0.0024646520614624023,0.000788368284702301,0.012948215007781982,0.0042713903822004795,-0.011085396632552147,0.0074974470771849155,-0.0068105599707480825,0.18094473326517815,-0.005762485306496447
1.131897211074829,0.0019352138042449951,0.00649570906534791,0.008650660514831543,-0.005715463310480118,-0.012532824650406837,0.005950949154794216,-0.006779488132211006,0.18083069600486923,-0.0056834247484202575
1.141855001449585,0.00660020112991333,0.0023200358264148235,0.004029512405395508,-0.02114793285727501,-0.008778698742389679,0.007702936418354511,-0.006957359478722815,0.18072661522194455,-0.0056019608493503275
1.1518371105194092,0.004838660359382629,-0.004005768336355686,0.0014644265174865723,-0.028034068644046783,-0.008155252784490585,0.003461053129285574,-0.0072101750588142634,0.1806407547267998,-0.005502907055992199
1.1621100902557373,0.0026190578937530518,-0.0009993771091103554,0.0033632516860961914,-0.02859814092516899,-0.011697923764586449,0.0005207635695114732,-0.007453910620501106,0.1805086591702857,-0.005439956906017745
1.171856164932251,0.0031558722257614136,0.002622157335281372,0.0059893131256103516,-0.027259372174739838,-0.019058633595705032,-0.003889431245625019,-0.007692859459458968,0.18032005643372853,-0.005406406449390413
1.1817901134490967,0.0037860870361328125,0.003446015529334545,0.007771790027618408,-0.0356457345187664,-0.027742313221096992,-0.010707177221775055,-0.007982901413218797,0.18006764233843262,-0.005425200603002757
1.1917099952697754,0.00487402081489563,0.0009722895920276642,0.008664190769195557,-0.04831146076321602,-0.03445854038000107,-0.01284409686923027,-0.008366184481894483,0.17975336264683897,-0.005466412913301907
1.2017199993133545,0.007071211934089661,-6.409361958503723e-06,0.006998658180236816,-0.06275662779808044,-0.03582309931516647,-0.017684178426861763,-0.008932919348492168,0.1793976474180466,-0.005527670733451013
1.211756944656372,0.0061027854681015015,-0.005885127000510693,0.009309649467468262,-0.0647212415933609,-0.033370595425367355,-0.01718110777437687,-0.00965419661765738,0.1790649238537548,-0.005597474019543461
1.2216980457305908,0.004692494869232178,-0.006112905219197273,0.011261940002441406,-0.05542508140206337,-0.030688878148794174,-0.01239231787621975,-0.010278730841476742,0.1787780053012475,-0.005635945509116565
1.2317421436309814,0.003140270709991455,-0.0021973997354507446,0.012041866779327393,-0.06396317481994629,-0.0332455150783062,-0.020955445244908333,-0.010803563690138223,0.1784801276453934,-0.005695016068274774
1.2417008876800537,0.0031844675540924072,-0.0028041768819093704,0.012214899063110352,-0.0530649870634079,-0.03889913856983185,-0.019815079867839813,-0.01137985840839224,0.17815728503503275,-0.005808424052874503
1.2517850399017334,0.0064942240715026855,-0.007283346727490425,0.014584779739379883,-0.03615923970937729,-0.044062208384275436,-0.00851661991328001,-0.011830737553597115,0.17775651313114935,-0.0058729210946252865
1.2618401050567627,0.007714495062828064,-0.0028748223558068275,0.02071404457092285,-0.049310147762298584,-0.0478166863322258,-0.005661551840603352,-0.012244019975370921,0.17732375249959964,-0.005871609502866717
1.2717750072479248,0.004224851727485657,-0.00816090777516365,0.024333298206329346,-0.08054342865943909,-0.040810175240039825,-0.010222481563687325,-0.012860967306340208,0.17691739242989682,-0.005833946821409141
1.2818410396575928,0.0025188326835632324,-0.02597459778189659,0.025611817836761475,-0.10989785939455032,-0.029986117035150528,-0.009481376968324184,-0.013783256218964562,0.1766065272544588,-0.005766401743926198
1.2918479442596436,0.0004581362009048462,-0.02476358413696289,0.020878314971923828,-0.13208705186843872,-0.02879568189382553,-0.009071783162653446,-0.014891695026758146,0.1763621257550218,-0.005639097578537565
1.3019201755523682,0.0010913610458374023,-0.013455042615532875,0.015110492706298828,-0.16835637390613556,-0.035466283559799194,-0.022572090849280357,-0.016309158150549362,0.17606381755651868,-0.005529349604064702
1.3118970394134521,0.0008255839347839355,-0.020589806139469147,0.01794588565826416,-0.18939347565174103,-0.035044699907302856,-0.032012466341257095,-0.018073080886074913,0.17573465212589973,-0.00548425337626539
1.3222649097442627,0.0008661448955535889,-0.02973387949168682,0.022033751010894775,-0.2389056533575058,-0.055486101657152176,-0.051635805517435074,-0.020152718113466517,0.17534402324354245,-0.005522482096983775
1.331921100616455,-0.0009298324584960938,-0.01852107048034668,0.0232774019241333,-0.30067288875579834,-0.07320145517587662,-0.08716051280498505,-0.022810764844852387,0.17471402479573028,-0.0057314485562188966
1.342344045639038,0.009397178888320923,-0.020355001091957092,0.02469736337661743,-0.33089837431907654,-0.0886751338839531,-0.10086487233638763,-0.026034206400086957,0.1739097446103927,-0.0061465304832637666
1.3545448780059814,0.0135764479637146,-0.021985957399010658,0.01760685443878174,-0.3928632140159607,-0.12429304420948029,-0.10945622622966766,-0.029589143363435808,0.17287489468256975,-0.006549188133187435
1.3620450496673584,0.010511055588722229,-0.011129207909107208,0.01055055856704712,-0.594906747341156,-0.15043862164020538,-0.15936264395713806,-0.03434457166313094,0.17150509709002743,-0.006998422865806591
1.3722069263458252,0.009285405278205872,-0.04329141601920128,0.020769178867340088,-0.7494949698448181,-0.12347038835287094,-0.21839693188667297,-0.041166806837727124,0.17012901015901524,-0.007742707424029327
1.382293939590454,0.007241755723953247,-0.07723221182823181,0.017894268035888672,-0.8305892944335938,-0.17935651540756226,-0.22970302402973175,-0.049068905047554054,0.1686238411230968,-0.008643208398281017
1.3921029567718506,0.0017189383506774902,-0.05015519633889198,0.0265844464302063,-1.0256892442703247,-0.23756763339042664,-0.27003926038742065,-0.0585810188600885,0.1664624130799595,-0.009553911093219562
1.4020750522613525,0.006769582629203796,-0.03817179799079895,0.047751665115356445,-1.1948212385177612,-0.23158487677574158,-0.30321425199508667,-0.07012010577895827,0.16402863900752546,-0.010575479336426552
1.412329912185669,0.011835098266601562,-0.07821336388587952,0.03821265697479248,-1.260095238685608,-0.279935359954834,-0.2917754352092743,-0.08274806395553662,0.1614583072889912,-0.011522135833137786
1.4221289157867432,0.008844435214996338,-0.051215820014476776,0.03257721662521362,-1.3450547456741333,-0.35786131024360657,-0.29364991188049316,-0.09608711455926969,0.1581128843478128,-0.012340328634475518
1.4322359561920166,0.017061322927474976,-0.006085671484470367,0.061346352100372314,-1.4757843017578125,-0.40710821747779846,-0.2840375006198883,-0.1104513286397611,0.15423958514206929,-0.013021818150699263
1.442375898361206,0.026693493127822876,-0.016586676239967346,0.058901190757751465,-1.5945477485656738,-0.4630892872810364,-0.26401546597480774,-0.1260972090081814,0.14984118255771092,-0.0133963526250699
1.4526112079620361,0.02501748502254486,-0.02544213831424713,0.03230375051498413,-1.7974417209625244,-0.5639793872833252,-0.3229474723339081,-0.1431177007230346,0.14470098808150972,-0.013762100889454437
1.4622690677642822,0.03491123020648956,-0.0519954115152359,-0.0039885640144348145,-2.0716640949249268,-0.5987367033958435,-0.3664665222167969,-0.16271304589476915,0.13877814481474507,-0.014478280039411628
1.4722349643707275,0.04723261296749115,-0.08682917058467865,-0.043451905250549316,-2.428838014602661,-0.6571129560470581,-0.39098623394966125,-0.18559482685427722,0.13245478984449263,-0.015227541854629463
1.4822850227355957,0.04866420477628708,-0.10150028765201569,-0.08412152528762817,-2.805565118789673,-0.7110971212387085,-0.38580718636512756,-0.2120800401797583,0.12547378226711156,-0.015734744585756067
1.492509126663208,0.03380653262138367,-0.13242053985595703,-0.08175426721572876,-2.9599123001098633,-0.4629482924938202,-0.40580621361732483,-0.2413076983335347,0.11926091679931522,-0.016137959742120657
1.5023319721221924,-0.005134887993335724,-0.1625562608242035,-0.1065482497215271,-3.176737070083618,-0.26569682359695435,-0.45031729340553284,-0.2723245460474091,0.11564753768069755,-0.01673011106857417
1.5122601985931396,-0.07463639974594116,-0.11043328046798706,-0.017854273319244385,-3.182697296142578,-0.3682623505592346,-0.5501269698143005,-0.3047015103178138,0.11222648813730343,-0.01820169991053131
1.5223891735076904,-0.06456298381090164,-0.11224308609962463,0.1295793056488037,-3.0837042331695557,-0.5032988786697388,-0.5694613456726074,-0.3364988760921799,0.10709337732555502,-0.020462429618025746
1.5324151515960693,0.001629941165447235,-0.023102492094039917,0.07971000671386719,-3.019493818283081,-0.6047602295875549,-0.6106410026550293,-0.36741890208534606,0.10057787223733101,-0.023314243926833546
1.5424480438232422,0.05032193660736084,0.11374214291572571,-0.002957940101623535,-3.0524115562438965,-0.6409927010536194,-0.6258442997932434,-0.39827561442982085,0.09288993913680621,-0.02685112705669417
1.5523810386657715,0.042633332312107086,0.013086199760437012,-0.02066957950592041,-2.8660082817077637,-0.5007488131523132,-0.5753464698791504,-0.42847854348680203,0.08575935802675189,-0.030501420771586588
1.5623900890350342,0.007946588099002838,-0.020018726587295532,-0.06415194272994995,-2.654762029647827,-0.5580489635467529,-0.5531017780303955,-0.4564672279519554,0.07897914001426827,-0.03420150745007811
1.57236909866333,-0.013795539736747742,0.07214963436126709,-0.08831089735031128,-2.526937484741211,-0.5164644718170166,-0.48866206407546997,-0.4827102976417417,0.07176273054024028,-0.03790273945677175
1.5824151039123535,0.027591057121753693,0.03650784492492676,-0.088345468044281,-2.419891595840454,-0.4393358528614044,-0.45775508880615234,-0.5076977289584166,0.06541783059134834,-0.0413012944771873
1.5924851894378662,0.017503108829259872,-0.013391494750976562,-0.09678769111633301,-2.3050858974456787,-0.43431153893470764,-0.42342135310173035,-0.5316452952541209,0.059335416997954346,-0.04472642974288796
1.602442979812622,-0.017101503908634186,-0.0041724443435668945,-0.027860581874847412,-2.246439218521118,-0.4079195559024811,-0.3813283145427704,-0.5545455953388783,0.05347199487894221,-0.04788591469225855
1.6124179363250732,-0.018497120589017868,-0.021884024143218994,0.004094958305358887,-2.306133270263672,-0.3692699074745178,-0.3808036744594574,-0.5774645031978254,0.047883073072260904,-0.05104983392422183
1.6224582195281982,-0.018608547747135162,-0.060750484466552734,0.016707420349121094,-2.369480609893799,-0.3122600018978119,-0.36347758769989014,-0.6009974218977261,0.042722118205605265,-0.05425975875670923
1.6325829029083252,-0.015996647998690605,-0.09121203422546387,0.028367340564727783,-2.3446810245513916,-0.3166680634021759,-0.3462490737438202,-0.6248256855741867,0.03775500980921428,-0.057440658174338105
1.6446521282196045,-0.00464167445898056,-0.0664834976196289,0.03029400110244751,-2.360581159591675,-0.3449139893054962,-0.3476725220680237,-0.648439944854189,0.032516984474374344,-0.06070281393166342
1.652637004852295,0.010880999267101288,-0.04399693012237549,0.014238476753234863,-2.482905387878418,-0.34420427680015564,-0.3632911741733551,-0.6726979748034905,0.026806503120508668,-0.06428858081282408
1.664621114730835,0.02248344011604786,-0.09474730491638184,-0.0025896430015563965,-2.5919978618621826,-0.3221931457519531,-0.34690070152282715,-0.698203925441362,0.021087452172521965,-0.06808487659756286
1.6725680828094482,0.020784784108400345,-0.11392027139663696,-0.006745874881744385,-2.612438917160034,-0.3334333002567291,-0.3292117118835449,-0.7244014427412141,0.015319436190560759,-0.07194139927234264
1.68265700340271,0.011937892064452171,-0.059216201305389404,0.0009338855743408203,-2.6371986865997314,-0.36905795335769653,-0.32100895047187805,-0.7506657328095958,0.009153143287313726,-0.07587254923299287
1.6946780681610107,0.01679496094584465,-0.041504621505737305,-0.0010266304016113281,-2.7007157802581787,-0.3848283886909485,-0.3231213688850403,-0.7773617885753245,0.0024473691804245516,-0.08010727633457305
1.702646017074585,0.026326334103941917,-0.06790226697921753,-0.007677197456359863,-2.775130271911621,-0.3992493748664856,-0.3160388767719269,-0.8048169349713497,-0.004761548828297314,-0.08472110123240767
1.7125232219696045,0.023562928661704063,-0.05224609375,-0.01939249038696289,-2.7941884994506836,-0.3832906484603882,-0.29177480936050415,-0.8326701659780923,-0.012182435650663861,-0.08952895146999344
1.7226650714874268,0.01811353862285614,-0.04258459806442261,-0.044698238372802734,-2.8024628162384033,-0.3928585350513458,-0.293245404958725,-0.8606047894342433,-0.01987333275993466,-0.09460111751765199
1.733036994934082,0.022017313167452812,-0.035044968128204346,-0.054589271545410156,-2.848430633544922,-0.44556862115859985,-0.30701926350593567,-0.888801597422619,-0.028445550506930997,-0.10028292357245483
1.7441329956054688,0.02584451623260975,-0.05779606103897095,-0.031350672245025635,-2.930298328399658,-0.4448421001434326,-0.33956751227378845,-0.9175901718685714,-0.03826710574171297,-0.10713309693285532
1.7525169849395752,0.019100813195109367,-0.11074042320251465,-0.008668780326843262,-2.9928183555603027,-0.40772750973701477,-0.39048025012016296,-0.9470021378549319,-0.04899438220850837,-0.11523859348552279
1.7626330852508545,-0.00630396232008934,-0.11335355043411255,-0.010398328304290771,-2.9367599487304688,-0.3995126187801361,-0.47883927822113037,-0.976782368328581,-0.06197725443795991,-0.12592613819014614
1.7726609706878662,-0.020263671875,-0.09201717376708984,0.02345871925354004,-2.791256904602051,-0.2860071063041687,-0.4796462059020996,-1.0050124203915958,-0.07584335164898866,-0.13834716227616733
1.7826449871063232,-0.020229745656251907,-0.02583944797515869,0.01461029052734375,-2.602299451828003,-0.237374410033226,-0.4153250753879547,-1.0315867380715715,-0.08909939919137916,-0.1509565646670932
1.7942101955413818,-0.03214409947395325,0.038170039653778076,0.00952303409576416,-2.5420424938201904,-0.2502872943878174,-0.4387105703353882,-1.0567258677889209,-0.10325033442724874,-0.16449846692596487
1.802731990814209,-0.008034687489271164,-0.001911461353302002,0.0129680335521698,-2.474762439727783,-0.2738935053348541,-0.4100348949432373,-1.081208133605664,-0.11853001516637292,-0.1789343495073235
1.8126180171966553,0.011373847723007202,-0.017281293869018555,0.011348426342010498,-2.388223648071289,-0.30630338191986084,-0.43067601323127747,-1.1048462563026056,-0.13546597291967138,-0.19472640697247237
1.8226079940795898,0.009662754833698273,-0.03726470470428467,0.010108232498168945,-2.3089146614074707,-0.33861908316612244,-0.422552227973938,-1.1274898520353611,-0.15426535709209097,-0.21209450358321405
1.8326451778411865,6.939470767974854e-05,-0.02838367223739624,0.019548892974853516,-2.2066826820373535,-0.3913813829421997,-0.42697975039482117,-1.1490763760290321,-0.17499811227356205,-0.23090067834769662
1.844142198562622,0.00856655091047287,-0.027350306510925293,0.024002820253372192,-2.097581624984741,-0.42671075463294983,-0.3970281481742859,-1.169496171276722,-0.19763348318866525,-0.25112965192969194
1.8527450561523438,0.008456438779830933,-0.014244437217712402,0.0036326348781585693,-2.0431864261627197,-0.4261528253555298,-0.35843175649642944,-1.1889309027545236,-0.22119919340840927,-0.27199722178912006
1.8628299236297607,0.01329834759235382,-0.021305322647094727,-0.049496233463287354,-2.061461925506592,-0.42891258001327515,-0.34153807163238525,-1.208134425744324,-0.2464691658642923,-0.29451810006829887
1.8729779720306396,0.013668343424797058,-0.05496048927307129,-0.06334340572357178,-2.100821018218994,-0.42837435007095337,-0.3222285807132721,-1.227449871769896,-0.2740531899077437,-0.31932742669492215
1.8830549716949463,0.013013564050197601,-0.059609055519104004,-0.06268900632858276,-2.082249402999878,-0.42189106345176697,-0.3387228846549988,-1.2465759158788032,-0.30461843027113145,-0.3471738615466904
1.8946568965911865,0.014674745500087738,-0.044503629207611084,-0.06645715236663818,-1.9973256587982178,-0.41872933506965637,-0.32435911893844604,-1.2649475686604894,-0.33844194313433335,-0.37830857394690665
1.9027080535888672,0.017182454466819763,-0.02038717269897461,-0.05456948280334473,-1.8587238788604736,-0.4186515808105469,-0.297189861536026,-1.2820057460388212,-0.3741874786138688,-0.41131746200290636
1.9128260612487793,0.017397195100784302,0.004291117191314697,-0.04257267713546753,-1.698336124420166,-0.42115283012390137,-0.24494077265262604,-1.2973896443610895,-0.410710485712618,-0.44495134649074936
1.9228708744049072,0.017021648585796356,0.020908713340759277,-0.04641410708427429,-1.5448664426803589,-0.40381893515586853,-0.21095505356788635,-1.311235799582592,-0.4470524240697088,-0.4783227702303705
1.9329512119293213,0.027610428631305695,0.02136605978012085,-0.06451147794723511,-1.4411157369613647,-0.3994428217411041,-0.18864814937114716,-1.3236560079690909,-0.4838108177548927,-0.5121298790036539
1.9445788860321045,0.018106535077095032,0.014264941215515137,-0.04049000144004822,-1.4838552474975586,-0.37680354714393616,-0.18320868909358978,-1.335497314600698,-0.5227151959702745,-0.5481841127976989
1.952836036682129,0.00606759637594223,-0.016201674938201904,-0.005281969904899597,-1.6810237169265747,-0.33108532428741455,-0.20018501579761505,-1.3479732823273176,-0.5683192933248917,-0.5913701234036435
1.9638020992279053,-0.002253614366054535,-0.07586151361465454,0.011515319347381592,-1.9458754062652588,-0.27476927638053894,-0.21905729174613953,-1.3618546027723961,-0.6260544668652634,-0.6473543188459236
1.9735901355743408,-0.015128113329410553,-0.1021762490272522,0.02622675895690918,-2.146289825439453,-0.21447637677192688,-0.24123236536979675,-1.3766073764876332,-0.6991160949411441,-0.7194585708956912
1.9828760623931885,-0.02160915732383728,-0.11322271823883057,0.020335137844085693,-2.1957290172576904,-0.2023673951625824,-0.25501593947410583,-1.3910503885896581,-0.7892690250713673,-0.8090834367670415
1.994502067565918,-0.011657148599624634,-0.08081388473510742,0.00976996123790741,-2.063274621963501,-0.21018856763839722,-0.22931934893131256,-1.403518067426836,-0.891729028424457,-0.9110207583605591
2.002937078475952,0.0027973204851150513,-0.018291234970092773,0.00758255273103714,-1.7899158000946045,-0.22417095303535461,-0.18492479622364044,-1.41318933856498,-0.9967301579107427,-1.0152186165591517
2.0129129886627197,0.0038285106420516968,0.05708557367324829,0.00955241173505783,-1.618930697441101,-0.24460911750793457,-0.16116033494472504,-1.4201589715804905,-1.099320687457939,-1.1166907617308377
2.0228521823883057,0.0027712732553482056,0.07147657871246338,0.0012224316596984863,-1.603503704071045,-0.24129147827625275,-0.14074592292308807,-1.4253162160820452,-1.2040047855523466,-1.2200487209920583
2.032944917678833,0.000735938549041748,0.029303431510925293,-0.004754718393087387,-1.7292890548706055,-0.20334622263908386,-0.14864325523376465,-1.4290325429273862,-1.3197312415236957,-1.3346928494791572
2.0440561771392822,0.0020235925912857056,-0.027924418449401855,-0.024159131571650505,-1.669816017150879,-0.18143799901008606,-0.1491614133119583,-1.4308238807483404,-1.4420724691542048,-1.4563262752792385
2.0530378818511963,0.0022190213203430176,0.003954887390136719,-0.019013643264770508,-1.510788083076477,-0.1768624186515808,-0.14081399142742157,-1.430470788179643,-1.5576035246511375,-1.5711941511056904
2.0632240772247314,-0.008958667516708374,0.05726194381713867,0.0022302865982055664,-1.3217579126358032,-0.19147133827209473,-0.13263627886772156,-1.4285702212616735,-1.658408050290626,-1.67117516339208
2.073064088821411,-0.006923973560333252,0.07490390539169312,0.021421192213892937,-1.2109503746032715,-0.1841028928756714,-0.09703513979911804,-1.4257783336057734,-1.745606795029462,-1.7573762105935056
2.083231210708618,-0.004942804574966431,0.06634074449539185,0.024199359118938446,-1.1786242723464966,-0.16042974591255188,-0.10821082442998886,-1.4222508679949073,-1.82478177891008,-1.8356528620635895
2.094811201095581,-0.013258218765258789,0.03223228454589844,0.02476000413298607,-1.1540864706039429,-0.1535433530807495,-0.13664913177490234,-1.4177149687847816,-1.897953582936156,-1.9081091152073006
2.103163003921509,-0.023740381002426147,-0.006751537322998047,0.04753447324037552,-1.0839582681655884,-0.17375797033309937,-0.13146667182445526,-1.4124855312456288,-1.9632837237152594,-1.9725711776402397
2.1130621433258057,-0.018541350960731506,0.0050958991050720215,0.049892306327819824,-0.9999704360961914,-0.1948251724243164,-0.08404349535703659,-1.4072066315661513,-2.0211875381146323,-2.0293697456705524
2.1230130195617676,0.0034171491861343384,0.06797254085540771,0.013120412826538086,-0.8991533517837524,-0.18191008269786835,-0.08949610590934753,-1.4021603837670777,-2.070975909008504,-2.0778962990324366
2.1331350803375244,0.009249389171600342,0.06292039155960083,-0.026588797569274902,-0.8664380311965942,-0.122395358979702,-0.10603193938732147,-1.3968869089300477,-2.113909049201754,-2.119932425537891
2.1441690921783447,-0.015492022037506104,0.018874049186706543,-0.030903443694114685,-0.7708996534347534,-0.0855540782213211,-0.10068468004465103,-1.3916415853293063,-2.1509240679161015,-2.1564910553646337
2.152996063232422,-0.02027265727519989,0.03422492742538452,-0.017867907881736755,-0.6905661821365356,-0.08927105367183685,-0.08612891286611557,-1.3867383795775627,-2.1817886771288015,-2.1870137370524882
2.1630752086639404,-0.001889646053314209,0.058010101318359375,-0.01604124903678894,-0.6607599854469299,-0.10208560526371002,-0.0793677270412445,-1.3822260364751284,-2.2088374725302335,-2.213548094079059
2.1730029582977295,0.0067950040102005005,0.0430256724357605,-0.0055686235427856445,-0.8140169382095337,-0.08042425662279129,-0.09109842032194138,-1.3770860110696592,-2.237235910883963,-2.241531075134393
2.18329119682312,-0.005335211753845215,-0.013241946697235107,0.0005817413330078125,-0.9772651195526123,-0.0532170906662941,-0.1319654881954193,-1.3705795311907827,-2.2693110369138147,-2.2735680320566614
2.1946661472320557,-0.01519019901752472,-0.06937390565872192,-0.0019218772649765015,-1.0289018154144287,-0.03744585067033768,-0.1366603672504425,-1.3628748188158557,-2.3025124984046537,-2.307016437932629
2.203343152999878,-0.01604938507080078,-0.0725829005241394,0.0005325078964233398,-0.9151541590690613,-0.05866387486457825,-0.11594289541244507,-1.355272258978268,-2.3324245395630805,-2.3371471632562346
2.213279962539673,-0.005355328321456909,-0.010530710220336914,-0.012140393257141113,-0.6945530772209167,-0.0821383073925972,-0.08515994995832443,-1.348897121744371,-2.3559783351697208,-2.3605345201804373
2.223236083984375,0.003394082188606262,0.03411746025085449,-0.036245331168174744,-0.4892081320285797,-0.08067543804645538,-0.048568110913038254,-1.3442269097013093,-2.3729066538995296,-2.377049629134565
2.233215093612671,0.00430653989315033,0.048506855964660645,-0.05381011962890625,-0.3094887137413025,-0.08736076951026917,-0.027140319347381592,-1.3411211645033259,-2.3843145075197176,-2.3879133848572502
2.244213104248047,0.0005010217428207397,0.05100202560424805,-0.0421970933675766,-0.3177286684513092,-0.08670066297054291,-0.025906316936016083,-1.3387525316130435,-2.3931548565083642,-2.3960643560394495
2.2534701824188232,-0.0023606866598129272,0.01808220148086548,-0.012427806854248047,-0.4197189509868622,-0.058343589305877686,-0.02991117723286152,-1.335879028730278,-2.4035017470460573,-2.4059425079411345
2.2631940841674805,-0.0053697675466537476,-0.03219592571258545,0.0032149702310562134,-0.4869323968887329,-0.029527073726058006,-0.050868920981884,-1.3321733282116373,-2.4153982227343325,-2.4177264404756276
2.273145914077759,-0.008542299270629883,-0.05235940217971802,0.010730743408203125,-0.40357306599617004,-0.023130694404244423,-0.049443598836660385,-1.3284208858001003,-2.426272030541723,-2.428676618197684
2.2834770679473877,-0.004978582262992859,-0.0024524331092834473,0.011019587516784668,-0.1841103583574295,-0.04061474651098251,-0.022474512457847595,-1.3259094036086572,-2.4333542279490437,-2.4356612927267407
2.2950680255889893,0.005117684602737427,0.05973702669143677,-0.0007467120885848999,0.09417559951543808,-0.04840902239084244,0.027040308341383934,-1.325554789942113,-2.4350919708378957,-2.4369817820060238
2.3032960891723633,0.010393351316452026,0.0947115421295166,-0.005666524171829224,0.4325708746910095,-0.039807409048080444,0.07518360763788223,-1.3278840006513666,-2.4303319400756256,-2.4316065013433326
2.3132832050323486,4.947185516357422e-05,0.09953653812408447,0.005710229277610779,0.7144169807434082,-0.027703609317541122,0.12108984589576721,-1.3328695456129809,-2.418197425479717,-2.418777238088741
2.3232719898223877,-0.010928228497505188,0.08774638175964355,0.022766217589378357,0.8646411895751953,-0.031074505299329758,0.1486751288175583,-1.3398106224362551,-2.400141162498852,-2.3999125196296793
2.3332359790802,-0.012115046381950378,0.05734831094741821,0.037373900413513184,0.6888828873634338,-0.02573460154235363,0.14269393682479858,-1.346722172737009,-2.381428791579837,-2.3804241370016417
2.3443949222564697,-0.013243913650512695,-0.0197564959526062,0.05640031397342682,0.20325757563114166,0.012449536472558975,0.07276327162981033,-1.3507507621532469,-2.3712072008228837,-2.3698295708337387
2.3532779216766357,-0.014138519763946533,-0.12424218654632568,0.0669480413198471,-0.3239692151546478,0.08402412384748459,-0.011255201883614063,-1.3504406432046936,-2.3737721086217807,-2.3729389779155388
2.3634300231933594,-0.02014613151550293,-0.19722849130630493,0.06495949625968933,-0.5199520587921143,0.09856399893760681,-0.02323010563850403,-1.3470613980893065,-2.3858194142743,-2.386298471855544
2.3735439777374268,-0.015461891889572144,-0.11337161064147949,0.05441461503505707,-0.35924363136291504,0.04700706899166107,-0.012554824352264404,-1.3436048159719032,-2.3979864735990692,-2.39953103615298
2.3840491771698,0.007819578051567078,0.029979705810546875,0.008233532309532166,-0.0798289030790329,0.018788879737257957,0.02287246286869049,-1.342007055360251,-2.4042113354902668,-2.4062352258541253
2.3941640853881836,0.015524283051490784,0.10400664806365967,-0.03077031672000885,0.15142029523849487,0.014182941988110542,0.05378110706806183,-1.342584279626537,-2.404055114679879,-2.406239994010236
2.4033639430999756,0.0053298622369766235,0.11704355478286743,-0.038115888833999634,0.23517680168151855,0.012635912746191025,0.0576631985604763,-1.3444536817831334,-2.3998956456790643,-2.402088472651687
2.4134490489959717,-0.005568951368331909,0.0736624002456665,-0.015558600425720215,0.2141820341348648,0.03792742267251015,0.04874693229794502,-1.3465054028627628,-2.3945570400885807,-2.3968506689166427
2.423393964767456,-0.008309781551361084,0.007402300834655762,0.0034355074167251587,0.1776578724384308,0.051901161670684814,0.03619907796382904,-1.3482565510160516,-2.38951330875723,-2.392158646319534
2.433457136154175,-0.014985010027885437,-0.005127549171447754,0.004964694380760193,0.03238323703408241,0.04205172508955002,0.012326236814260483,-1.349236583181966,-2.3865267074216017,-2.3895715144022214
2.4445550441741943,-0.012573152780532837,-0.008360803127288818,0.0028592199087142944,-0.1690729707479477,0.06650376319885254,-0.032103706151247025,-1.348674156604338,-2.387721562127083,-2.3913208684832363
2.453458070755005,-0.0063405632972717285,-0.06393444538116455,0.004305943846702576,-0.25316041707992554,0.06932644546031952,-0.0435853935778141,-1.3467479814225647,-2.392495161559874,-2.396950643728526
2.463454008102417,-0.0090579092502594,-0.05562049150466919,0.00977739691734314,-0.15901236236095428,0.03786931931972504,-0.038050971925258636,-1.3449105253922953,-2.3969534590623094,-2.402068451615146
2.47350811958313,-0.00014118850231170654,0.010983943939208984,-0.00528600811958313,-0.001036039786413312,0.015850836411118507,-0.021657349541783333,-1.3440950855394567,-2.3981466953404977,-2.4035594263256286
2.4835751056671143,0.007919028401374817,0.040266215801239014,-0.023508787155151367,0.12383775413036346,-0.007118661887943745,-0.002758439863100648,-1.3445005884037105,-2.3957666258566337,-2.401156951138928
2.4948410987854004,0.004100024700164795,0.04677969217300415,-0.022475585341453552,0.17722241580486298,-0.014137688092887402,0.006093108560889959,-1.345669246875176,-2.3913526136485115,-2.39651440489367
2.503667116165161,0.004622921347618103,0.021646857261657715,-0.009590640664100647,0.19985318183898926,-0.00512857036665082,0.009834051132202148,-1.3471155305968474,-2.3860429864978885,-2.3909608249043592
2.514514207839966,0.0025334209203720093,-0.011169612407684326,-0.002558961510658264,0.14178429543972015,-0.006903034169226885,0.00918370671570301,-1.3484718950476873,-2.3810387860815085,-2.38578557551039
2.5235469341278076,-0.0016842484474182129,-0.012607991695404053,-0.000943303108215332,-0.003968229983001947,0.0038616848178207874,-0.020567528903484344,-1.3489757792240245,-2.3785692121706656,-2.383208127195659
2.5336081981658936,0.0017918795347213745,-0.04866588115692139,0.012531057000160217,-0.13473716378211975,0.031398236751556396,-0.030791938304901123,-1.3481518938110142,-2.3801557698616307,-2.3850451113742177
2.5443952083587646,-0.0019440054893493652,-0.07004863023757935,0.031461700797080994,-0.10897697508335114,0.013896297663450241,-0.033515285700559616,-1.3469336217751613,-2.3829542609653487,-2.3881507188477165
2.553558111190796,0.0010792315006256104,-0.023877739906311035,0.024909496307373047,-0.0014688867377117276,0.00551133556291461,-0.020995501428842545,-1.3463263949482713,-2.383672265093943,-2.388973232236292
2.5636489391326904,0.008435040712356567,0.01646256446838379,0.007735490798950195,0.08960697799921036,-0.0016541210934519768,-0.0018808217719197273,-1.3466869153500094,-2.3815033207142693,-2.386800693666001
2.5737669467926025,0.005897194147109985,0.03492558002471924,0.010895594954490662,0.144598588347435,-0.009713911451399326,0.004687066189944744,-1.3477194414508953,-2.377482589316706,-2.382639128022019
2.5838348865509033,0.004553854465484619,0.020852267742156982,0.022991403937339783,0.19553649425506592,-0.0064794584177434444,0.009089590981602669,-1.3490551095019556,-2.3723742252663156,-2.377318263235619
2.594029188156128,0.004502147436141968,-0.004226386547088623,0.02621529996395111,0.23821817338466644,-0.011556509882211685,0.013150112703442574,-1.350695311068324,-2.366172292753788,-2.370867713880682
2.6036651134490967,0.001257196068763733,0.0015818476676940918,0.02141869068145752,0.1859789490699768,0.006685478612780571,0.010262873023748398,-1.3523336628303841,-2.359674466252696,-2.3641733033212304
2.613621950149536,0.0008366554975509644,-0.009009599685668945,0.017064809799194336,0.08618684858083725,0.029155101627111435,0.0052843596786260605,-1.3531886878134158,-2.3561846599648697,-2.360749866226328
2.6236331462860107,-0.0029208213090896606,-0.03127342462539673,0.021631240844726562,0.03491264209151268,0.03887253254652023,-0.014042306691408157,-1.3531945332570126,-2.3553839619306514,-2.360217080606456
2.633641004562378,-0.003982424736022949,-0.036142826080322266,0.025764092803001404,0.04857891798019409,0.028295788913965225,-0.01504791621118784,-1.3531320771186406,-2.3544210161706354,-2.3595296025932
2.644416093826294,0.00034965574741363525,-0.013489842414855957,0.02113877236843109,0.07585044950246811,0.021620839834213257,-0.01919690892100334,-1.3533733225149178,-2.3521292097485818,-2.357406678371862
2.653672933578491,0.005661711096763611,0.004448533058166504,0.011785373091697693,0.09458845108747482,0.022110331803560257,-0.015354765579104424,-1.3537551276333168,-2.34925901307438,-2.354661291490403
2.665257215499878,0.004516690969467163,0.0058293938636779785,0.00951528549194336,0.13041241466999054,0.02212653122842312,-0.015310769900679588,-1.3542168462283655,-2.3461217592473353,-2.3516250391655333
2.6736109256744385,0.0019834190607070923,0.003098785877227783,0.010728597640991211,0.1471940577030182,0.012889890000224113,-0.013269989751279354,-1.3548536707466219,-2.342240326067892,-2.3477647135602684
2.6838481426239014,0.0029433071613311768,0.0045111775398254395,0.005825981497764587,0.11208312958478928,0.009542783722281456,-0.028416132554411888,-1.3554550065815398,-2.3380808058861966,-2.343568207862431
2.693981885910034,0.0032887309789657593,-0.007079601287841797,0.0015128999948501587,-0.011271034367382526,0.030825968831777573,-0.03147823363542557,-1.3553568175283432,-2.3363234277552745,-2.3419172612690815
2.703748941421509,-0.002561047673225403,-0.035031676292419434,0.006827831268310547,-0.07480676472187042,0.03945514187216759,-0.04908023774623871,-1.3542784705422248,-2.3383822042044295,-2.344308082817261
2.71366810798645,-0.005872443318367004,-0.0390549898147583,0.009478345513343811,-0.04484220966696739,0.02563946321606636,-0.0406515970826149,-1.3529811085239865,-2.3408993557213593,-2.3471208178063754
2.723736047744751,-0.00174790620803833,-0.016389966011047363,0.0001195669174194336,0.03429749980568886,0.012944040820002556,-0.019935987889766693,-1.3523900772452484,-2.3415889349834047,-2.347944633879266
2.733867883682251,0.0024777203798294067,0.018981337547302246,-0.013826742768287659,0.08682915568351746,0.012535245157778263,-0.009188535623252392,-1.3525943370398512,-2.339833338741791,-2.346232740251338
2.7439780235290527,-0.00015524029731750488,0.016159236431121826,-0.021932244300842285,0.09158089011907578,0.01985858380794525,-0.004689764231443405,-1.3530851356386415,-2.3370871177213126,-2.343551896413765
2.75376296043396,-0.002289891242980957,-0.004154026508331299,-0.017849698662757874,0.13117331266403198,0.023191263899207115,0.007611642591655254,-1.3537389527744879,-2.3340908866926364,-2.3406856637896927
2.7638189792633057,-0.002441316843032837,-0.009456753730773926,-0.00373232364654541,0.22326722741127014,0.01699257828295231,0.02264939434826374,-1.3549843678453215,-2.329062650123498,-2.3357209013094384
2.77382493019104,-0.0013092756271362305,0.006321310997009277,-0.0008983612060546875,0.3399259150028229,0.0200690608471632,0.032975804060697556,-1.357130418957631,-2.3204499083637335,-2.3270626816001996
2.783842086791992,-0.0020414739847183228,0.02583754062652588,-0.006282687187194824,0.4136999547481537,0.041338399052619934,0.0597284771502018,-1.359808559199273,-2.309630493927852,-2.3162728186017767
2.795232057571411,-0.008249595761299133,0.03177046775817871,-0.005906805396080017,0.3187156617641449,0.02625691518187523,0.05096082016825676,-1.3623875418946294,-2.299570600493137,-2.3062675030082533
2.8038299083709717,-0.0040534138679504395,0.018142998218536377,0.002865329384803772,0.13598807156085968,0.04787304252386093,0.012546108104288578,-1.3640230391910777,-2.29271110150003,-2.2995519108946825
2.813880205154419,0.0013836026191711426,-0.04635971784591675,0.0053719282150268555,-0.057953719049692154,0.09990694373846054,-0.001695146202109754,-1.364264502110265,-2.2910245290098037,-2.29859088828084
2.8236570358276367,-0.010574251413345337,-0.06718724966049194,0.004888638854026794,-0.05937902629375458,0.10807597637176514,-0.00632893992587924,-1.3638143704668824,-2.2920769673664543,-2.3007741472627585
2.8338420391082764,-0.011022776365280151,-0.018235206604003906,0.0011397451162338257,0.07846912741661072,0.08021584898233414,0.006642784923315048,-1.3638796083972147,-2.290640192308664,-2.3002802453803546
2.8447768688201904,0.0031331032514572144,0.03512394428253174,-0.0067047178745269775,0.23068419098854065,0.06653846800327301,0.03904306888580322,-1.3650001138830419,-2.285438261302522,-2.295686603587258
2.853973150253296,0.010843679308891296,0.06891191005706787,-0.010684952139854431,0.3535350263118744,0.0681944191455841,0.04436459764838219,-1.367229157014702,-2.27544211763144,-2.2861561638895154
2.8644931316375732,0.010162979364395142,0.06594729423522949,-0.015261158347129822,0.4763379395008087,0.08767677843570709,0.06731870025396347,-1.3702931787400299,-2.260979888830422,-2.272179838597122
2.87400221824646,0.008924528956413269,0.06345933675765991,-0.018625006079673767,0.7147824168205261,0.1022847443819046,0.10144045203924179,-1.37463350921522,-2.2399434580639856,-2.2516966201137882
2.8840110301971436,0.011502429842948914,0.07303380966186523,-0.021335124969482422,1.1862070560455322,0.13458724319934845,0.18430620431900024,-1.3813646857974995,-2.2054058635435356,-2.217691606120807
2.895287036895752,0.0022669434547424316,0.1127161979675293,-0.00876249372959137,1.776182770729065,0.16078129410743713,0.2787933051586151,-1.3917224078506845,-2.14538878984794,-2.1581532860409416
2.903975009918213,-0.017536237835884094,0.17823916673660278,0.024379730224609375,2.3876872062683105,0.19171357154846191,0.4058055877685547,-1.4051472025225902,-2.050283917284218,-2.0634167816237716
2.913964033126831,-0.02882397174835205,0.2139979600906372,0.0481114387512207,3.0593137741088867,0.20836257934570312,0.48164626955986023,-1.4201163551365579,-1.9019939473431804,-1.9152815054027392
2.923964023590088,-0.021721631288528442,0.16214758157730103,0.0504145622253418,3.5552406311035156,0.2720065414905548,0.5079016089439392,-1.4323025408856944,-1.684002162281764,-1.6974253186066923
2.93398118019104,-0.03327794373035431,0.11247044801712036,0.074043869972229,3.990605115890503,0.35786259174346924,0.6033085584640503,-1.4368687533910938,-1.4031086384574885,-1.4171544175762492
2.94419002532959,-0.040337443351745605,0.1277521848678589,0.10444443672895432,4.431225776672363,0.40943190455436707,0.6823613047599792,-1.4295812296907247,-1.0945280763335172,-1.1095657578951623
2.954127073287964,-0.03390434384346008,0.12628382444381714,0.12494910508394241,4.928854942321777,0.48734986782073975,0.7299448251724243,-1.4080356760384658,-0.812926686287556,-0.8292612084912327
2.964137077331543,-0.03931897133588791,0.12045729160308838,0.13943839073181152,5.448403835296631,0.569636881351471,0.8129851818084717,-1.3731186861389453,-0.5907847681009148,-0.6089269605607042
2.9740850925445557,-0.054760485887527466,0.14428621530532837,0.15061673521995544,5.977741241455078,0.6090778112411499,0.8892144560813904,-1.3271922809902046,-0.42718942317349995,-0.4474100143160982
2.984113931655884,-0.05609522759914398,0.17026758193969727,0.19287273287773132,6.504128932952881,0.6208235621452332,0.9644137024879456,-1.2721113457328177,-0.30889655414259665,-0.33105250691239135
2.994271993637085,-0.06535939127206802,0.17620205879211426,0.24709326028823853,6.917923450469971,0.703112006187439,1.0157389640808105,-1.209692627592081,-0.22250780805311893,-0.24680982897525658
3.0040740966796875,-0.07875034213066101,0.16284549236297607,0.25846391916275024,7.050546169281006,0.7571418285369873,0.9850842952728271,-1.142695616228798,-0.1594591824347626,-0.18646928042429872
3.0141351222991943,-0.08905167132616043,0.1359449028968811,0.2815069556236267,6.903672218322754,0.8150458931922913,0.9084209203720093,-1.0746116972984803,-0.1136069924951328,-0.14405741382101794
3.0242011547088623,-0.09077543020248413,0.08046793937683105,0.31772345304489136,6.576455116271973,0.905860960483551,0.8387930989265442,-1.0082087471764256,-0.0790098498936125,-0.11394768542921642
3.0344021320343018,-0.08830368518829346,0.022980988025665283,0.33028721809387207,6.143019199371338,1.0008125305175781,0.7676107883453369,-0.9451091170862272,-0.051426012728431204,-0.0922081374907811
3.044300079345703,-0.09795014560222626,0.0013846755027770996,0.3355203866958618,5.602934837341309,1.0784417390823364,0.7080183625221252,-0.8866149367407108,-0.02834054800546065,-0.07622316056901027
3.0541930198669434,-0.10843183100223541,-0.005033910274505615,0.3291361331939697,5.013930320739746,1.13727867603302,0.688473641872406,-0.8335301169438559,-0.007962728959209318,-0.06401419140110716
3.064209222793579,-0.09726686030626297,-0.03599119186401367,0.31205350160598755,4.4276204109191895,1.1118072271347046,0.6113333702087402,-0.7862566549576367,0.010204571872943071,-0.054559391670098135
3.074169874191284,-0.07733462750911713,-0.08296185731887817,0.2933717966079712,3.808999538421631,1.0476818084716797,0.4791226089000702,-0.7449465198692129,0.025516897558353853,-0.04805835855703429
3.084228038787842,-0.060091376304626465,-0.12368911504745483,0.2595827579498291,3.2181408405303955,0.9896469116210938,0.38964205980300903,-0.7096481564041118,0.038592323729197214,-0.043746930662007834
3.0945940017700195,-0.03012339025735855,-0.14001643657684326,0.19874489307403564,2.66456937789917,0.9083483219146729,0.2832450270652771,-0.6801674564512882,0.04979598157099468,-0.041066447240913156
3.104220151901245,-0.006666660308837891,-0.14223062992095947,0.14192450046539307,2.2300894260406494,0.8559368252754211,0.20353975892066956,-0.6556036271068224,0.059495267071252356,-0.03968804118138901
3.1143229007720947,0.002721838653087616,-0.13574618101119995,0.09194421768188477,1.8498384952545166,0.7698115110397339,0.13972216844558716,-0.6351473745514875,0.06796219966957871,-0.03916163166115059
3.124218225479126,0.014190621674060822,-0.12022364139556885,0.05626356601715088,1.5231220722198486,0.6955994367599487,0.09585831314325333,-0.6182622304601754,0.07525199412051704,-0.03921777148666326
3.134300947189331,0.02036868780851364,-0.10826152563095093,0.049386024475097656,1.3057739734649658,0.638947606086731,0.09188354015350342,-0.6041585859731173,0.08178439016604808,-0.03944224263803216
3.1445980072021484,0.01308092474937439,-0.08165454864501953,0.028961479663848877,1.2338197231292725,0.5896372199058533,0.09307935833930969,-0.5914997989559526,0.08784394264444723,-0.039614186106637514
3.1543350219726562,0.011580310761928558,-0.05277979373931885,0.007565796375274658,1.270227313041687,0.514557957649231,0.10537143796682358,-0.5789729085266441,0.0932724172647492,-0.039811465654500805
3.165458917617798,0.01482565701007843,-0.020033299922943115,-0.001754164695739746,1.333632469177246,0.453291118144989,0.14149807393550873,-0.5658834661755497,0.09808538700647346,-0.03983904590429298
3.174290895462036,0.021408170461654663,-0.0039643049240112305,-0.008603930473327637,1.4025145769119263,0.41408297419548035,0.16937977075576782,-0.5520949429712744,0.10252853564541205,-0.039628411257707864
3.184345006942749,0.017834939062595367,-0.004880726337432861,-0.012732744216918945,1.4989686012268066,0.3930322527885437,0.19899173080921173,-0.5374658702436914,0.10674951325771684,-0.03926988493816781
3.1945340633392334,0.0030807405710220337,-0.002185046672821045,-0.016405463218688965,1.6323271989822388,0.3785278797149658,0.25058513879776,-0.5216651918827403,0.11093128899481348,-0.03865178759507521
3.204530954360962,4.6119093894958496e-05,0.009731441736221313,-0.018757522106170654,1.7949869632720947,0.3574630320072174,0.311994731426239,-0.5043102938362566,0.11508980934546484,-0.03766853577517424
3.214392900466919,0.004555933177471161,0.026746124029159546,-0.01604020595550537,1.9726078510284424,0.35933470726013184,0.3713877499103546,-0.4851678712324811,0.11931115362505863,-0.03629430361997409
3.2243080139160156,0.004240937530994415,0.02737051248550415,-0.025287985801696777,2.1453733444213867,0.3754671514034271,0.3997787833213806,-0.464255953143695,0.12367925929584167,-0.03475292817917534
3.234302043914795,0.0005891025066375732,0.02305617928504944,-0.03186619281768799,2.3203518390655518,0.3918844759464264,0.40569180250167847,-0.4415626194917934,0.12810321248036496,-0.03344080688159002
3.24452805519104,-0.008464746177196503,0.02538222074508667,-0.013933956623077393,2.553790330886841,0.4462660849094391,0.42460623383522034,-0.41686984027530405,0.13268656629354983,-0.03241143662716905
3.254303216934204,-0.01567704975605011,0.03403553366661072,0.0128556489944458,2.7254624366760254,0.4940871298313141,0.4665859043598175,-0.39003989053406285,0.13777049011268933,-0.03149645741562479
3.2644600868225098,-0.027240678668022156,0.06570884585380554,0.037745535373687744,2.838438034057617,0.5090636014938354,0.5107899308204651,-0.3617297539502561,0.1431798226225293,-0.030483025085976584
3.274462938308716,-0.02654266357421875,0.08847153186798096,0.06379956007003784,2.8664913177490234,0.5165873169898987,0.5599370002746582,-0.3326212691064462,0.14872182837775225,-0.029276595983979452
3.2858240604400635,-0.011271610856056213,0.06375673413276672,0.07467037439346313,2.764742612838745,0.5096341371536255,0.5732585787773132,-0.30381041376484125,0.15431346860408948,-0.027836742722753553
3.2946290969848633,0.001531258225440979,0.02882939577102661,0.08768081665039062,2.6196279525756836,0.5361509323120117,0.5622663497924805,-0.27632466685060064,0.1599301062321253,-0.02639411895007197
3.304471015930176,0.0010296404361724854,-0.009953618049621582,0.09461671113967896,2.470560312271118,0.5634319186210632,0.557612955570221,-0.2503221024472593,0.16579156418089797,-0.02493918095356651
3.314505100250244,-0.006311669945716858,-0.016317427158355713,0.09273314476013184,2.496131658554077,0.6026527881622314,0.6070606708526611,-0.22491984531902626,0.17202331464715248,-0.023354798564424958
3.3244431018829346,-0.005327507853507996,0.01837266981601715,0.07123064994812012,2.578882932662964,0.6042224764823914,0.6545397043228149,-0.19883143854252658,0.17848797042977863,-0.02147833625098683
3.334522008895874,0.0005031824111938477,0.07985538244247437,0.0473213791847229,2.681396245956421,0.5516905784606934,0.6749390363693237,-0.1716732629014988,0.18462352696937298,-0.019686237234320815
3.3446249961853027,0.010006487369537354,0.10882408916950226,0.019067764282226562,2.6573421955108643,0.47283029556274414,0.6798663139343262,-0.14406939735088542,0.19002167207995702,-0.017969344106659475
3.3544650077819824,0.034090250730514526,0.09872043132781982,0.001069784164428711,2.4670321941375732,0.41495898365974426,0.6253700852394104,-0.11753817127028053,0.1946208239119801,-0.016433348804059843
3.3647429943084717,0.04201880097389221,0.04389231652021408,0.004608750343322754,2.173283100128174,0.4325943887233734,0.5631322860717773,-0.09352728838366837,0.1989861737740697,-0.015169686611286494
3.374744176864624,0.018758833408355713,-0.03821711242198944,0.0179518461227417,1.7986971139907837,0.43128836154937744,0.5032556056976318,-0.07296506106946807,0.20345531537275005,-0.013885225934823853
3.385111093521118,-0.004616111516952515,-0.0760742723941803,0.04093271493911743,1.4467097520828247,0.3873588740825653,0.4104577898979187,-0.056145257450940386,0.20761628205612928,-0.012720123210796797
3.3947479724884033,-0.008910924196243286,-0.09130382537841797,0.061112821102142334,1.0771290063858032,0.33531272411346436,0.3081021308898926,-0.043053562422734615,0.2112964839834321,-0.011799242089693698
3.404546022415161,0.007143974304199219,-0.09331881254911423,0.039639830589294434,0.7707247138023376,0.2903796136379242,0.21606211364269257,-0.03352589627979675,0.2144488009658221,-0.011195605458620564
3.414860963821411,0.02194233238697052,-0.0883432999253273,0.011631131172180176,0.6113390326499939,0.2779322564601898,0.16189448535442352,-0.0264414701814164,0.2173118547078324,-0.010827329669663804
3.424588918685913,0.019983574748039246,-0.06309190392494202,-0.021929383277893066,0.562980055809021,0.23320996761322021,0.11154133826494217,-0.020536580889218517,0.21986659877299597,-0.010759039798944086
3.434561014175415,0.008359625935554504,-0.0074452683329582214,-0.04207700490951538,0.6356151103973389,0.16486313939094543,0.12462544441223145,-0.014403768346090173,0.221903837360138,-0.01094955814776327
3.4447290897369385,0.01522304117679596,0.039110083132982254,-0.04991823434829712,0.6818534135818481,0.05361703410744667,0.12392450869083405,-0.007658178962724756,0.22298530783123882,-0.011182020515738286
3.455773115158081,0.027393251657485962,0.08351439982652664,-0.04245954751968384,0.639421284198761,-0.014172663912177086,0.12071327120065689,-0.0008667057138106153,0.22312601863468548,-0.011459418890047554
3.46435809135437,0.025002002716064453,0.055150970816612244,-0.03372156620025635,0.5073162317276001,-0.028232824057340622,0.0968308374285698,0.004995358230349157,0.2228895837411319,-0.011638364827457162
3.4747800827026367,0.005342572927474976,-0.015769200399518013,-0.024086177349090576,0.30554452538490295,0.002140261698514223,0.07672450691461563,0.009240091831892349,0.22279317944137797,-0.01169095460908254
3.4861371517181396,-0.018435239791870117,-0.06764983385801315,-0.02167457342147827,0.10099778324365616,0.0035485411062836647,0.0396096296608448,0.011314644049716889,0.22283402038401348,-0.011554462338140068
3.4954280853271484,-0.017980575561523438,-0.08126559108495712,-0.0013294219970703125,-0.06393897533416748,0.0034321611747145653,0.012171082198619843,0.011523363507398025,0.22286903678972772,-0.011348038834731207
3.504741907119751,-0.017819881439208984,-0.08260682225227356,0.006551086902618408,-0.18154077231884003,-0.01641930639743805,-0.0032335477881133556,0.010319389599860862,0.22282644805521457,-0.01103431970164547
3.5147011280059814,-0.012088745832443237,-0.06766681373119354,0.01028209924697876,-0.27826517820358276,-0.055029015988111496,-0.02109483629465103,0.008047393153417749,0.22246820976168674,-0.010639568833288496
3.5247230529785156,-0.0025598257780075073,-0.05139501392841339,0.011819660663604736,-0.36625635623931885,-0.07223951816558838,-0.04908599331974983,0.00483365006527017,0.2218145100118258,-0.010276517030562734
3.5349929332733154,0.0010467320680618286,-0.05150904506444931,0.01144474744796753,-0.45587146282196045,-0.07453649491071701,-0.06856328248977661,0.0006912754561909864,0.2210712111800431,-0.009951637730999382
3.5449140071868896,-0.005105182528495789,-0.0558944009244442,0.002239048480987549,-0.5142604112625122,-0.07062093913555145,-0.08286174386739731,-0.00422815250551007,0.2203564982944423,-0.009624092115771164
3.554980993270874,-0.0058969855308532715,-0.05491846054792404,0.0012812018394470215,-0.5123996138572693,-0.06094461306929588,-0.08109606802463531,-0.009477924614334679,0.21969049359461618,-0.00930140585900178
3.5647151470184326,-0.00687718391418457,-0.03550250455737114,0.0036205649375915527,-0.44639015197753906,-0.056253496557474136,-0.06647031009197235,-0.014339051145270138,0.21912863689002335,-0.008978252341904332
3.574812173843384,-0.007964998483657837,-0.006320549175143242,-0.0038083791732788086,-0.35683709383010864,-0.06251458823680878,-0.0539393350481987,-0.018406546264382973,0.21853828595253547,-0.008681090400994483
3.584867000579834,-0.004861548542976379,0.015576353296637535,-0.012278258800506592,-0.23860996961593628,-0.0626441091299057,-0.030764400959014893,-0.021427847104448495,0.2179202618572293,-0.008450055966239607
3.5950849056243896,-0.00038048624992370605,0.029363233596086502,-0.016001522541046143,-0.13765352964401245,-0.059900254011154175,-0.0047879284247756,-0.023281684790635884,0.2173093118787999,-0.008214870510891432
3.6048970222473145,-0.0010967850685119629,0.03970153257250786,-0.01479959487915039,-0.07744421064853668,-0.05647604539990425,0.005474030040204525,-0.02429621859335778,0.2167198379099437,-0.007985359060054611
3.6148030757904053,-0.005473583936691284,0.027573538944125175,-0.009095489978790283,-0.05797623470425606,-0.04008402302861214,0.007126521784812212,-0.024919268029924693,0.2162361898378943,-0.007785309913735543
3.624897003173828,-0.0066992491483688354,0.004548000171780586,0.0004992485046386719,-0.06204323470592499,-0.027332231402397156,0.007045668549835682,-0.02548404848212051,0.21590060830322025,-0.007579565455474
3.6349141597747803,-0.01023826003074646,0.0011776834726333618,0.009620368480682373,-0.06878768652677536,-0.01580074429512024,-0.0031449177768081427,-0.02612325604092745,0.21570001851125178,-0.007416500954673556
3.6454222202301025,-0.010581746697425842,-0.002749413251876831,0.011095225811004639,-0.07297875732183456,-0.008409805595874786,-0.016234833747148514,-0.026678354677532046,0.2155862228212687,-0.007359262126895135
3.654884099960327,-0.005111575126647949,-0.009189052507281303,0.012253820896148682,-0.06913821399211884,-0.004956751596182585,-0.024667467921972275,-0.027380942869719083,0.21550452957720506,-0.007416391497409002
3.6657869815826416,-0.0016770511865615845,-0.001561380922794342,0.015001773834228516,-0.06619991362094879,0.00301293539814651,-0.02655751071870327,-0.028115368580223097,0.2154763988546137,-0.007520731421310885
3.674989938735962,-0.0007213950157165527,0.007413066923618317,0.009193956851959229,-0.06687555462121964,0.011648502200841904,-0.03322766348719597,-0.028983201320175116,0.21555013927841835,-0.00767220396139341
3.6850268840789795,-0.0006828904151916504,0.008269624784588814,0.0014371871948242188,-0.04845445603132248,0.01277737133204937,-0.026561560109257698,-0.02985125344458139,0.21567256288893277,-0.007848055390803115
3.695136070251465,0.002101033926010132,-0.0002821143716573715,0.0040740966796875,-0.03167334571480751,0.018222736194729805,-0.02066665329039097,-0.03049923655583187,0.21581052567313314,-0.007983999366319178
3.7049810886383057,0.002113133668899536,0.0039315782487392426,0.011280238628387451,-0.005592226050794125,0.0318920761346817,-0.008483650162816048,-0.030695426583444468,0.21604950466545567,-0.008089275546775175
3.7149479389190674,-0.00331154465675354,0.013415476307272911,0.01307147741317749,0.015450741164386272,0.0292946957051754,-0.0023972620256245136,-0.03058037419452519,0.21632243496973308,-0.008140248030543102
3.7250092029571533,-0.002112463116645813,0.012282514944672585,0.0137786865234375,0.031654030084609985,0.027703944593667984,-0.004693545866757631,-0.030217804515347318,0.21656099240596777,-0.008222872910357459
3.7350351810455322,0.0024473369121551514,0.004108026623725891,0.016986489295959473,0.06261167675256729,0.035824455320835114,-0.0009233088931068778,-0.029496100151817615,0.21685587307140103,-0.008358146846028435
3.7451388835906982,0.0016954690217971802,0.0038693584501743317,0.018108010292053223,0.06598366796970367,0.032526664435863495,0.007098664995282888,-0.028773156836716513,0.21719942498983055,-0.00846639381652909
3.754970073699951,-0.0023950189352035522,0.010995401069521904,0.013813436031341553,0.049212682992219925,0.030429158359766006,-0.004168370738625526,-0.02837608035687507,0.21749510542613798,-0.008572894142267605
3.7651450634002686,0.00012601912021636963,-0.0027159471064805984,0.011902928352355957,0.03921251371502876,0.038390591740608215,-0.006949030328541994,-0.028171329948553064,0.21781869934228862,-0.008747397835003235
3.7751100063323975,0.003492310643196106,-0.01766808144748211,0.011171877384185791,0.026408035308122635,0.035621967166662216,-0.009755468927323818,-0.027910344914928695,0.2181983499905431,-0.008895892442069361
3.787130117416382,0.002066493034362793,-0.004314832389354706,0.00985705852508545,0.021701961755752563,0.02389296144247055,-0.013104607351124287,-0.02783221570076152,0.21850187584281452,-0.00906055516489295
3.796370029449463,0.0007938891649246216,0.0007414445281028748,0.014715194702148438,0.012698080390691757,0.01311648078262806,-0.022627005353569984,-0.027994508299606678,0.2186655391682146,-0.009281135613075413
3.80513596534729,0.0022873282432556152,-0.006798999384045601,0.01878988742828369,0.007550474256277084,0.011657911352813244,-0.021655645221471786,-0.02819555343587241,0.21877822834281743,-0.009528515229931403
3.8151051998138428,0.00021918118000030518,-0.008338447660207748,0.018008410930633545,-0.011348381638526917,0.012135149911046028,-0.019842298701405525,-0.028361774146856714,0.21891278574815629,-0.009732027550801867
3.8250300884246826,-0.002745315432548523,-0.0034638922661542892,0.01119375228881836,-0.019575485959649086,0.016482049599289894,-0.01826496049761772,-0.028644807498317458,0.2190597127982239,-0.00987944236865257
3.835131883621216,-0.0039209723472595215,-0.007873397320508957,0.00907433032989502,-0.014937590807676315,0.027996227145195007,-0.014514431357383728,-0.02904141438229992,0.21928197522644335,-0.010009742791371413
3.8452999591827393,-0.005581915378570557,-0.01187177561223507,0.0050778985023498535,-0.007420452311635017,0.024943890050053596,-0.011242099106311798,-0.029118320437388483,0.21954604269407793,-0.010096211748335365
3.855023145675659,-0.005300745368003845,-0.00432923249900341,-0.0030036568641662598,-0.005534135736525059,0.016695279628038406,-0.018574846908450127,-0.028915168030565062,0.21975701108278076,-0.010241390051397615
3.8651931285858154,0.0010057836771011353,-0.004465429112315178,-0.0028693079948425293,-0.008056282065808773,0.012736491858959198,-0.014133439399302006,-0.028929297368670486,0.21990875128035917,-0.010387062503206031
3.875195026397705,0.0022728294134140015,-0.006919274106621742,-0.0010876059532165527,-0.010726100765168667,0.013843568041920662,-0.011180792935192585,-0.0290486001708011,0.2200497310255179,-0.010485043048640504
3.88533616065979,0.0013390332460403442,-0.005070613697171211,-0.001946091651916504,-0.0011319301556795835,0.0017674637492746115,0.0006281423848122358,-0.028985187206119752,0.22014625605002983,-0.010533086056315689
3.8955681324005127,-0.0006468594074249268,-0.003684047609567642,-0.000339508056640625,0.0029967683367431164,-0.002765502780675888,-0.0019466016674414277,-0.028819257613443266,0.2201474800907167,-0.010525212907543234
3.9052860736846924,0.002213522791862488,0.0002328101545572281,-0.00029718875885009766,0.010476506315171719,-0.003056453075259924,-0.001593093853443861,-0.028701787783889043,0.22010828427610699,-0.010570487119037983
3.916395902633667,0.0009304136037826538,-0.0006656311452388763,-0.005209505558013916,0.006650875322520733,-0.0037387548945844173,-0.0007448770338669419,-0.028486254493499907,0.22006139551074225,-0.01059147576103752
3.9252870082855225,-0.0010186433792114258,0.0007549840956926346,-0.003906071186065674,0.005219043232500553,-0.005340424831956625,-0.00923929549753666,-0.028240467384363956,0.21999308558743982,-0.010650617432259936
3.9353349208831787,-0.006955862045288086,-0.0024483948945999146,0.0043280720710754395,0.0001545099075883627,-0.007888004183769226,-0.02014041319489479,-0.028193701585271673,0.21988486906768742,-0.010809223450082436
3.9457662105560303,-0.009365782141685486,-0.008558660745620728,0.011425614356994629,0.003053477266803384,-0.007291411515325308,-0.02284139022231102,-0.028185190043444677,0.21980563135325187,-0.011024786051519079
3.9552791118621826,-0.009240686893463135,-0.0018471572548151016,0.014817357063293457,0.018835103139281273,-0.006502849515527487,-0.01808418519794941,-0.028004379302840606,0.21973883198577965,-0.011245483152745888
3.96553111076355,-0.012310341000556946,0.010469138622283936,0.010159671306610107,0.01612839847803116,0.001185429748147726,-0.022296560928225517,-0.027818744017399265,0.21970910103431762,-0.011477608865570466
3.975550889968872,-0.01427045464515686,0.0075700543820858,0.0009019970893859863,0.019673332571983337,0.015167558565735817,-0.02948150411248207,-0.027666017603375885,0.21977789276646684,-0.011771749087253432
3.986002206802368,-0.013755559921264648,-0.0020277798175811768,-0.0037401914596557617,0.0276299100369215,0.01688791625201702,-0.03169144690036774,-0.027513421277667025,0.2199529829580249,-0.012133847584366394
3.9955642223358154,-0.01363721489906311,0.0036177467554807663,-0.0027544498443603516,0.03792409226298332,0.009099500253796577,-0.03772670403122902,-0.027269414909173777,0.22008045248569166,-0.012537733793448788
4.005295991897583,-0.010788872838020325,0.009225437417626381,0.0013907551765441895,0.031063290312886238,0.004680695943534374,-0.04921824485063553,-0.027047998885952815,0.22013121427235877,-0.013033764952422372
4.015417098999023,-0.008668258786201477,0.002426277846097946,0.0008423328399658203,0.02113688923418522,0.006361682899296284,-0.054367199540138245,-0.02688908938056044,0.22014626445102167,-0.013600310839016529
4.025398015975952,-0.010338127613067627,-0.0012891124933958054,-0.004800081253051758,0.019186392426490784,0.0017202370800077915,-0.06294263154268265,-0.026713430287905696,0.22015202900580344,-0.014216329449132292
