timestamp,accel_x,accel_y,accel_z,rotation_x,rotation_y,rotation_z, pitch,roll,yaw
0.043643951416015625,-0.027084365487098694,-0.013363756239414215,0.0033415555953979492,0.015863807871937752,0.004791488870978355,0.024144267663359642,-0.10435807265751257,0.16623067277373244,0.008701628082564491
0.05714893341064453,-0.029328808188438416,-0.014373958110809326,0.001983344554901123,0.02077767252922058,0.005635799374431372,0.022737054154276848,-0.10411574172955464,0.16629007849761976,0.008900013411235141
0.06906986236572266,-0.02731269598007202,-0.010487385094165802,0.0038120150566101074,0.016274800524115562,0.004693839233368635,0.022225992754101753,-0.1038747176475113,0.1663616547944923,0.009081592459174751
0.07702398300170898,-0.027282744646072388,-0.010139599442481995,0.0021507740020751953,0.008913922123610973,0.010341250337660313,0.021111033856868744,-0.10370914148567453,0.16645265354808328,0.009267405788752212
0.07874703407287598,-0.02806250751018524,-0.012584224343299866,0.0003445148468017578,0.00988464429974556,0.0076927365735173225,0.01869155280292034,-0.10358965059039817,0.1665610609637271,0.009440505820897909
0.08531999588012695,-0.024463877081871033,-0.009696140885353088,-0.0020443201065063477,0.01177089475095272,0.0002088099718093872,0.015168936923146248,-0.1034473870646352,0.16660773495004544,0.009592484065138296
0.09525489807128906,-0.021938800811767578,-0.006488427519798279,-0.00495380163192749,0.012677967548370361,-0.007832339033484459,0.013509521260857582,-0.10329059850360531,0.16658193381610442,0.009703748750964199
0.10530304908752441,-0.02020569145679474,-0.004633262753486633,-0.0060980916023254395,0.0112727340310812,-0.01149822399020195,0.005667257122695446,-0.10315897661588355,0.16647727197546217,0.009771286482498429
0.1151580810546875,-0.020684540271759033,-0.0077678486704826355,-0.001626729965209961,0.005655062384903431,-0.015928393229842186,-0.00207907916046679,-0.10307349265535512,0.16634170740945772,0.00977189052911476
0.125169038772583,-0.020937934517860413,-0.010922059416770935,0.002401292324066162,0.0026888165157288313,-0.01567738875746727,-0.004141058307141066,-0.10303843862279298,0.16617943670800267,0.009730524845929811
0.13535785675048828,-0.023185238242149353,-0.008649885654449463,0.001543283462524414,0.006265175528824329,-0.007861810736358166,-0.005270771216601133,-0.10299381114413392,0.1660430252242095,0.009670730278102233
0.14542388916015625,-0.02345319092273712,-0.006342001259326935,0.0006862878799438477,0.015793416649103165,-0.00814441591501236,-0.004147822968661785,-0.10288260276342721,0.16594093375660257,0.009608528829305832
0.15570402145385742,-0.024877235293388367,-0.0070677250623703,0.0028978586196899414,0.013087911531329155,-0.0058306618593633175,-0.002804257906973362,-0.10273781660730331,0.16585019669805132,0.009543878265083927
0.1656341552734375,-0.024523213505744934,-0.008264131844043732,0.00520700216293335,0.011019233614206314,-0.002290611155331135,-0.004325668793171644,-0.10262134747209345,0.16579837810369435,0.009484864965689664
0.1757221221923828,-0.02536490559577942,-0.012046940624713898,0.006504058837890625,0.004714466631412506,-0.002282089088112116,-0.00735448207706213,-0.10254327815808861,0.16575290742857463,0.00940794688334625
0.18553900718688965,-0.02571168541908264,-0.014723002910614014,0.008002042770385742,-0.005254826974123716,0.0010288860648870468,-0.0068222759291529655,-0.10254907993905307,0.1657331927820691,0.009341354605157233
0.19555091857910156,-0.0235070139169693,-0.014530748128890991,0.0060620903968811035,-0.009138780646026134,0.0011327494867146015,-0.0033564376644790173,-0.10250920275387078,0.1653983690439601,0.009266906355619803
0.2054901123046875,-0.02502523362636566,-0.017007209360599518,0.005188405513763428,-0.0054961927235126495,0.0025303319562226534,-0.00572366826236248,-0.1024370725559356,0.1650938594163001,0.009198897521140106
0.21537303924560547,-0.02429075539112091,-0.016144342720508575,0.006075799465179443,-0.002418377436697483,0.0014970256015658379,-0.0019505016971379519,-0.10236729622556269,0.1647484698068306,0.009134008313604662
0.22542619705200195,-0.02189159393310547,-0.013365648686885834,0.003555476665496826,0.0040503074415028095,-0.008674563840031624,-0.00367718911729753,-0.1022736616923648,0.1643545484330225,0.009069522381775141
0.23540997505187988,-0.020811915397644043,-0.011779837310314178,0.00470656156539917,-0.007303547114133835,-0.00907270610332489,-0.004967224318534136,-0.1021980759588946,0.16389059189751007,0.008987646643889291
0.24536609649658203,-0.022876784205436707,-0.012223169207572937,0.004679977893829346,-0.02235446870326996,-0.0066597037948668,-0.006470845080912113,-0.10224491354758543,0.16346109176102155,0.008924627783490555
0.2553749084472656,-0.02462741732597351,-0.013151779770851135,0.0026300549507141113,-0.020278267562389374,-0.0014580180868506432,-0.009654919616878033,-0.10231942774490617,0.16306951913882117,0.008851313491094722
0.26536107063293457,-0.024561375379562378,-0.012059152126312256,0.001488804817199707,-0.004617782309651375,-0.003958282060921192,-0.004911031574010849,-0.10226410411232496,0.1627059532787922,0.008760436486083439
0.27552199363708496,-0.023927196860313416,-0.0034284591674804688,-0.0006103515625,0.014928221702575684,-0.005913841538131237,-0.0026332298293709755,-0.10200915473102799,0.16235097193060924,0.008684606033143444
0.285660982131958,-0.02273082733154297,0.001839563250541687,-0.0011105537414550781,0.020697245374321938,0.0009861867874860764,0.0011947447201237082,-0.10160659869316736,0.16201155518671306,0.008624352227033387
0.2961111068725586,-0.020238250494003296,-0.0031726285815238953,-0.00134199857711792,0.02203068882226944,0.0004908386617898941,-0.002857787534594536,-0.1011845048447152,0.16171932185550594,0.00854328087137627
0.30579209327697754,-0.019222483038902283,-0.006256595253944397,0.0016376376152038574,0.01287574041634798,-0.0042196717113256454,-0.006082662381231785,-0.10084878648892692,0.16142522854005686,0.008449668534516697
0.31568002700805664,-0.01786467432975769,-0.007645696401596069,0.003763437271118164,-0.0006595093291252851,-0.0055805472657084465,-0.010533603839576244,-0.10066530217533369,0.1611272151075064,0.008342678980074814
0.3257589340209961,-0.01779155433177948,-0.011405132710933685,0.003766953945159912,-0.0105233583599329,-0.009187176823616028,-0.013629262335598469,-0.10060976585484495,0.16075664843591123,0.00820040737095043
0.335860013961792,-0.015819579362869263,-0.011048905551433563,0.0009011030197143555,-0.016889644786715508,-0.010819429531693459,-0.012953085824847221,-0.10061979621117019,0.16034919979266282,0.008058016822778449
0.3457789421081543,-0.015103816986083984,-0.010018177330493927,-0.0005726218223571777,-0.013454600237309933,-0.01692010834813118,-0.012908291071653366,-0.1006573782307313,0.15990073366824792,0.007919748133270614
0.3562021255493164,-0.011629819869995117,-0.010704576969146729,0.0010298490524291992,-0.014332643710076809,-0.0173957496881485,-0.01145287323743105,-0.10079515519211905,0.1594265070741834,0.007792574043304538
0.3657970428466797,-0.014181405305862427,-0.01206081360578537,0.0032317042350769043,-0.01103548426181078,-0.014058454893529415,-0.008842016570270061,-0.10099272921959047,0.1589826883298817,0.007683911530627513
0.37570714950561523,-0.015641584992408752,-0.012757658958435059,0.003143131732940674,-0.0035229732748121023,-0.008755301125347614,-0.004208116792142391,-0.10104899547391206,0.15863713652902317,0.00760709303055657
0.38564109802246094,-0.017273113131523132,-0.013117127120494843,0.0038189291954040527,0.007746725343167782,-0.0013300529681146145,0.005079710856080055,-0.10096553264836722,0.15837056710274997,0.007589035696953714
0.39571619033813477,-0.01854531466960907,-0.010021023452281952,0.004343569278717041,0.019039327278733253,0.0005120551213622093,0.011438806541264057,-0.10073691910672349,0.15818632945937636,0.007629947530026332
0.40685606002807617,-0.015541225671768188,-0.008386999368667603,0.003098428249359131,0.030038246884942055,-2.9010232537984848e-05,0.010250238701701164,-0.10033683598454549,0.1580109959364558,0.007682074894502485
0.41581010818481445,-0.012518838047981262,-0.010990634560585022,0.004638195037841797,0.029680853709578514,-0.00565626984462142,0.009697899222373962,-0.09988646088596506,0.1578162785601914,0.00772297603136048
0.4257810115814209,-0.012698531150817871,-0.009885668754577637,0.006800234317779541,0.012361500412225723,-0.00882254634052515,0.0044106184504926205,-0.09954272688148504,0.15757441741986716,0.007748955032037539
0.4356551170349121,-0.012805715203285217,-0.012678571045398712,0.009239554405212402,-0.01042929943650961,-0.008440382778644562,-0.0003287433064542711,-0.09942059628889682,0.1573710107283358,0.007756378885045373
0.4457259178161621,-0.012977108359336853,-0.01811591535806656,0.008110463619232178,-0.020380234345793724,-0.0060667069628834724,-0.002045736648142338,-0.09947184231294179,0.15714253523109126,0.00774710638006974
0.4558839797973633,-0.012663230299949646,-0.015420578420162201,0.0065038204193115234,-0.01469944417476654,-0.004149497486650944,1.315318513661623e-05,-0.09953867240207424,0.15693290138296745,0.007744556814676897
0.4658951759338379,-0.010732173919677734,-0.008173279464244843,0.003966331481933594,-0.0002990004140883684,-0.006507193669676781,0.003171289339661598,-0.09947796179225954,0.15670600237294052,0.00775406494575707
0.4760599136352539,-0.012962371110916138,-0.004596337676048279,0.000992119312286377,0.011413848027586937,0.00049185985699296,0.00979909859597683,-0.09931819837059719,0.15650411290751595,0.007788133961951242
0.4858241081237793,-0.014786839485168457,-0.004330597817897797,-0.0013604164123535156,0.019065309315919876,0.0039790915325284,0.011583096347749233,-0.09906648505429545,0.15638480461722717,0.007859253328802369
0.49669408798217773,-0.01534096896648407,-0.004021868109703064,-0.0007993578910827637,0.018998997285962105,0.004907736089080572,0.010881619527935982,-0.09875623540595567,0.15630723786465475,0.007928727552476323
0.5059590339660645,-0.01593095064163208,-0.005659416317939758,0.0016962885856628418,0.0179328341037035,0.0024860345292836428,0.008746244944632053,-0.0984697885916964,0.1562354803606505,0.00799072232134625
0.516071081161499,-0.016120627522468567,-0.009047344326972961,0.0044762492179870605,0.016032667830586433,-0.005755649879574776,0.003720326814800501,-0.09816361284409082,0.15611323957189346,0.00800342544585149
0.5258951187133789,-0.014489710330963135,-0.011426709592342377,0.004640519618988037,0.004888387396931648,-0.008206512778997421,0.0022239498794078827,-0.09787128058065536,0.15592426256778621,0.00800255175139895
0.5360450744628906,-0.012653380632400513,-0.010384827852249146,0.0026853084564208984,-0.002673391718417406,-0.007538858335465193,-7.435819134116173e-05,-0.09772898721897856,0.15573047148674604,0.00799601848401559
0.5466451644897461,-0.013666406273841858,-0.011192724108695984,-0.0001805424690246582,-0.0016818802105262876,-0.011340830475091934,0.0019192310282960534,-0.09769749271420665,0.15553426134132486,0.007996079678643119
0.5560688972473145,-0.01333625614643097,-0.010116174817085266,0.0009486079216003418,0.013507992029190063,-0.0151081383228302,0.006297734100371599,-0.09761236144964781,0.15529028947373064,0.008018846109290198
0.5659010410308838,-0.013636857271194458,-0.0037280097603797913,0.0011067986488342285,0.020115461200475693,-0.013712465763092041,0.009984560310840607,-0.09740302058083941,0.15498760593958635,0.008049187130021106
0.576591968536377,-0.014819622039794922,-0.003491446375846863,0.0012999176979064941,0.011923044919967651,-0.006238303612917662,0.011784590780735016,-0.09721131427661298,0.15474437664451912,0.00812058412970016
0.5857639312744141,-0.01820319890975952,-0.007867194712162018,0.00378495454788208,0.011532475240528584,-0.002549603581428528,0.012607455253601074,-0.09703913922226232,0.15456715361106335,0.008210284489140802
0.5959680080413818,-0.01981811225414276,-0.007817499339580536,0.005516469478607178,0.008181952871382236,0.0026587406173348427,0.011664962396025658,-0.09685123780907498,0.15443761953707005,0.008303731482675224
0.60595703125,-0.018892988562583923,-0.00657770037651062,0.006361424922943115,0.01689448393881321,0.0008989237248897552,0.010736851021647453,-0.09661742563802374,0.15434676712312198,0.008390866067018003
0.616070032119751,-0.01846034824848175,-0.003254920244216919,0.004647433757781982,0.02104928158223629,0.0002640262246131897,0.009712599217891693,-0.09632980903597524,0.154259369900131,0.008453291044422563
0.6259090900421143,-0.01648131012916565,-0.0021851733326911926,0.005217373371124268,0.026078661903738976,-0.0010063014924526215,0.006989250425249338,-0.09599091091047264,0.15413485564432886,0.008481641656489125
0.6361551284790039,-0.01446262001991272,-0.0024440884590148926,0.006063222885131836,0.0249598678201437,-0.002965589053928852,0.004055778495967388,-0.09565318505806354,0.15400110579018006,0.008486151301063147
0.6467370986938477,-0.014225512742996216,-0.0019599497318267822,0.006369352340698242,0.017028240486979485,-0.00572853023186326,0.0015675871400162578,-0.0954274211688011,0.15383426877665524,0.00846373158522317
0.6571040153503418,-0.012469768524169922,-0.002463892102241516,0.005725383758544922,0.0071082329377532005,-0.005412412341684103,-0.003159523941576481,-0.095305193216871,0.15362980807054774,0.008426704717286362
0.6661491394042969,-0.014003604650497437,-0.005827575922012329,0.005615174770355225,0.0046800789423286915,-0.008202828466892242,-0.004884453024715185,-0.09522000725251147,0.1534039831633872,0.008361147631317649
0.6761860847473145,-0.013886138796806335,-0.004008583724498749,0.004825949668884277,0.010264194570481777,-0.005656314082443714,-0.005745986010879278,-0.09510949793220719,0.15314336027809322,0.008284902717730495
0.6862599849700928,-0.014768347144126892,-0.0006899535655975342,0.0024333596229553223,0.016284404322504997,-0.0057618641294538975,-0.002597703132778406,-0.09494871634384967,0.15292102552160267,0.008210550427896477
0.6960110664367676,-0.014395415782928467,-0.001009613275527954,0.0008317828178405762,0.013300598599016666,-0.0028433059342205524,-0.005093884188681841,-0.09479464987946182,0.15271030739931632,0.008126466405267544
0.7061090469360352,-0.014348775148391724,-0.0033403337001800537,0.004738807678222656,0.004800553433597088,-0.00037677446380257607,-0.006233290769159794,-0.09471412999464426,0.15255319763100753,0.00804600391696961
0.7160019874572754,-0.01596599817276001,-0.006447993218898773,0.005552113056182861,0.0047393012791872025,-2.656877040863037e-05,-0.00846794992685318,-0.09467831609214393,0.15244390905482263,0.007948634540254788
0.7261219024658203,-0.015653103590011597,-0.00817503035068512,0.005654811859130859,0.0075288619846105576,-0.003723124973475933,-0.011831042356789112,-0.09463514146521146,0.15229587506582515,0.007822468753515936
0.7388420104980469,-0.012723028659820557,-0.008125029504299164,0.006718337535858154,0.003724802751094103,-0.005295721814036369,-0.009327404201030731,-0.0945849147534798,0.15215517890219576,0.007694766704836349
0.7462730407714844,-0.011812373995780945,-0.005203597247600555,0.003240346908569336,0.005307020153850317,-0.005120663437992334,-0.011284188367426395,-0.09451657128805457,0.1519885754506843,0.007573187223292005
0.7560381889343262,-0.011105090379714966,-0.005142495036125183,0.000617682933807373,0.00750306248664856,-0.0067814108915627,-0.012624025344848633,-0.0944551972664688,0.15181165180767184,0.007432790512759224
0.7661619186401367,-0.012132719159126282,-0.006287768483161926,0.00027441978454589844,0.016887078061699867,-0.006124586332589388,-0.011368025094270706,-0.0943641044485513,0.15161413929194636,0.007278769860292222
0.7760970592498779,-0.010463997721672058,-0.005918264389038086,0.000541388988494873,0.03704880550503731,-0.009803211316466331,-0.011948328465223312,-0.0941308865307658,0.15140360020414004,0.007103479725620474
0.7862520217895508,-0.00937245786190033,-0.002299666404724121,-0.0008578896522521973,0.050482820719480515,-0.016025597229599953,-0.008666514419019222,-0.09368415531238754,0.1511408549335036,0.006919199212534856
0.7960700988769531,-0.010240316390991211,0.0001659393310546875,-0.001653134822845459,0.05266128480434418,-0.00834157969802618,-0.005637701600790024,-0.09315410442436137,0.15086783857742647,0.006765253803535436
0.8062171936035156,-0.01043371856212616,-0.00315934419631958,-0.0026289820671081543,0.06655865907669067,-0.01498989388346672,-0.004349104594439268,-0.09252464114024964,0.1506368758947363,0.006615554398711956
0.8170170783996582,-0.01107652485370636,-0.00609172135591507,-0.0017259716987609863,0.07295957207679749,-0.021636612713336945,-0.004208756145089865,-0.09179179650832812,0.15034958997712533,0.00646029442470388
0.8267300128936768,-0.010076910257339478,-0.00034096837043762207,0.0018935203552246094,0.06566154211759567,-0.02212778851389885,-0.0016821085009723902,-0.09108877258656338,0.15003748994025018,0.00631812560311525
0.8362078666687012,-0.011605784296989441,-0.0024040043354034424,0.0016852617263793945,0.05903186649084091,-0.016570569947361946,-0.002237643813714385,-0.09047900849536404,0.14975321952399118,0.006196529767259304
0.8463530540466309,-0.010360360145568848,-0.009082257747650146,0.00022149085998535156,0.07461296021938324,-0.032488107681274414,-0.002447021659463644,-0.08981509007287666,0.14942468063487718,0.006070260385574915
0.8561501502990723,-0.007920369505882263,-0.003142416477203369,0.002095341682434082,0.09647591412067413,-0.05038268491625786,-0.0020816358737647533,-0.0889683072676092,0.1489189753320788,0.005906962187356584
0.8662419319152832,-0.00586274266242981,0.0060966238379478455,0.005425453186035156,0.09222878515720367,-0.05565516650676727,-0.005556048825383186,-0.08804167853994226,0.1483049240640818,0.005731549287081079
0.8761930465698242,-0.00817824900150299,-0.001649811863899231,0.005155742168426514,0.07321621477603912,-0.053138479590415955,-0.006824778858572245,-0.08727074690196933,0.14768694033576668,0.0055595084577249754
0.8877980709075928,-0.009940296411514282,-0.010379493236541748,0.006876826286315918,0.06986694037914276,-0.058552905917167664,-0.00837889313697815,-0.08661379823900753,0.14705096480796565,0.005369932491645907
0.896826982498169,-0.009321853518486023,-0.007670052349567413,0.010418176651000977,0.09341967105865479,-0.06959517300128937,-0.005250478163361549,-0.08582403054258915,0.14635146398445922,0.005176034730075321
0.9063870906829834,-0.0075967758893966675,-0.0007394924759864807,0.009657025337219238,0.10934900492429733,-0.07839176803827286,-0.00032746506622061133,-0.0848561332855941,0.14553353621558884,0.004993472362558946
0.9162640571594238,-0.008243188261985779,0.005030788481235504,0.010553061962127686,0.10116910189390182,-0.08054573088884354,0.0047919293865561485,-0.0838276800316385,0.14467528596225768,0.004849293878952577
0.9266691207885742,-0.011508047580718994,-0.0028165429830551147,0.014312982559204102,0.06359189748764038,-0.07578906416893005,-0.009054377675056458,-0.08297453810949153,0.14384434452187145,0.004699198111474633
0.9380190372467041,-0.015115633606910706,-0.02065329998731613,0.022844672203063965,0.0083512794226408,-0.0789177417755127,-0.023220529779791832,-0.08266753879775554,0.14304281693496254,0.004491991823960595
0.9465141296386719,-0.01734153926372528,-0.025071054697036743,0.03229844570159912,-0.034888967871665955,-0.09436380863189697,-0.052927449345588684,-0.082966441316794,0.1421627778922791,0.004144666435723257
0.9564070701599121,-0.010914593935012817,-0.03235842287540436,0.03603392839431763,-0.06304231286048889,-0.13247603178024292,-0.0815950483083725,-0.08357256109167004,0.1409605601789696,0.0035366804054886678
0.9663681983947754,-0.0032838135957717896,-0.02590569108724594,0.038153886795043945,-0.15109971165657043,-0.18938694894313812,-0.11677567660808563,-0.0847074632330159,0.13930248499948886,0.0026861529776776847
0.9766101837158203,0.0005812495946884155,-0.011191651225090027,0.039043545722961426,-0.2967354953289032,-0.25755801796913147,-0.16688251495361328,-0.08700015342739344,0.13695949182705988,0.0016201576285486165
0.9898791313171387,0.010636255145072937,-0.041462115943431854,0.04015260934829712,-0.5784733891487122,-0.28451472520828247,-0.25048527121543884,-0.09154715733469933,0.13412422930653198,0.00013591924716172438
0.9971551895141602,-0.0015735030174255371,-0.07669541984796524,0.04124009609222412,-0.8925870656967163,-0.3323799967765808,-0.3214374780654907,-0.09922750611317913,0.13090014622974258,-0.001730415031619436
1.0063540935516357,-0.006420239806175232,-0.09418464452028275,0.0466693639755249,-1.1654174327850342,-0.44438010454177856,-0.40649765729904175,-0.10984725822785817,0.12686169856733137,-0.00400677823628129
1.0165009498596191,0.004463478922843933,-0.09516531974077225,0.055827200412750244,-1.5915777683258057,-0.5497334003448486,-0.5320302844047546,-0.12397072373755073,0.12149050942056511,-0.006987985897139963
1.02656888961792,-1.89170241355896e-05,-0.07827766239643097,0.07426494359970093,-2.249236822128296,-0.6501122713088989,-0.6391149163246155,-0.1436052676100836,0.11499384193685337,-0.010585591957469893
1.038362979888916,-0.014285959303379059,-0.14146792888641357,0.07697200775146484,-3.156703472137451,-0.7748256921768188,-0.8497989177703857,-0.17109475401819385,0.10719393352227725,-0.014951798300414626
1.0465359687805176,-0.015331834554672241,-0.22436191141605377,0.10029453039169312,-4.387330532073975,-0.8748735785484314,-1.1173923015594482,-0.2095499349616494,0.09782442270095378,-0.02104395193870017
1.056549072265625,-0.037507422268390656,-0.28854891657829285,0.16881906986236572,-5.7717485427856445,-1.0787097215652466,-1.3979989290237427,-0.26126823804961236,0.08622139920093672,-0.029074897418283244
1.0665669441223145,-0.034812457859516144,-0.3543354868888855,0.23761528730392456,-7.147457122802734,-1.3022220134735107,-1.747581124305725,-0.3269893238960453,0.0709460085883582,-0.040233530205249154
1.0765719413757324,-0.0301777683198452,-0.37937477231025696,0.312621533870697,-8.782228469848633,-1.6008965969085693,-1.9650518894195557,-0.4077955847982479,0.0515459007935304,-0.05484581344030768
1.0881199836730957,-0.025480516254901886,-0.302487850189209,0.3607620596885681,-10.392650604248047,-2.028355121612549,-2.1790153980255127,-0.5041987723859689,0.024991537017853595,-0.0738581451797211
1.0966072082519531,-0.028636308386921883,-0.28543633222579956,0.44102030992507935,-12.491829872131348,-2.2236783504486084,-2.361661911010742,-0.61868134818689,-0.01023265829982663,-0.09978956327364262
1.1066100597381592,-0.030420321971178055,-0.28160160779953003,0.4722177982330322,-15.145529747009277,-2.422626495361328,-2.4386563301086426,-0.7557537697340674,-0.05715299783745557,-0.13688629628774338
1.1164910793304443,-0.10719799250364304,-0.1660289168357849,0.4806172847747803,-18.468252182006836,-2.5033411979675293,-2.2442822456359863,-0.9208902007475251,-0.12549561659642672,-0.19518410339279887
1.126664161682129,-0.12076278030872345,-0.09107893705368042,0.559089183807373,-21.65093994140625,-2.0679705142974854,-1.8200253248214722,-1.115571176040492,-0.2408062880206416,-0.30301049101457
1.13850998878479,-0.09445476531982422,0.04999262094497681,0.5813010334968567,-23.75031089782715,-1.5690975189208984,-1.703863501548767,-1.3216635969742305,-0.5417318495561941,-0.6022988976459924
1.1466100215911865,-0.1205674409866333,0.2847985625267029,0.5798527002334595,-24.416032791137695,-1.1395766735076904,-1.8669185638427734,-1.4216513325237066,-1.7705958502930597,-1.8351951543349356
1.1569929122924805,-0.19657596945762634,0.7095635533332825,0.5737156867980957,-22.87689208984375,-1.1139897108078003,-2.5446743965148926,-1.2548449587496957,-2.5807560974245116,-2.651413431214203
1.1667540073394775,-0.2570327818393707,0.9907391667366028,0.3072988986968994,-20.29695701599121,-1.6550114154815674,-3.149362325668335,-1.0483914430818138,-2.758497884000399,-2.829509029534229
1.1768150329589844,-0.18573357164859772,1.02964448928833,-0.01956331729888916,-17.591041564941406,-2.0804057121276855,-2.95599365234375,-0.8593980792485694,-2.8280589271686107,-2.8915336699225573
1.188453197479248,-0.002864256501197815,1.2118624448776245,-0.23798853158950806,-14.27775764465332,-2.1758086681365967,-2.765291213989258,-0.6978264020409165,-2.868677808586535,-2.9180278780040827
1.1968111991882324,-0.026439905166625977,1.456676959991455,-0.49127358198165894,-10.198633193969727,-2.0678181648254395,-2.5882794857025146,-0.5721928785176859,-2.894158302061436,-2.925166585428834
1.2069501876831055,-0.06716984510421753,1.3396366834640503,-0.7070750594139099,-5.907663345336914,-2.032395839691162,-2.348125696182251,-0.4881443314122009,-2.9119256282230266,-2.9194212834545126
1.2165989875793457,0.012755483388900757,1.099656105041504,-0.7455568909645081,-2.463245153427124,-1.9068045616149902,-2.094120740890503,-0.4431826197756402,-2.9255070463550465,-2.9053922615754666
1.2267889976501465,0.026730850338935852,0.8500275015830994,-0.686140775680542,-0.8329663276672363,-1.3328886032104492,-1.8010759353637695,-0.42424218365396227,-2.9345653011347816,-2.8878183163397613
1.2382268905639648,0.006178408861160278,0.39697393774986267,-0.43237292766571045,-0.8187894821166992,-0.5742980241775513,-1.3585501909255981,-0.4135409224396591,-2.937825887768154,-2.872550515762535
1.2472429275512695,-0.0151166170835495,-0.00023055076599121094,-0.055440425872802734,-1.3639241456985474,-0.130467489361763,-0.998583972454071,-0.4005498249066626,-2.93711175104936,-2.862479651904532
1.256803035736084,0.02460724115371704,-0.08377471566200256,0.2192925214767456,-1.543790340423584,-0.04097702354192734,-0.7944455146789551,-0.3841376918979892,-2.9354502303941103,-2.8564257887291724
1.2667651176452637,0.030948400497436523,-0.1327095627784729,0.291262686252594,-1.3851728439331055,-0.10850599408149719,-0.7433240413665771,-0.36806025327458297,-2.9344583154662476,-2.8515383065441506
1.2768988609313965,0.02104899287223816,-0.13787657022476196,0.20207107067108154,-1.028763771057129,-0.13778932392597198,-0.6254985928535461,-0.35490570002592353,-2.9341335657270355,-2.8470244874019524
1.2889928817749023,0.00577034056186676,-0.05121961236000061,0.06761682033538818,-0.8412036299705505,-0.0743839368224144,-0.5420527458190918,-0.34462189188478204,-2.9338663116919443,-2.842926798696217
1.2968969345092773,0.0016991496086120605,-0.04948514699935913,-0.006114959716796875,-0.8006881475448608,0.0341140441596508,-0.4070371687412262,-0.33562769713482415,-2.9329804033149176,-2.839823006074
1.3068208694458008,0.00712914764881134,-0.11550772190093994,-0.0068427324295043945,-0.7276869416236877,0.05209144949913025,-0.31930890679359436,-0.3274113133747905,-2.931834426291443,-2.8377288260332736
1.3168301582336426,0.026603803038597107,-0.13404414057731628,0.03245878219604492,-0.6615055203437805,0.0413019172847271,-0.21179842948913574,-0.3200206602853689,-2.9309598046034253,-2.8364938716490427
1.3268561363220215,0.04645909368991852,-0.10049763321876526,0.04280436038970947,-0.6156771183013916,0.03386561572551727,-0.11266221106052399,-0.3134771103257655,-2.9305282614487855,-2.836213213335551
1.3378050327301025,0.045993611216545105,-0.09923923015594482,0.030228018760681152,-0.5861021876335144,0.007125083822757006,-0.01815248280763626,-0.30747614036932275,-2.930506600534437,-2.836914436600294
1.3469090461730957,0.04404190182685852,-0.10926994681358337,0.015593290328979492,-0.48882144689559937,-0.04033644124865532,0.04186350107192993,-0.30217148941643374,-2.931123912662476,-2.8382723305167845
1.3568029403686523,0.05384171009063721,-0.09889635443687439,0.055190205574035645,-0.43070489168167114,-0.11460641026496887,0.12077722698450089,-0.2978295147145686,-2.9324837642949806,-2.8399487924839906
1.366914987564087,0.05675385892391205,-0.07025077939033508,0.07786870002746582,-0.4012436270713806,-0.0553918220102787,0.19035182893276215,-0.2940437108903422,-2.9340997500696875,-2.842478982194132
1.3776869773864746,0.024274170398712158,-0.07103204727172852,0.04336094856262207,-0.2847351133823395,-0.015210581943392754,0.24571681022644043,-0.29111470830966907,-2.93528785518276,-2.8454681552589496
1.387911081314087,-0.01608450710773468,-0.05003410577774048,0.006672799587249756,-0.17315702140331268,0.011989613994956017,0.26658332347869873,-0.289424732912605,-2.936173259920002,-2.848581843312498
1.3969120979309082,-0.02121683955192566,-0.00784561038017273,-0.014907538890838623,-0.1397993415594101,0.0037924039643257856,0.24645249545574188,-0.2884558553307227,-2.9369217966574928,-2.8515332776592532
1.4071521759033203,-0.041746050119400024,-0.005566388368606567,-0.04828464984893799,-0.17486031353473663,-0.029205050319433212,0.20482201874256134,-0.2874474212708758,-2.9377865349174117,-2.854190502694241
1.4169301986694336,-0.04683268070220947,-0.01956281065940857,-0.05276012420654297,-0.256515771150589,-0.09110064059495926,0.1586284190416336,-0.2857018828511382,-2.9390189729798295,-2.8564981377106755
1.426969051361084,-0.047673240303993225,-0.015428364276885986,-0.04112875461578369,-0.2698967158794403,-0.16492249071598053,0.09400159865617752,-0.283301969947798,-2.940802816101178,-2.858344583290095
1.4379658699035645,-0.04169338941574097,0.0008507966995239258,-0.03785818815231323,-0.23682771623134613,-0.2181372493505478,0.039500266313552856,-0.2809527550212602,-2.9430980434466885,-2.8595454670218134
1.4470281600952148,-0.04311761260032654,0.015377461910247803,-0.0502854585647583,-0.2001228779554367,-0.24129365384578705,0.008691702969372272,-0.2788408890900501,-2.945604848528758,-2.8602280024313638
1.4573030471801758,-0.045264050364494324,0.028558403253555298,-0.04324120283126831,-0.1168370470404625,-0.2531345784664154,-0.0022067511454224586,-0.27725672885136776,-2.9481794349047825,-2.860584156054579
1.4670629501342773,-0.03568135201931,0.05139559507369995,-0.02695751190185547,-0.0157877616584301,-0.24405819177627563,-0.016033457592129707,-0.2765959590299139,-2.950688387357818,-2.8606161927509444
1.4775080680847168,-0.03414618968963623,0.05065500736236572,-0.020991921424865723,0.07100306451320648,-0.23816940188407898,-0.01381850615143776,-0.2768740998825882,-2.9530377279431037,-2.8603974713300264
1.488551139831543,-0.030670300126075745,0.05468061566352844,-0.004390299320220947,0.09887352585792542,-0.2189113348722458,-0.010103289969265461,-0.2777177383592904,-2.9552400154478007,-2.8600965779995287
1.497169017791748,-0.022930040955543518,0.04744717478752136,0.02366548776626587,0.06700986623764038,-0.16856001317501068,-0.010555228218436241,-0.2785436941738415,-2.9571289117064437,-2.8598349377096097
1.507120132446289,-0.020915120840072632,0.023971915245056152,0.03882706165313721,0.04266248270869255,-0.1269170492887497,-0.013005869463086128,-0.2790432858574834,-2.9585383174557434,-2.859629449751781
1.5171170234680176,-0.023317813873291016,0.011873960494995117,0.05296415090560913,0.05594872683286667,-0.1037060022354126,-0.028332095593214035,-0.2794853372719804,-2.959620020094107,-2.8593259477684003
1.5271990299224854,-0.007986068725585938,0.017763912677764893,0.07872331142425537,0.04529902711510658,-0.033017851412296295,-0.03910974785685539,-0.2799298811207995,-2.9602134826566613,-2.8588753668532667
1.5381851196289062,-0.004858285188674927,0.009187459945678711,0.0822678804397583,0.04876939207315445,0.051885586231946945,-0.015433712862432003,-0.2803438127914184,-2.9598690364829556,-2.858466791075111
1.5471739768981934,-0.006891265511512756,0.006053298711776733,0.06751161813735962,0.12129785120487213,0.08553178608417511,0.005879244767129421,-0.2812076118607043,-2.959035696540424,-2.8582380278468245
1.557206153869629,0.0025601238012313843,0.020987719297409058,0.06462621688842773,0.20505133271217346,0.10689965635538101,0.03430689126253128,-0.2829275482360988,-2.9579836090330063,-2.8581015328342203
1.5675201416015625,0.007641211152076721,0.017416536808013916,0.06240129470825195,0.2173427939414978,0.1251240223646164,0.058627039194107056,-0.2852331142542348,-2.95680727742314,-2.8581719959491014
1.577287197113037,0.006171301007270813,0.01845225691795349,0.04981279373168945,0.15690289437770844,0.14683730900287628,0.08462055772542953,-0.2872709839966507,-2.9555187045585813,-2.8585138575034894
1.5888581275939941,0.0010766983032226562,-0.0020006895065307617,0.03821748495101929,0.146253764629364,0.13475827872753143,0.09970986098051071,-0.2888688517600856,-2.954245014332683,-2.859187639256872
1.5973169803619385,0.0014645010232925415,-0.010043323040008545,0.021442651748657227,0.22072693705558777,0.08491535484790802,0.09991199523210526,-0.2908127450975588,-2.953317715505841,-2.8598584532757667
1.6073250770568848,0.011801928281784058,0.02313026785850525,0.0013581514358520508,0.2606455683708191,0.06189725175499916,0.09648381918668747,-0.2933771679768899,-2.9527898212359958,-2.8603835655216012
1.6170830726623535,0.009773358702659607,0.024115025997161865,-0.02190089225769043,0.2770112156867981,0.06510103493928909,0.10241920500993729,-0.2961751579654072,-2.9523341591015666,-2.8608825576542616
1.6273488998413086,0.005202054977416992,0.01847785711288452,-0.03387773036956787,0.3043140769004822,0.05689312890172005,0.09707897901535034,-0.2991667640670172,-2.9518588168512867,-2.861344889155598
1.6385350227355957,0.00524391233921051,0.029836416244506836,-0.03426307439804077,0.31909143924713135,0.04125797748565674,0.07866188883781433,-0.30238755227425523,-2.9514919884191313,-2.8616528041453786
1.6472740173339844,0.004819989204406738,0.025765329599380493,-0.03220212459564209,0.30081892013549805,0.03141719475388527,0.0413721539080143,-0.3055348432232212,-2.951200591648444,-2.8616631443015117
1.6572551727294922,0.0009409189224243164,0.023800969123840332,-0.039267778396606445,0.2896836996078491,0.0305282324552536,0.0179645624011755,-0.30844395730239144,-2.9508306538390174,-2.8614005412314
1.667220115661621,-0.011052355170249939,0.011999368667602539,-0.05859494209289551,0.33310458064079285,-0.02208460122346878,-0.007972175255417824,-0.3114790654378679,-2.95059372974321,-2.8608464801817877
1.6774702072143555,-0.010455667972564697,0.02211308479309082,-0.06102418899536133,0.32328152656555176,-0.1070447638630867,-0.05073827877640724,-0.3146577323645675,-2.9509486047211957,-2.859905507176449
1.6886460781097412,-0.005444437265396118,0.034671902656555176,-0.035530686378479004,0.20245783030986786,-0.1714116781949997,-0.09796416759490967,-0.3171610415800568,-2.9519940938245535,-2.8586146682902753
1.6974968910217285,-0.014286711812019348,-0.0024913251399993896,0.002100706100463867,0.061053287237882614,-0.18171492218971252,-0.11337587982416153,-0.31821363915462425,-2.9533586498646174,-2.857221656752816
1.7074460983276367,-0.01846204698085785,-0.024697959423065186,0.031940340995788574,0.06890805065631866,-0.1752280741930008,-0.11741536110639572,-0.31854020903213537,-2.9547385614368182,-2.855914113135335
1.717303991317749,-0.017092272639274597,0.001971036195755005,0.030695438385009766,0.2102699726819992,-0.11326856911182404,-0.10197382420301437,-0.3196527303753639,-2.9557850776132866,-2.854498894640698
1.7273931503295898,-0.019188210368156433,0.0335119366645813,0.011674880981445312,0.4958358108997345,0.011535055935382843,-0.061333030462265015,-0.32285192359809667,-2.9558363237386236,-2.852974462374371
1.7383198738098145,-0.02504010498523712,0.048365235328674316,-0.0008014440536499023,0.9280905723571777,0.11934540420770645,-0.010686628520488739,-0.32975574178529865,-2.954633721625939,-2.8511956825486515
1.7473490238189697,-0.013688892126083374,0.07212752103805542,0.009799718856811523,1.401598334312439,0.26560258865356445,0.06215785816311836,-0.3412569703678197,-2.952045116341908,-2.8491584481711523
1.7573959827423096,-0.001726388931274414,0.07957592606544495,0.013550043106079102,1.8060986995697021,0.4632171392440796,0.14724957942962646,-0.35728315895734347,-2.9477032639431893,-2.846983731693205
1.7674310207366943,-0.00595720112323761,0.06048572063446045,0.022709906101226807,2.1865673065185547,0.6563844680786133,0.245894655585289,-0.3772471198731188,-2.941305629067932,-2.8448600331750304
1.7779040336608887,-0.0021520256996154785,0.05631732940673828,0.056166887283325195,2.6983935832977295,0.8447503447532654,0.36460691690444946,-0.40167838683518975,-2.9329870826921565,-2.842736687626782
1.7888579368591309,0.007351934909820557,0.07364046573638916,0.06572592258453369,3.527937650680542,0.980324923992157,0.52329021692276,-0.43287010688071303,-2.9227628270457804,-2.8402805752726943
1.797515869140625,0.01042705774307251,0.11154341697692871,0.028058767318725586,4.658926963806152,0.9990570545196533,0.6827272772789001,-0.4740351813191351,-2.911221352261429,-2.8367265799116037
1.807535171508789,0.02404579520225525,0.173664391040802,0.008177042007446289,5.965793609619141,0.9563248753547668,0.8059276342391968,-0.5274394585295371,-2.8985396536564636,-2.8307568727747783
1.8173651695251465,0.025802209973335266,0.2110767364501953,0.011781692504882812,7.28827428817749,0.9311609268188477,0.9485734701156616,-0.5939203288774422,-2.8841234681962837,-2.821402809297816
1.8275699615478516,0.017035558819770813,0.20906955003738403,0.016313910484313965,8.681657791137695,0.8925477266311646,1.0577175617218018,-0.6736356273680862,-2.86667889244722,-2.8073751639498736
1.8387010097503662,0.015386536717414856,0.20392584800720215,0.04806530475616455,10.384408950805664,0.9422702193260193,1.2064857482910156,-0.7681015843425247,-2.843371469470446,-2.7859369402453114
1.8475289344787598,0.013228341937065125,0.22628158330917358,0.08096647262573242,12.616451263427734,0.9291795492172241,1.4125733375549316,-0.881444637153706,-2.8088337259729896,-2.751755313022263
1.8575160503387451,0.017700091004371643,0.349043607711792,0.10631978511810303,15.17796516418457,0.9977777600288391,1.6303821802139282,-1.0170138500993493,-2.7499464816422177,-2.691505885728368
1.8677129745483398,0.0316658616065979,0.5819310545921326,0.20649921894073486,17.354223251342773,0.9745476841926575,1.8298571109771729,-1.1719308734420317,-2.6322693369382923,-2.5705462918539945
1.8776240348815918,0.007679745554924011,0.8222196698188782,0.40382227301597595,18.447402954101562,0.8995077610015869,1.7135072946548462,-1.3270629648437895,-2.3325764792368244,-2.2658689932398604
1.8891539573669434,-0.07822130620479584,0.7679936289787292,0.7435356974601746,18.346996307373047,1.2541781663894653,1.173255205154419,-1.4079334030537045,-1.4657350971601315,-1.394297931993063
1.8978018760681152,-0.2365095168352127,0.2946334481239319,1.0225505828857422,17.084613800048828,1.9709669351577759,1.2945811748504639,-1.3246025825064556,-0.6512627536982004,-0.5818325608507952
1.9096169471740723,-0.28899288177490234,0.05596756935119629,1.0822007656097412,15.645730972290039,2.1308538913726807,1.5219634771347046,-1.1861396979283794,-0.3496145955123918,-0.28716853775338286
1.917720079421997,-0.22590771317481995,0.23663878440856934,1.1431560516357422,13.842597007751465,2.188066244125366,1.6316633224487305,-1.0482604382330778,-0.2123665131882881,-0.15879181296904366
1.9277238845825195,-0.25433647632598877,0.1122732162475586,1.1696374416351318,11.990972518920898,2.3242099285125732,1.5683015584945679,-0.9236738679909658,-0.13221607614837172,-0.0899381784360459
1.9388530254364014,-0.28444141149520874,-0.1810278296470642,1.1102356910705566,10.5144624710083,2.4069480895996094,1.4879494905471802,-0.813524203866769,-0.07659419181108211,-0.04824433514048891
1.9478631019592285,-0.27626675367355347,-0.3098950982093811,0.9769248366355896,9.286470413208008,2.2728052139282227,1.3270459175109863,-0.7154191204955532,-0.0342631055889391,-0.021006913798983288
1.958096981048584,-0.1898857057094574,-0.22209972143173218,0.8252168297767639,8.16184139251709,2.2268412113189697,1.1547681093215942,-0.6283265750556155,-0.0008233914116573103,-0.0032813454978782262
1.9678170680999756,-0.14485178887844086,-0.17644405364990234,0.6918575763702393,7.090198993682861,2.189703941345215,1.0965142250061035,-0.5518733543276583,0.028208225845411123,0.008978313450647066
1.9802980422973633,-0.12306450307369232,-0.1761816442012787,0.5188161730766296,6.064164638519287,2.1314005851745605,1.044387698173523,-0.48566944706660714,0.05431032907475172,0.01821170352570561
1.9902100563049316,-0.09419974684715271,-0.14745816588401794,0.3985682725906372,5.133828639984131,2.1222636699676514,0.9790680408477783,-0.42914019838365436,0.07878929958974272,0.02534778131414324
1.9977669715881348,-0.07929227501153946,-0.15618538856506348,0.2901783585548401,4.345751762390137,2.027289628982544,0.8762082457542419,-0.38113594176551,0.10183887619104783,0.03081276468445061
2.0078229904174805,-0.05663502961397171,-0.17305651307106018,0.22442519664764404,3.735844850540161,1.925633430480957,0.7792784571647644,-0.3401135831273147,0.12302613225642137,0.034726947524243615
2.017958164215088,-0.027523532509803772,-0.16049650311470032,0.1676342487335205,3.322197198867798,1.7632801532745361,0.7027567625045776,-0.3042687489104447,0.14237059340626793,0.0375677097018521
2.0278611183166504,0.008626207709312439,-0.09415435791015625,0.08330404758453369,3.012542724609375,1.5110324621200562,0.645842969417572,-0.27188432776914134,0.1593923120026676,0.03956095297605848
2.038917064666748,0.04085204005241394,-0.018119633197784424,0.011341094970703125,2.6669795513153076,1.3506710529327393,0.58882737159729,-0.24278783510864427,0.17401053738740366,0.04095337592402166
2.0478758811950684,0.05198688805103302,0.017889469861984253,-0.038590312004089355,2.202887535095215,1.2266007661819458,0.541775643825531,-0.21771302089405192,0.18712191347544324,0.04219457138268318
2.0579428672790527,0.03850288689136505,0.028183311223983765,-0.08110523223876953,1.731772541999817,1.1052274703979492,0.4613550305366516,-0.1974626014598952,0.1991218356140243,0.04337600628812141
2.067817211151123,0.029335424304008484,0.030619174242019653,-0.08879107236862183,1.2761801481246948,0.9139525294303894,0.3495582044124603,-0.18188403422488475,0.20940031963711012,0.044337455565804956
2.0779030323028564,0.03149503469467163,-0.0016427189111709595,-0.07140976190567017,0.8698640465736389,0.7427565455436707,0.22921742498874664,-0.17082246101229578,0.21775067553751049,0.04489728565753749
2.0885910987854004,0.031768977642059326,-0.02667902410030365,-0.05943024158477783,0.5843621492385864,0.5840756893157959,0.14931060373783112,-0.16342226817761235,0.22449708401628157,0.04514678632955074
2.097970962524414,0.030300229787826538,-0.019406035542488098,-0.07436805963516235,0.47052672505378723,0.38853946328163147,0.09963439404964447,-0.15807929491323888,0.22934611743760538,0.04518418829643608
2.107901096343994,0.03536050021648407,0.011839717626571655,-0.09624230861663818,0.48757702112197876,0.22643843293190002,0.07811492681503296,-0.1532645695317709,0.232395295960935,0.04494092733012002
2.11796498298645,0.03284728527069092,0.041082024574279785,-0.1276455521583557,0.5675948858261108,0.10805507004261017,0.08874920010566711,-0.14794889153017235,0.233991520921235,0.04453011637568966
2.128048896789551,0.01540367305278778,0.057589128613471985,-0.14812755584716797,0.6407251954078674,0.026757195591926575,0.10713161528110504,-0.14181452161539979,0.23457352564194242,0.0440591542428116
2.138749122619629,-0.003383338451385498,0.05417242646217346,-0.14470231533050537,0.6658976674079895,-0.02206653542816639,0.11521563678979874,-0.13515772537951531,0.23451380235830138,0.04361929313625992
2.1479780673980713,-0.020364969968795776,0.03741493821144104,-0.11629265546798706,0.6339747905731201,-0.0492478646337986,0.1141803115606308,-0.12852695749776372,0.23409674304907963,0.04322663276343206
2.1579930782318115,-0.040222808718681335,0.006758555769920349,-0.07725471258163452,0.553277850151062,-0.029901597648859024,0.10418413579463959,-0.12248418845306035,0.23362109801784095,0.042903045283949046
2.16788911819458,-0.05379807949066162,-0.028480038046836853,-0.043507277965545654,0.4736788868904114,-0.01685539446771145,0.10671775788068771,-0.11724942904971973,0.23337114134357553,0.04275075792823529
2.178133010864258,-0.06194142997264862,-0.03874240815639496,-0.02555757761001587,0.4312666952610016,0.022684291005134583,0.09892401844263077,-0.11263454133697516,0.23339736137591133,0.042712542576655875
2.1886301040649414,-0.062313228845596313,-0.029051288962364197,-0.008294403553009033,0.4419228136539459,0.05197422206401825,0.09379950910806656,-0.1081805821425777,0.2337906503185376,0.04263889166083937
2.2002859115600586,-0.06301015615463257,-0.02358274906873703,-0.0042305588722229,0.46755465865135193,0.01606416143476963,0.07149393856525421,-0.10355589203370377,0.23411006774394214,0.042393896735108634
2.211487054824829,-0.04654981195926666,-0.020734399557113647,0.014027178287506104,0.4550401270389557,0.0037181461229920387,0.04019434377551079,-0.09892908692790867,0.23412811237997075,0.04185631474419245
2.2180309295654297,-0.031795933842659,-0.020394615828990936,0.0302698016166687,0.41597849130630493,0.01746884547173977,0.015321215614676476,-0.09460177465788334,0.23413967635047822,0.041102069193984715
2.2280569076538086,-0.02950260043144226,-0.02071000635623932,0.03021138906478882,0.3659546375274658,0.06011195853352547,-0.003173318924382329,-0.09078087480531716,0.2344283615615788,0.04025034683269858
2.2387571334838867,-0.02608393132686615,-0.015105940401554108,0.023283779621124268,0.3322238326072693,0.11416454613208771,-0.02014031819999218,-0.08742179421155294,0.23522219154827032,0.03932543415628653
2.2479591369628906,-0.02090027928352356,-0.00048603862524032593,0.016006171703338623,0.3226979672908783,0.15315215289592743,-0.031077919527888298,-0.08429550104463415,0.23646936875682925,0.03830900135556724
2.258018970489502,-0.01667037606239319,0.011295109987258911,0.011777758598327637,0.3415137231349945,0.2142155021429062,-0.04220913350582123,-0.081170652264676,0.23819919234815407,0.037165370770520456
2.2679970264434814,-0.010399281978607178,0.018017366528511047,0.005806326866149902,0.38213637471199036,0.2238539308309555,-0.043533097952604294,-0.07774875592420806,0.24030732384497083,0.03588538360990026
2.278200149536133,-0.004032135009765625,0.025791510939598083,0.0045410990715026855,0.41247671842575073,0.23304182291030884,-0.05210288614034653,-0.07399212097412003,0.24248627527884778,0.03444705208265738
2.2887489795684814,0.006216824054718018,0.03137233108282089,0.017214179039001465,0.42098408937454224,0.22779269516468048,-0.05057923495769501,-0.07004902674076782,0.244674925369912,0.032933170518911384
2.298037052154541,0.008923336863517761,0.026067957282066345,0.027252137660980225,0.38621440529823303,0.2173355221748352,-0.04898426681756973,-0.0662197534386544,0.24679523696412864,0.031458041288045316
2.308091163635254,0.01467449963092804,0.014809243381023407,0.03673887252807617,0.3174436092376709,0.22360390424728394,-0.05273644998669624,-0.06291469897622264,0.24890346654628867,0.030094161952050606
2.3181140422821045,0.017504051327705383,-0.00827823206782341,0.04258608818054199,0.23763509094715118,0.2387506365776062,-0.0575178898870945,-0.060362559091847456,0.25117577925522144,0.028881670649397794
2.3283450603485107,0.009694695472717285,-0.031000033020973206,0.04011911153793335,0.17805138230323792,0.2331002950668335,-0.060367949306964874,-0.058514445554350966,0.2534804561056443,0.027779629889446315
2.3388009071350098,0.012264668941497803,-0.03749311342835426,0.03332841396331787,0.15397746860980988,0.23049572110176086,-0.055632583796978,-0.05708582699315471,0.25574227704262487,0.026791081957367614
2.3480989933013916,0.021480053663253784,-0.02358943596482277,0.025178968906402588,0.16494408249855042,0.21168293058872223,-0.03150775656104088,-0.05566157219397777,0.2579184682743784,0.025955410835323107
2.3581151962280273,0.0191195011138916,0.0012347772717475891,0.01501554250717163,0.17495010793209076,0.1863272339105606,-0.016019076108932495,-0.05405883394385066,0.25986655082835014,0.025293737767005726
2.3680319786071777,0.01818522810935974,0.01329941675066948,0.012478113174438477,0.17714670300483704,0.185078427195549,-0.00803151074796915,-0.0523983297706914,0.2616969267349894,0.024730599651671726
2.378185987472534,0.006836295127868652,0.012782327830791473,0.014501750469207764,0.19095972180366516,0.17280419170856476,0.001916194916702807,-0.050624248635163446,0.2634722480958699,0.0242269887275993
2.388762950897217,-0.0038054287433624268,0.010824121534824371,0.012086451053619385,0.1982187032699585,0.1497071236371994,-0.0012662825174629688,-0.048719628035561506,0.2650675433064404,0.0237231502307507
2.3982300758361816,-0.007666856050491333,0.005538273602724075,0.016901910305023193,0.17057162523269653,0.13323627412319183,-0.006262904964387417,-0.046923347572047094,0.26645420783314855,0.023197579249542258
2.4084911346435547,-0.010427862405776978,-0.008479073643684387,0.021112680435180664,0.11793737858533859,0.12407349795103073,-0.01014531496912241,-0.04552782958357334,0.26773429306603014,0.02272702141851919
2.4182510375976562,-0.016949564218521118,-0.03261306881904602,0.02241647243499756,0.05667828023433685,0.11788883805274963,-0.017252225428819656,-0.044728147904260114,0.2689347233905788,0.02234607477970994
2.4281911849975586,-0.02390018105506897,-0.051176536828279495,0.017454862594604492,0.0043083177879452705,0.1033438891172409,-0.007360180839896202,-0.04447728035755988,0.27001733246021836,0.022137390051478557
2.4386520385742188,-0.02427777647972107,-0.047774169594049454,-0.002351820468902588,-0.030535416677594185,0.09464627504348755,0.023488013073801994,-0.04459981856198123,0.2710292311872572,0.022240095825921524
2.4481701850891113,-0.018595606088638306,-0.03750051558017731,-0.02752065658569336,-0.05068427696824074,0.07934858649969101,0.06029391288757324,-0.04497717148631207,0.27196326036288376,0.022762984543255736
2.4582600593566895,-0.013967931270599365,-0.03120412304997444,-0.04459637403488159,-0.05112583190202713,0.0652032122015953,0.09431712329387665,-0.04536452032709706,0.2727566364249977,0.02365285011764763
2.4682650566101074,-0.012916415929794312,-0.032860562205314636,-0.05181092023849487,-0.030817246064543724,0.04138447716832161,0.12140413373708725,-0.045541048955522793,0.27328374684435064,0.024801010095759305
2.478339195251465,-0.00973743200302124,-0.029670000076293945,-0.0519254207611084,-0.020602958276867867,0.01828448288142681,0.14489375054836273,-0.045447917268955196,0.2736103069403033,0.02615162629607772
2.4886322021484375,-0.006177753210067749,-0.025547388941049576,-0.05347400903701782,-0.02384861744940281,-0.015975486487150192,0.1482497602701187,-0.04521605954555025,0.27361870712430425,0.02762548766945169
2.4981279373168945,-0.0007506608963012695,-0.03284145146608353,-0.04660522937774658,-0.05050792545080185,-0.06014374643564224,0.139583557844162,-0.045048406197514365,0.2732410976098188,0.029116837387854894
2.5083320140838623,0.0005766153335571289,-0.04141022637486458,-0.03087759017944336,-0.08300889283418655,-0.09147650003433228,0.13018403947353363,-0.04513338062874306,0.2724493493865124,0.03059592645409841
2.518346071243286,0.0010355710983276367,-0.03860075771808624,-0.019824624061584473,-0.10620182752609253,-0.11203370988368988,0.12425559014081955,-0.045513387289457856,0.27134292652405634,0.03207315428211537
2.528830051422119,0.002278268337249756,-0.025141481310129166,-0.022175729274749756,-0.11963444948196411,-0.12108578532934189,0.12043676525354385,-0.04610808683476794,0.2701070429264582,0.03355470610369735
2.538789987564087,-0.0033642351627349854,-0.010043945163488388,-0.02720719575881958,-0.11813775449991226,-0.10145962238311768,0.11312292516231537,-0.046819416561836004,0.2689400628773018,0.034998146959322914
2.5483450889587402,-0.008264213800430298,0.00036298856139183044,-0.02902930974960327,-0.09287064522504807,-0.09795721620321274,0.10424213856458664,-0.047384179585947386,0.26788787527123503,0.03633701764330066
2.5583839416503906,-0.010225951671600342,0.008355990052223206,-0.018642008304595947,-0.08606041222810745,-0.08271727710962296,0.08823760598897934,-0.04786034564106752,0.26695270927823445,0.03748324080105553
2.568358898162842,-0.01501166820526123,0.008820947259664536,-0.004130959510803223,-0.08108808845281601,-0.04902970790863037,0.08167024701833725,-0.04834199542805532,0.26628818007041394,0.0385279935835918
2.578403949737549,-0.01245492696762085,-0.0013884752988815308,0.0023618340492248535,-0.07142560929059982,-0.023307036608457565,0.07458624243736267,-0.04875576234379782,0.2659522918945788,0.039482704749944454
2.5885329246520996,-0.012264221906661987,-0.002908993512392044,0.008543908596038818,-0.05198962613940239,-0.008398216217756271,0.07324283570051193,-0.04902538427885276,0.265837165152002,0.040358145516525216
2.5985450744628906,-0.00891450047492981,-0.0012369044125080109,0.01261913776397705,-0.022771820425987244,-0.005144099239259958,0.07216852158308029,-0.049047035445766385,0.2658290917563224,0.04115977888873043
2.6084320545196533,-0.0063773393630981445,-0.005208604037761688,0.020827889442443848,-0.013278082013130188,0.002559271641075611,0.06554427742958069,-0.04891396574035992,0.26585463732557374,0.04187197460538655
2.6184070110321045,-0.0069991350173950195,-0.00774039700627327,0.02810502052307129,-0.023314204066991806,0.016332607716321945,0.05811512470245361,-0.04885169656626131,0.2659290275108819,0.04251406311722787
2.6284351348876953,-0.008962571620941162,-0.013448301702737808,0.029394030570983887,-0.045362748205661774,0.027449442073702812,0.0463128499686718,-0.04903614049272101,0.2661005405283427,0.04310577039109488
2.6396961212158203,-0.011468768119812012,-0.02271820232272148,0.030829310417175293,-0.06173080578446388,0.033355265855789185,0.0272400863468647,-0.04948700372525755,0.2663638593859103,0.04359636520552807
2.6486001014709473,-0.014714598655700684,-0.030752114951610565,0.033832013607025146,-0.07518507540225983,0.03325766324996948,0.013335084542632103,-0.05013647349187649,0.26660579785347915,0.043968000617877104
2.6601481437683105,-0.018523842096328735,-0.025785934180021286,0.037274956703186035,-0.08411732316017151,0.037899285554885864,-0.00021987332729622722,-0.05087802066788545,0.26689545586914426,0.04423255262483326
2.6684820652008057,-0.022489547729492188,-0.026394903659820557,0.0338708758354187,-0.09189705550670624,0.04033789783716202,-0.009277550503611565,-0.051716972153236465,0.267206558296801,0.044415946955734836
2.6785941123962402,-0.029319971799850464,-0.027629107236862183,0.02674776315689087,-0.09335673600435257,0.058549657464027405,-0.010807801969349384,-0.05263199371596363,0.2676575375241869,0.04455273171509468
2.6887810230255127,-0.03672212362289429,-0.021550018340349197,0.01609116792678833,-0.07923534512519836,0.0852893516421318,-0.006768958643078804,-0.05346630040718356,0.2683844361200216,0.04469822144258446
2.698699951171875,-0.039392322301864624,-0.016126848757267,0.0033885836601257324,-0.0500875785946846,0.07959897816181183,-0.0010245206067338586,-0.054055952397951954,0.269217307800124,0.04483431511895363
2.708670139312744,-0.03490602970123291,-0.013172358274459839,-0.004302978515625,-0.03459491953253746,0.07969365268945694,-0.0020207026973366737,-0.05439786133272309,0.27001492910137465,0.04491976311920266
2.7214879989624023,-0.02676662802696228,-0.008901823312044144,-0.006489932537078857,-0.041193168610334396,0.06759677082300186,-0.004026861861348152,-0.05465957870927211,0.2707257618073696,0.04500071027393015
2.7286691665649414,-0.021950185298919678,-0.01077517494559288,-0.008884191513061523,-0.06880056858062744,0.06646013259887695,-0.015960486605763435,-0.055114546925430934,0.2713726795601264,0.04504411719516018
2.739065170288086,-0.014498800039291382,-0.01661568507552147,-0.014428377151489258,-0.07776077091693878,0.044093575328588486,-0.020671086385846138,-0.05578335143153692,0.27188538106317484,0.04506911259791521
2.748553991317749,-0.006084531545639038,-0.011381939053535461,-0.023593425750732422,-0.07695505023002625,0.02990642935037613,-0.030352475121617317,-0.05650167104637344,0.27217527715649986,0.0450172089493675
2.7585880756378174,0.0022676587104797363,-0.0005620568990707397,-0.029026925563812256,-0.06758498400449753,-0.0008442928083240986,-0.034434571862220764,-0.05714216784434203,0.2721636921664232,0.04490075606488414
2.7686150074005127,0.0064674317836761475,0.012613456696271896,-0.03330862522125244,-0.06535857915878296,-0.022161919623613358,-0.04452933371067047,-0.05774634306401639,0.27178886768963856,0.0446797304304969
2.7785820960998535,0.007495582103729248,0.0128682442009449,-0.028044164180755615,-0.07011125236749649,-0.04208662733435631,-0.05278246849775314,-0.058423477001486375,0.27119087981280016,0.044379114678986864
2.7888121604919434,0.007590770721435547,0.007575776427984238,-0.01909559965133667,-0.07647739350795746,-0.04640933871269226,-0.05961816385388374,-0.05920069110014368,0.2704859472621005,0.04401687318097253
2.798675060272217,0.002011805772781372,0.004781760275363922,-0.01104062795639038,-0.07084134221076965,-0.055272601544857025,-0.06292793899774551,-0.05999722043813735,0.26974766438945,0.043610818267802824
2.8087620735168457,-0.003912806510925293,0.007044769823551178,-0.007666885852813721,-0.05748946964740753,-0.048641908913850784,-0.06204409524798393,-0.06068039963449424,0.26901806907947273,0.043158123216704
2.818664073944092,-0.007752865552902222,0.009129490703344345,-0.006732285022735596,-0.0361945666372776,-0.045856773853302,-0.05233527347445488,-0.0611294716217151,0.2683859970880089,0.04272719069971003
2.828665018081665,-0.010971277952194214,0.010285817086696625,-0.0034887194633483887,-0.011901861056685448,-0.03349575772881508,-0.04675382003188133,-0.061362132597586376,0.2678972137765491,0.042300066616301805
2.8391079902648926,-0.011652737855911255,0.008434679359197617,-0.0008572936058044434,0.0046970900148153305,-0.028672505170106888,-0.039846643805503845,-0.06145868761701111,0.267560531675855,0.041901790919729516
2.8487820625305176,-0.011320322751998901,0.0026846379041671753,0.0007780194282531738,0.013557193800807,-0.029605677351355553,-0.04100320115685463,-0.061517315827962105,0.2672479542409377,0.041488798310405396
2.858713150024414,-0.009161978960037231,-0.003609713166952133,0.008166015148162842,-0.0027530700899660587,-0.034720808267593384,-0.04003114625811577,-0.06161678770440077,0.2669254883532091,0.04107332413065948
2.8687801361083984,-0.0059716105461120605,-0.009536489844322205,0.013912796974182129,-0.021083874627947807,-0.024273497983813286,-0.04239816591143608,-0.06186777022574482,0.2666589456630889,0.04070892325404342
2.8789501190185547,-0.007751137018203735,-0.013260647654533386,0.015475869178771973,-0.02338697575032711,-0.02050192840397358,-0.040066834539175034,-0.06222041437292076,0.26643710644317803,0.040375538307077304
2.888942003250122,-0.010512053966522217,-0.008725233376026154,0.011211931705474854,-0.008793385699391365,-0.013884326443076134,-0.0327029824256897,-0.06252262182541823,0.26621943715872287,0.040059440202106465
2.8988289833068848,-0.007172763347625732,0.0011056587100028992,0.005556821823120117,0.006590896751731634,-0.0054056220687925816,-0.025209112092852592,-0.06265598079219949,0.2660499052580609,0.03977531763554239
2.9092600345611572,-0.006703853607177734,0.007175713777542114,-0.0002555251121520996,0.008490795269608498,0.00836798083037138,-0.01880660653114319,-0.0627047949972605,0.26597577510699394,0.03953943648697347
2.9187369346618652,-0.007013857364654541,0.0032255128026008606,0.0010036230087280273,0.0030755242332816124,0.015173688530921936,-0.015066197142004967,-0.06273354990151478,0.2659971263220431,0.03934796098498984
2.92877197265625,-0.00886806845664978,-0.003700561821460724,0.005537152290344238,-0.010304229333996773,0.018503261730074883,-0.015301620587706566,-0.06282386110895206,0.266086097533645,0.0391988384361831
2.93914794921875,-0.007026642560958862,-0.005649104714393616,0.00846952199935913,-0.023792609572410583,0.01775464601814747,-0.01989477500319481,-0.0630180221718352,0.2662054333821062,0.0390757541202723
2.94877290725708,-0.007094442844390869,-0.008746504783630371,0.010931909084320068,-0.028081879019737244,0.017093250527977943,-0.019406190142035484,-0.06326252210868295,0.26635930752409853,0.0389496421423559
2.9588541984558105,-0.006638318300247192,-0.007632583379745483,0.007731735706329346,-0.021732371300458908,0.011867862194776535,-0.013181584887206554,-0.063445968216161,0.26647513061225103,0.03885483003968754
2.9692459106445312,-0.0046225786209106445,0.0012592822313308716,0.002912163734436035,-0.014204978942871094,0.0046389782801270485,-0.01530151441693306,-0.0635875859592058,0.2664917980754703,0.038764925886762114
2.9788851737976074,-0.004883527755737305,0.005084902048110962,0.003795444965362549,-0.016786115244030952,0.0100638372823596,-0.011440463364124298,-0.06377540716771857,0.2665125411462706,0.038674908793055206
2.9892899990081787,-0.008385062217712402,0.0015699341893196106,0.004451096057891846,-0.01837199367582798,0.014201590791344643,-0.010272347368299961,-0.06402550056740457,0.2665719653010062,0.03861441585684468
2.998789072036743,-0.012601912021636963,-0.0009289979934692383,0.00436478853225708,-0.012031273916363716,0.020092235878109932,-0.012953618541359901,-0.06423605272639897,0.26667643777382805,0.03854113259157052
3.0089340209960938,-0.013415873050689697,0.0033286884427070618,0.0010262131690979004,0.009751752950251102,0.01375923864543438,-0.008885959163308144,-0.06425085621575723,0.2667772617534688,0.03843406736688613
3.018886089324951,-0.009857773780822754,0.012357711791992188,-0.0073833465576171875,0.026743518188595772,0.008007610216736794,-0.0008687790832482278,-0.06404098277837955,0.2668340552814524,0.03833013103103232
3.0288140773773193,-0.007784038782119751,0.020153239369392395,-0.01068425178527832,0.03209920600056648,0.008195541799068451,0.002970220986753702,-0.06369103712088578,0.2668769872416591,0.03826496574681167
3.039094924926758,-0.008397161960601807,0.019369743764400482,-0.011184215545654297,0.03117428533732891,0.0013538803905248642,0.0026517068035900593,-0.0633293917201074,0.2668894451524395,0.03821573627126917
3.048798084259033,-0.008745402097702026,0.01472625881433487,-0.00890427827835083,0.02178962342441082,0.002348171779885888,0.003747810609638691,-0.06307429845818723,0.2668663570521208,0.038169199080758755
3.058793067932129,-0.00649571418762207,0.011162862181663513,-0.008352577686309814,0.011064007878303528,-0.002879347186535597,-0.00021017930703237653,-0.06296008816901974,0.266825779783616,0.03814548030515504
3.0687320232391357,-0.004903912544250488,0.010126970708370209,-0.0053198933601379395,0.0046843234449625015,-0.014270264655351639,-0.007079217582941055,-0.06291250707602382,0.2666772179383541,0.03809530143093306
3.078738212585449,-0.0020685195922851562,0.00880906730890274,-0.0038907527923583984,0.001168151618912816,-0.034522272646427155,-0.01399438176304102,-0.06291816867256637,0.2663473308488268,0.03798258080174025
3.088871955871582,0.004168182611465454,0.011675149202346802,-0.0002626180648803711,-0.015811964869499207,-0.03891497850418091,-0.02070368453860283,-0.06305835096320911,0.2658628271627103,0.03783024392667426
3.0988550186157227,0.0048645734786987305,0.011693187057971954,0.004736781120300293,-0.03540563955903053,-0.03906678035855293,-0.022355373948812485,-0.06345309168727069,0.2653841674676654,0.03768729334702376
3.108774185180664,0.0006035268306732178,0.01144874095916748,0.004229724407196045,-0.04517034813761711,-0.041939619928598404,-0.03171931579709053,-0.0640497114296379,0.264907363083741,0.037531395619201546
3.118825912475586,1.7881393432617188e-06,0.007281951606273651,0.0062084197998046875,-0.04499511420726776,-0.035987723618745804,-0.034323886036872864,-0.06470833643690375,0.26441879915669275,0.03732208851308912
3.128882884979248,-0.003344893455505371,0.009696543216705322,0.009445488452911377,-0.028244098648428917,-0.03605305776000023,-0.032959602773189545,-0.06523980834914894,0.2639898136155522,0.037090787035498035
3.13897705078125,-0.008572667837142944,0.016340941190719604,0.008980512619018555,-0.01790437661111355,-0.03206364065408707,-0.03371940180659294,-0.06559996871037914,0.2635781482211025,0.03682151424096554
3.148758888244629,-0.008041530847549438,0.013341203331947327,0.013442397117614746,-0.012283358722925186,-0.023112179711461067,-0.0339616984128952,-0.06586896374659952,0.2632533544946692,0.03651826495362535
3.158937931060791,-0.010575979948043823,0.010308891534805298,0.015985608100891113,-0.011240198276937008,-0.016660673543810844,-0.03617611899971962,-0.06610943344043217,0.26303745032055287,0.036206787482988986
3.1688289642333984,-0.011906534433364868,0.004012018442153931,0.019659101963043213,-0.019452853128314018,-0.009987058117985725,-0.03949761018157005,-0.06641027119674413,0.2629193058617282,0.0358854250774463
3.178957939147949,-0.010107070207595825,-0.0023883357644081116,0.02215176820755005,-0.0210957583039999,-0.0009272503666579723,-0.03595241159200668,-0.06676894166378645,0.2629268396837162,0.03557756412636089
3.189065933227539,-0.010907381772994995,-0.00048473477363586426,0.02176344394683838,-0.01572975516319275,-0.00862964428961277,-0.03166445344686508,-0.06707855315447137,0.26287621158533714,0.03530699911555304
3.199057102203369,-0.008011221885681152,0.0002872198820114136,0.02037292718887329,-0.02561247907578945,-0.006117484997957945,-0.02762923203408718,-0.06739068261298396,0.2628057891003604,0.03505910569766685
3.2091519832611084,-0.009914368391036987,-0.0007608681917190552,0.018157541751861572,-0.03131856769323349,0.0026640226133167744,-0.021234717220067978,-0.06778353328277475,0.26277688699872004,0.03490436578599699
3.218998908996582,-0.012865602970123291,0.00048379600048065186,0.013451933860778809,-0.029658669605851173,0.010819554328918457,-0.020292971283197403,-0.06821834663928003,0.2628072353986849,0.034781291586371506
3.229152202606201,-0.015229612588882446,-0.0008809119462966919,0.013484776020050049,-0.0164093766361475,0.011695644818246365,-0.01760765165090561,-0.06854622503632757,0.2628913527819386,0.034656874534613136
3.2393479347229004,-0.01426747441291809,0.0038289278745651245,0.012471497058868408,-0.0046246228739619255,0.011005086824297905,-0.014504803344607353,-0.06871960435449892,0.26298872241648974,0.03452386109478754
3.2491769790649414,-0.011404454708099365,0.007305733859539032,0.007332146167755127,-0.00252080918289721,0.01427336223423481,-0.014417078346014023,-0.06879827905255083,0.2630752091321078,0.03438870445586226
3.2591910362243652,-0.008463919162750244,0.004092410206794739,0.0035271644592285156,-0.011527886614203453,0.014086941257119179,-0.015193389728665352,-0.06888375166175281,0.2631922503613147,0.03425768668422936
3.2691330909729004,-0.006466329097747803,0.0009409487247467041,0.0019797682762145996,-0.02588525414466858,0.008560793474316597,-0.02109128050506115,-0.06910605621891967,0.2632769663470779,0.03412462415874286
3.279147148132324,-0.005711853504180908,-0.0039204806089401245,0.00787276029586792,-0.04092492163181305,0.010466817766427994,-0.026467669755220413,-0.0694975887336834,0.26334058354454376,0.033978328024177794
3.2892160415649414,-0.007241547107696533,-0.007741034030914307,0.00990283489227295,-0.042073193937540054,0.017262183129787445,-0.02995380014181137,-0.06997765061840894,0.2634486762002385,0.03382324333236512
3.2991929054260254,-0.008989989757537842,-0.00656205415725708,0.004109859466552734,-0.021072039380669594,0.0171109177172184,-0.030644090846180916,-0.07037128877906845,0.2635604376561644,0.033608096149317625
3.309185028076172,-0.010128885507583618,-0.0032446905970573425,-0.001458883285522461,0.0062195854261517525,0.010256517678499222,-0.02762119099497795,-0.07051803199226403,0.2636367304299323,0.03334317749615598
3.3191661834716797,-0.011209249496459961,0.0021473467350006104,-0.0011227726936340332,0.020054174587130547,0.00819389894604683,-0.027231836691498756,-0.07046644797367758,0.26364848268539326,0.03303963042426589
3.329218864440918,-0.012362807989120483,0.002019748091697693,-0.0011352896690368652,0.013798275962471962,0.007652123458683491,-0.0336722657084465,-0.07039549350079051,0.2636566032675524,0.032692275760129064
3.339322090148926,-0.013466328382492065,-0.007578596472740173,-0.001356959342956543,-0.007706483360379934,0.011162169277668,-0.043563514947891235,-0.07048785281133979,0.26366344240422057,0.032309589603959014
3.349224090576172,-0.012817919254302979,-0.016021013259887695,0.0006650686264038086,-0.021122489124536514,0.014825968071818352,-0.0436549112200737,-0.0707522211822678,0.26373991425867543,0.031928614659448566
3.359400987625122,-0.013795554637908936,-0.01608116179704666,-0.0015661120414733887,-0.018963731825351715,0.007123041432350874,-0.04583870247006416,-0.0710419799626307,0.26379413775940125,0.03154221010092481
3.369270086288452,-0.01160973310470581,-0.012194521725177765,-0.0030483007431030273,-0.018320761620998383,0.006893433164805174,-0.0403047613799572,-0.07129110222671423,0.2637949612503496,0.031167312329162592
3.379276990890503,-0.007851451635360718,-0.011207252740859985,-0.00850832462310791,-0.010770699009299278,0.00655308086425066,-0.03074108436703682,-0.0714792346745847,0.2637938040188014,0.0308632695032844
3.3893871307373047,-0.009922057390213013,-0.013935454189777374,-0.010336458683013916,0.00497382553294301,0.003350585699081421,-0.030681109055876732,-0.07156788941054597,0.2637590389151567,0.03057605026614941
3.39949893951416,-0.011000126600265503,-0.016566194593906403,-0.006212770938873291,0.019676871597766876,-0.006523084361106157,-0.021806390956044197,-0.07151294737046728,0.2636415645589271,0.03027686087725764
3.409210205078125,-0.008568793535232544,-0.013497412204742432,-0.008115589618682861,0.035668667405843735,-0.0025210189633071423,-0.01629689708352089,-0.07129701331597513,0.2635052421582022,0.03001200066058865
3.419271945953369,-0.006279498338699341,-0.010078653693199158,-0.012014508247375488,0.03565535321831703,-0.009110478684306145,-0.008962552063167095,-0.07092907395696786,0.2633392463196262,0.029784686347977655
