timestamp,accel_x,accel_y,accel_z,rotation_x,rotation_y,rotation_z, pitch,roll,yaw
0.046750783920288086,0.002188846468925476,0.007352270185947418,0.03768438100814819,0.09136978536844254,-0.08444606512784958,0.39667457342147827,-0.049613830835047716,0.12101164956650871,0.0030062085910151043
0.061171770095825195,0.006685361266136169,-0.0070314593613147736,0.03763824701309204,0.06953266263008118,-0.08123961836099625,0.4236159026622772,-0.048325240547267806,0.12039329990760432,0.007002869341344771
0.06443381309509277,0.010989487171173096,-0.019650310277938843,0.037863850593566895,0.04459470510482788,-0.1013743132352829,0.44801121950149536,-0.04722518015978203,0.11970876811299268,0.011271951702464004
0.06553006172180176,0.012711390852928162,-0.040065426379442215,0.046621739864349365,0.00980423390865326,-0.10924768447875977,0.4672911763191223,-0.046414433334206376,0.11887579207904339,0.01580251758350942
0.07224893569946289,0.016360513865947723,-0.05174638330936432,0.060182154178619385,-0.03079805336892605,-0.12892186641693115,0.47974902391433716,-0.045948893985834585,0.1179325922589502,0.020540717290015536
0.08077311515808105,0.019052453339099884,-0.04418192058801651,0.06563007831573486,-0.09638744592666626,-0.12272842973470688,0.4906243085861206,-0.04599862288963864,0.11686513969132023,0.025447312813423675
0.08907198905944824,0.017851077020168304,-0.055603183805942535,0.07037436962127686,-0.1540004014968872,-0.08228389173746109,0.5145314931869507,-0.046678428075848676,0.11608037510921139,0.0305861332207203
0.09904098510742188,0.014091432094573975,-0.0674508735537529,0.0686996579170227,-0.1551799178123474,-0.05736629292368889,0.5376437306404114,-0.047632403027731265,0.11566103879941762,0.036011656985318406
0.10909008979797363,0.010395228862762451,-0.045848023146390915,0.05672788619995117,-0.12866483628749847,-0.04874581843614578,0.555509090423584,-0.04843037649500268,0.11540765683245098,0.04162002310396879
0.11964106559753418,0.022195860743522644,-0.01846959814429283,0.04865074157714844,-0.08376925438642502,-0.03336180001497269,0.5701655745506287,-0.048838692109532705,0.1152812912466321,0.047343476591132874
0.12912297248840332,0.0334215983748436,0.008558932691812515,0.03977012634277344,-0.05600009858608246,-0.028081240132451057,0.572689950466156,-0.04886402413956124,0.11527082172250408,0.053119166392738434
0.13928699493408203,0.03886972367763519,0.02855709195137024,0.03184235095977783,-0.0607578344643116,-0.03231646493077278,0.5529410243034363,-0.048763204491953274,0.11525413439616555,0.058794921225015916
0.14927411079406738,0.044962383806705475,0.03691558912396431,0.028805792331695557,-0.09975352138280869,-0.03306325897574425,0.5205418467521667,-0.04891929878944597,0.11518906036955173,0.0642336718654068
0.15941882133483887,0.04880461096763611,0.03277112543582916,0.03396517038345337,-0.16047252714633942,-0.029727919027209282,0.48263147473335266,-0.04963140115362771,0.11513461623694256,0.06938584252842762
0.16947579383850098,0.048118896782398224,0.028684504330158234,0.04000014066696167,-0.21976281702518463,-0.02023046277463436,0.44098570942878723,-0.05098842019401242,0.1151415774861104,0.07421114774603098
0.1795179843902588,0.045883797109127045,0.027506984770298004,0.04042518138885498,-0.2511713206768036,-0.008141043595969677,0.40458908677101135,-0.05285510108096028,0.11525246578718477,0.07869986804985452
0.18930411338806152,0.04655829071998596,0.03356492519378662,0.028956174850463867,-0.2523401379585266,-0.000270692165941,0.3712703287601471,-0.054933110265489346,0.11543153051441268,0.08286680429849808
0.19969582557678223,0.04743839055299759,0.05203448608517647,0.01604241132736206,-0.22656579315662384,0.010277556255459785,0.34682998061180115,-0.05691342287689624,0.11571091039204445,0.08671013094455614
0.20934700965881348,0.049288131296634674,0.07018904387950897,0.006173372268676758,-0.19373151659965515,0.0095110097900033,0.3213019073009491,-0.05861339034580139,0.11602663804021641,0.09028251359109225
0.21929001808166504,0.04971791058778763,0.08431696891784668,-0.0017836689949035645,-0.16210860013961792,0.0034203603863716125,0.2869900166988373,-0.06002139006807887,0.11629546127164464,0.09351633144253514
0.22922682762145996,0.049555711448192596,0.09330994635820389,-0.005064845085144043,-0.13459034264087677,0.0004935017786920071,0.26024454832077026,-0.06116234009328872,0.11649794230657459,0.09641395434105567
0.23923993110656738,0.04918469488620758,0.09074651449918747,-0.0005645155906677246,-0.1227150484919548,-0.00562564330175519,0.2314150631427765,-0.062140722377394715,0.1166483920826845,0.09901048271413891
0.24933195114135742,0.04329662024974823,0.08691420406103134,0.0036987662315368652,-0.11310481280088425,-0.003319390118122101,0.20032329857349396,-0.06306039607399147,0.11676106639598852,0.10130168180674698
0.25928711891174316,0.03834753483533859,0.08211978524923325,0.004973292350769043,-0.10918304324150085,-0.0009417198598384857,0.17263972759246826,-0.0639503700693546,0.1168653691471097,0.10329629320042052
0.27021193504333496,0.033316224813461304,0.07350144535303116,0.0065492987632751465,-0.10160201787948608,0.006146993488073349,0.14512507617473602,-0.06481904368273601,0.11700638190460688,0.10499064107643752
0.2795088291168213,0.02617856115102768,0.07315333187580109,0.009111344814300537,-0.09208414703607559,0.015914669260382652,0.12012837082147598,-0.06562663686569047,0.11722466249225325,0.10642335052780742
0.2896740436553955,0.02388329803943634,0.07255612313747406,0.008440136909484863,-0.0695430189371109,0.022097285836935043,0.09512858837842941,-0.06630159778976366,0.11749817908970352,0.10758808985461475
0.2996180057525635,0.022181794047355652,0.07122199982404709,0.008132457733154297,-0.04148155823349953,0.02220940589904785,0.06668788939714432,-0.06675171520165822,0.11778676205129089,0.1084725463667242
0.3097109794616699,0.017285913228988647,0.07444968074560165,0.011606991291046143,-0.027757655829191208,0.02341022528707981,0.03992115706205368,-0.06701889324634137,0.118063878135222,0.10904294488771986
0.32035088539123535,0.013582900166511536,0.07156576216220856,0.014009356498718262,-0.036410264670848846,0.03259972855448723,0.012342523783445358,-0.0672941800345027,0.11836917041157721,0.10934402208013184
0.32958388328552246,0.011500291526317596,0.06212606281042099,0.016877472400665283,-0.04721274599432945,0.04603448882699013,-0.00928942859172821,-0.06771690641833274,0.11878050308405523,0.10941350506057806
0.33951687812805176,0.007939517498016357,0.04883299767971039,0.019068419933319092,-0.06150832772254944,0.04634341597557068,-0.027351785451173782,-0.06978437970422269,0.11995844353831728,0.10933622002001535
0.3495447635650635,0.00509219616651535,0.03678093105554581,0.018774569034576416,-0.08213401585817337,0.06049696356058121,-0.043338049203157425,-0.07186240403688296,0.1210641957874793,0.10910368944507577
0.35955190658569336,0.006746336817741394,0.023563891649246216,0.01703733205795288,-0.08729122579097748,0.06928512454032898,-0.04548162594437599,-0.07403787265583092,0.12214089187215563,0.10879100640363412
0.37003207206726074,0.005739107728004456,0.018158547580242157,0.013386011123657227,-0.08086994290351868,0.06310224533081055,-0.04948100447654724,-0.07613797541841841,0.12314725636229482,0.10844958868074119
0.37946009635925293,0.0025667622685432434,0.01591554284095764,0.012678027153015137,-0.08061694353818893,0.05860389769077301,-0.052758023142814636,-0.07814280624841909,0.12405947676213044,0.10805413981952329
0.3897697925567627,0.003750354051589966,0.007254905998706818,0.009891211986541748,-0.07378888130187988,0.05695739760994911,-0.04891923815011978,-0.08000382348861233,0.12480959772802443,0.10765518666588886
0.39969396591186523,0.0035630464553833008,0.0017388686537742615,0.005850553512573242,-0.06695068627595901,0.05405561625957489,-0.0442856028676033,-0.08161888958150813,0.12546291656366496,0.10728678046931427
0.40964579582214355,0.004211917519569397,-0.002796269953250885,0.0032771825790405273,-0.05636468157172203,0.04568583518266678,-0.035657066851854324,-0.08293889632514666,0.1260241444800196,0.10696745206540569
0.4201180934906006,0.005749508738517761,-0.0036953985691070557,0.001136183738708496,-0.04961569979786873,0.03631603717803955,-0.028877990320324898,-0.08397897071729153,0.12647095089957916,0.10670759247754223
0.4295837879180908,0.006223127245903015,-0.009082332253456116,0.0013349056243896484,-0.041707541793584824,0.024401498958468437,-0.017632313072681427,-0.08477584940631777,0.12678766905328492,0.10654019406143819
0.43952107429504395,0.007858172059059143,-0.013356491923332214,0.0008851885795593262,-0.046896446496248245,0.01869061589241028,-0.004318371415138245,-0.0853901118190878,0.12703898018156828,0.10649166665369982
0.44969892501831055,0.00858449935913086,-0.015717841684818268,0.0012756586074829102,-0.05234558880329132,0.018840506672859192,0.006552491802722216,-0.08599894222748032,0.12728343705765682,0.10656913965237175
0.4596288204193115,0.0077162981033325195,-0.0162607803940773,-0.00017625093460083008,-0.055859364569187164,0.015528599731624126,0.015210162848234177,-0.08663579692414436,0.12747422510508166,0.10674823984186824
0.46984291076660156,0.007841989398002625,-0.014123328030109406,-0.001044154167175293,-0.05692639201879501,0.01364157348871231,0.020102176815271378,-0.08720129126092448,0.12767762202291547,0.1070041358362236
0.479780912399292,0.010296329855918884,-0.011472493410110474,0.0008448958396911621,-0.055739156901836395,0.00797463208436966,0.023147765547037125,-0.08768033781896267,0.1278552444299292,0.10730235540721596
0.48982787132263184,0.010368362069129944,-0.007040403783321381,0.002733886241912842,-0.052204325795173645,0.0024572282563894987,0.021441105753183365,-0.08807153395478137,0.12797210083956165,0.10760542518324766
0.4997260570526123,0.010456100106239319,-0.003849707543849945,0.002826392650604248,-0.04860373213887215,-0.0013396404683589935,0.019213639199733734,-0.08843756330107541,0.1280727950975393,0.10788270415011948
0.509742021560669,0.01233188807964325,0.001099027693271637,0.0008624792098999023,-0.041712384670972824,-0.007927724160254002,0.014907628297805786,-0.08866243362546065,0.12812275163015696,0.10812130814481122
0.5200889110565186,0.013666987419128418,0.006244264543056488,-0.003758728504180908,-0.041421037167310715,-0.014552604407072067,0.008591941557824612,-0.08879727290398942,0.12813207573024182,0.10829196838344436
0.529792070388794,0.01452946662902832,0.006812848150730133,-0.0037491321563720703,-0.040082551538944244,-0.019214864820241928,0.0013581030070781708,-0.08891580463412953,0.12809446322349002,0.10841222981185936
0.5397698879241943,0.01606723666191101,0.007454447448253632,-0.0030733346939086914,-0.039119817316532135,-0.0255420058965683,-0.007668415084481239,-0.08903761650618056,0.12797568474914398,0.1084419163352443
0.5497558116912842,0.016823574900627136,0.009074278175830841,-0.0017991065979003906,-0.04115142673254013,-0.030422735959291458,-0.01375347189605236,-0.08920373233827027,0.12779893972728673,0.10839910413042772
0.5600368976593018,0.01656520366668701,0.007815159857273102,-0.00036644935607910156,-0.040996428579092026,-0.03000541776418686,-0.01819535903632641,-0.08944146255905137,0.12764617605882303,0.10830186883613206
0.5704128742218018,0.01548081636428833,0.00792759656906128,0.0003311634063720703,-0.03457005321979523,-0.03258415684103966,-0.0221449863165617,-0.08972688830194814,0.12748057562151935,0.10816757989794994
0.5798017978668213,0.015387281775474548,0.008494839072227478,-0.0005242824554443359,-0.03277135640382767,-0.03452187031507492,-0.0300455205142498,-0.0900153092810706,0.12728513323544174,0.10796733725328671
0.5899698734283447,0.015632599592208862,0.005907580256462097,0.0024219751358032227,-0.0404016450047493,-0.029766352847218513,-0.037757501006126404,-0.09040689609635519,0.12711856355663712,0.10769604226576035
0.5998528003692627,0.014105692505836487,0.003168247640132904,0.006470918655395508,-0.05680005997419357,-0.025493312627077103,-0.041858501732349396,-0.09099716355393477,0.12701834958976504,0.10738131717264326
0.6098809242248535,0.01221427321434021,-0.00038664788007736206,0.007447004318237305,-0.08238743245601654,-0.023420974612236023,-0.05444257706403732,-0.09179354493641076,0.12693428831893883,0.10701254670185857
0.6201579570770264,0.015762194991111755,-0.006723381578922272,0.006415188312530518,-0.10748452693223953,-0.010700918734073639,-0.055594127625226974,-0.09287058307044875,0.126954498346962,0.106604767471808
0.6298868656158447,0.015284225344657898,-0.013155706226825714,0.00887829065322876,-0.12018749117851257,-0.010849211364984512,-0.05166500806808472,-0.09415102971556226,0.12705208768817997,0.10624167345168374
0.6400411128997803,0.014566749334335327,-0.013547971844673157,0.008780956268310547,-0.11863966286182404,-0.018520180135965347,-0.05452391132712364,-0.09544939920190673,0.12709908729059752,0.10588843750922557
0.6498889923095703,0.018117442727088928,-0.012726880609989166,0.008678734302520752,-0.09232136607170105,-0.026259416714310646,-0.047409385442733765,-0.09660199231104591,0.12704064690347142,0.10553157454713187
0.659930944442749,0.021871298551559448,-0.006808683276176453,0.00724107027053833,-0.05254732444882393,-0.02844773419201374,-0.031334541738033295,-0.09740141887814875,0.12694219481897234,0.10525238226769976
0.670123815536499,0.02288249135017395,0.0026512444019317627,0.005686283111572266,-0.00953609123826027,-0.037962187081575394,-0.021171174943447113,-0.0977239010579191,0.126802944184722,0.10505601281066826
0.679948091506958,0.023959442973136902,0.009032301604747772,0.0008819699287414551,0.018182355910539627,-0.03853316977620125,-0.01579318754374981,-0.09765968129434897,0.12659226852296018,0.10487621897640945
0.6901090145111084,0.027148321270942688,0.010398603975772858,0.0013638138771057129,0.02881862223148346,-0.03353734686970711,-0.012507591396570206,-0.09736006907176803,0.12638784098153155,0.10471963962728166
0.7000000476837158,0.026389271020889282,0.006587333977222443,0.0044536590576171875,0.025255044922232628,-0.03000945784151554,-0.014198966324329376,-0.09695802918900208,0.12627076119831496,0.10457761011648731
0.710015058517456,0.021910399198532104,0.0008624419569969177,0.007612168788909912,0.016938427463173866,-0.02451935037970543,-0.020371107384562492,-0.09657762189763759,0.12619696264751862,0.1043975187211014
0.7202050685882568,0.022416934370994568,-0.001434527337551117,0.011029839515686035,0.006829599384218454,-0.020464420318603516,-0.023020686581730843,-0.09630986619212212,0.12615973284388127,0.1041818671888047
0.7299859523773193,0.02220982313156128,-0.005562633275985718,0.012519001960754395,0.0003533076960593462,-0.017592601478099823,-0.02857433632016182,-0.0961648461387827,0.12619771571251517,0.10394529626108846
0.7401039600372314,0.020023077726364136,-0.005354590713977814,0.010998129844665527,0.004177873022854328,-0.012959767132997513,-0.028557024896144867,-0.0961244622448592,0.12631018943522437,0.10369897250038994
0.750093936920166,0.02039921283721924,-0.0011827275156974792,0.012076854705810547,0.018319858238101006,-0.006730721797794104,-0.027877599000930786,-0.0961028942577886,0.1264853058831246,0.1034371883355234
0.7603228092193604,0.020125776529312134,0.0012867897748947144,0.012274086475372314,0.03074137307703495,-0.004125617910176516,-0.026252806186676025,-0.09601332118157839,0.1266838444993876,0.10316567406936623
0.7719409465789795,0.01809541881084442,0.0019025206565856934,0.012606680393218994,0.03680384159088135,0.002199434442445636,-0.02443530410528183,-0.09583930837204162,0.12696084358740675,0.10288947027975412
0.7800180912017822,0.01970699429512024,-0.0005364120006561279,0.012880206108093262,0.039982326328754425,0.003026878461241722,-0.022888274863362312,-0.09557622991271406,0.1272880686373296,0.1026397779184607
0.7902028560638428,0.01924571394920349,-0.0016781017184257507,0.01288062334060669,0.04101165384054184,0.0030368652660399675,-0.019625741988420486,-0.09522093693264268,0.1275499872150991,0.10240541254805954
0.8002588748931885,0.019481509923934937,-0.002872377634048462,0.011735200881958008,0.03504244610667229,0.002235786523669958,-0.015367880463600159,-0.09487250924569417,0.12781689178343836,0.10220743775054521
0.8103389739990234,0.02188904583454132,-0.007308773696422577,0.011625707149505615,0.026579085737466812,0.0015895257238298655,-0.011183361522853374,-0.09454669131766127,0.12807901342149253,0.10206288227074513
0.8205068111419678,0.019582971930503845,-0.006389059126377106,0.012294411659240723,0.01947377249598503,-0.0008845510892570019,-0.005671417340636253,-0.0942819351847012,0.12829415421512252,0.10197179097576264
0.830427885055542,0.01934264600276947,-0.008460335433483124,0.010802149772644043,0.016226546838879585,-0.004081853665411472,-0.0027153086848556995,-0.09412472704511136,0.128504727016819,0.10192672030486746
0.8403098583221436,0.019635707139968872,-0.007356308400630951,0.012011706829071045,0.017651338130235672,-0.005110366269946098,0.0003473267424851656,-0.09399670385588707,0.1286854433760159,0.10190947770263521
0.8502600193023682,0.01741623878479004,-0.004050053656101227,0.013622105121612549,0.012874242849647999,-0.006040031556040049,0.002466617152094841,-0.09389433342680276,0.12881486967840636,0.10192547180707935
0.8602378368377686,0.013979673385620117,-0.004487335681915283,0.016164302825927734,0.002956630662083626,-0.0012167803943157196,0.008236088789999485,-0.093843111365948,0.1290185202158555,0.10198486861695932
0.8703889846801758,0.012628182768821716,-0.007428102195262909,0.014321982860565186,-0.0032846371177583933,-0.0006208089180290699,0.011880305595695972,-0.09383891365906033,0.12922821383283312,0.10210926143052898
0.8802688121795654,0.012880578637123108,-0.007693685591220856,0.01209402084350586,-0.004437785595655441,0.001681493828073144,0.015766924247145653,-0.09386044339692612,0.12945194246303357,0.10226749090557112
0.8926417827606201,0.013225957751274109,-0.00638870894908905,0.012974858283996582,-0.020221808925271034,-0.0003590201959013939,0.015972785651683807,-0.09388309064447703,0.1297051610591429,0.10247501234967152
0.9002699851989746,0.012440383434295654,-0.004678383469581604,0.011414825916290283,-0.049356792122125626,-0.0027217771857976913,0.008258672431111336,-0.09414229572402945,0.1299013033254903,0.1026660294084801
0.9103000164031982,0.013326048851013184,-0.0036416053771972656,0.012721657752990723,-0.09480299800634384,-0.004588741343468428,-0.008275988511741161,-0.09477153415518089,0.1300784649178645,0.10278645653584906
0.9204590320587158,0.012809067964553833,-0.007711648941040039,0.015541315078735352,-0.18369106948375702,-0.0057554724626243114,-0.046887028962373734,-0.09607038287571956,0.13021657004612738,0.10271697139863138
0.9302771091461182,0.008223816752433777,-0.013729237020015717,0.01970851421356201,-0.33968067169189453,0.015342889353632927,-0.09752650558948517,-0.0986823831698449,0.13038141856239366,0.10235109762365258
0.940288782119751,0.0037841349840164185,-0.03206007927656174,0.025384187698364258,-0.5080182552337646,0.03541620075702667,-0.13928993046283722,-0.10301239167795423,0.1307012702208058,0.10172295081116191
0.9502780437469482,-0.0013068020343780518,-0.058851540088653564,0.027051150798797607,-0.6036805510520935,0.029713483527302742,-0.1597040742635727,-0.10864089225016821,0.131068466754017,0.10096091562094064
0.960317850112915,-0.0022455155849456787,-0.06177934259176254,0.02543693780899048,-0.6433243751525879,0.03209275007247925,-0.1669233739376068,-0.11505728641159937,0.1314504384371754,0.10013593527379189
0.9707388877868652,0.008462443947792053,-0.02851664274930954,0.021715164184570312,-0.5940263271331787,-0.012465439736843109,-0.15754303336143494,-0.12123586585886678,0.131520198399206,0.09936969830293531
0.9803459644317627,0.016342803835868835,-0.011192291975021362,0.0053414106369018555,-0.5013853311538696,-0.05001601204276085,-0.15213069319725037,-0.12671971972276388,0.13116924277337225,0.09851886737281845
0.9906117916107178,0.016191214323043823,-0.0187147855758667,-0.003920793533325195,-0.3687196969985962,-0.08414322137832642,-0.1031898781657219,-0.13099704141217378,0.13049624967986378,0.0978143531766198
1.0004198551177979,0.019028261303901672,0.014826372265815735,-0.011721134185791016,-0.24950648844242096,-0.11823780834674835,-0.06424487382173538,-0.1338270720799227,0.12953753203992538,0.09740125791085369
1.011246919631958,0.025479063391685486,0.03580440580844879,-0.014935851097106934,-0.2140243500471115,-0.14921751618385315,-0.05698787048459053,-0.13613975810117365,0.12815342942711358,0.0971164299996447
1.0214788913726807,0.021091625094413757,0.022611111402511597,-0.01187056303024292,-0.27537772059440613,-0.14730456471443176,-0.06897422671318054,-0.13858335977023203,0.12662096316500907,0.09680732238284026
1.0303599834442139,0.010871335864067078,-0.01401132345199585,-0.004746437072753906,-0.4060150980949402,-0.14476297795772552,-0.09526904672384262,-0.14205201915118512,0.12509542341227975,0.09640923291532051
1.040510892868042,-0.0013111680746078491,-0.05411152541637421,0.0013660788536071777,-0.5906392335891724,-0.162209615111351,-0.14585605263710022,-0.1470943488475075,0.12349942635240557,0.0958427840687203
1.0504059791564941,-0.006262771785259247,-0.07463887333869934,0.004247605800628662,-0.8793179988861084,-0.18235766887664795,-0.25526201725006104,-0.15459964547483443,0.12157958240854375,0.09474475853800036
1.0603158473968506,-0.0021343305706977844,-0.0925360918045044,0.014045476913452148,-1.2029272317886353,-0.1495848149061203,-0.3021853268146515,-0.16529394538058576,0.11966251750065642,0.09318729175294028
1.0704700946807861,0.00028145313262939453,-0.1274084597826004,0.019615471363067627,-1.4319885969161987,-0.14824053645133972,-0.34261736273765564,-0.17886725825136282,0.11792697022533301,0.0915314668617241
1.0804660320281982,0.004626251757144928,-0.13680842518806458,0.002978086471557617,-1.4937553405761719,-0.17822374403476715,-0.36783936619758606,-0.1939609633408509,0.11596710914658788,0.08967955683793576
1.0905168056488037,0.010205350816249847,-0.09859555959701538,-0.006001710891723633,-1.3549960851669312,-0.2327551543712616,-0.3546561896800995,-0.2086573302510245,0.11354378174865533,0.08766173780891257
1.1005089282989502,0.035456687211990356,-0.04120089113712311,-0.028017103672027588,-1.0711102485656738,-0.32494205236434937,-0.30924662947654724,-0.2211766272903947,0.11031669954241576,0.08565975301804094
1.1104679107666016,0.046903252601623535,0.02215021848678589,-0.05471193790435791,-0.7173216938972473,-0.41353341937065125,-0.2472490519285202,-0.23041728746545578,0.10621400376458714,0.08381424209260893
1.1204419136047363,0.057393938302993774,0.08963778614997864,-0.0761871337890625,-0.4085790812969208,-0.4686501920223236,-0.20741215348243713,-0.23615963279621868,0.10134932762507466,0.08211098706114534
1.1304857730865479,0.06206405162811279,0.12747566401958466,-0.0887143611907959,-0.2162477672100067,-0.4824431538581848,-0.20449119806289673,-0.23938224533634253,0.09617186883461679,0.08031005083275221
1.140716791152954,0.044578537344932556,0.09582921862602234,-0.07555371522903442,-0.1574382334947586,-0.4493222236633301,-0.23862360417842865,-0.24140863500568557,0.09096278366823904,0.0782436773967418
1.1506309509277344,0.013145796954631805,0.05042944848537445,-0.054275333881378174,-0.16490505635738373,-0.4128665030002594,-0.297165185213089,-0.24320550490057233,0.08604697893674308,0.07564967570111363
1.1607320308685303,-0.006778404116630554,0.017444640398025513,-0.03647208213806152,-0.20946799218654633,-0.3487796485424042,-0.35563597083091736,-0.24535508796660932,0.08140109125387869,0.07244598514220646
1.1708149909973145,-0.018283970654010773,-0.01793307065963745,-0.02475064992904663,-0.11539236456155777,-0.23808565735816956,-0.38960936665534973,-0.24742429953311731,0.07760753300359743,0.06874465759438697
1.1807079315185547,-0.022902019321918488,-0.007997170090675354,-0.01243579387664795,0.1700151413679123,-0.2081514596939087,-0.4008050262928009,-0.2475791844526294,0.07438503489995012,0.0646677057417599
1.1907198429107666,-0.041717179119586945,0.0676814466714859,-0.011751890182495117,0.7410156726837158,-0.16400574147701263,-0.38946887850761414,-0.24352579819316947,0.07148862697172431,0.0602431597878684
1.2007009983062744,-0.038879700005054474,0.15627354383468628,-0.013974487781524658,1.6812763214111328,-0.034516192972660065,-0.27843770384788513,-0.23200201526697536,0.06927772156982287,0.055883512515976605
1.2107419967651367,-0.0369701161980629,0.22281165421009064,-0.034252047538757324,3.3304097652435303,-0.10697086155414581,0.013441290706396103,-0.20746049442549327,0.06828656414071288,0.052716966583127856
1.2206289768218994,-0.03692786395549774,0.37861430644989014,-0.07795584201812744,5.344985485076904,-0.5273593664169312,0.16177749633789062,-0.16426822342920824,0.06455917886867758,0.05082036756149315
1.2306568622589111,0.00847497209906578,0.6735594272613525,-0.06842690706253052,7.361879825592041,-0.7624690532684326,0.37155696749687195,-0.10038219672121822,0.05796531224164953,0.049446016595715674
1.2406249046325684,0.09386365860700607,0.8323432207107544,-0.00647890567779541,8.87045669555664,-0.9246227741241455,0.524459183216095,-0.018548900957618585,0.049521275657083696,0.049746374820558055
1.2506678104400635,0.09725658595561981,0.7861518859863281,-0.037268102169036865,9.44353199005127,-0.9192849397659302,0.29177969694137573,0.07393901475313908,0.040024543259644406,0.04979874088657316
1.2620270252227783,0.05845620110630989,0.6323603391647339,0.030432701110839844,9.087757110595703,-0.6149958968162537,-0.03280609846115112,0.1670101876636132,0.03230012816690933,0.047769603162699965
1.2723069190979004,-0.06319676339626312,0.41343003511428833,0.11067712306976318,8.163516998291016,-0.3747759461402893,-0.44271233677864075,0.2536503894260141,0.028466660050398943,0.04281776000021479
1.280702829360962,-0.0950612872838974,0.3240686058998108,0.1652337908744812,6.899543762207031,0.24381805956363678,-0.8239094614982605,0.32894663279027236,0.03026681856338562,0.03369507879150908
1.290673017501831,-0.10202261805534363,0.2165829837322235,0.2200654149055481,5.67270565032959,1.0226235389709473,-1.0634266138076782,0.39131947383339555,0.04091711122373623,0.021270807247383807
1.3008038997650146,-0.11641841381788254,0.06884804368019104,0.06624144315719604,4.78809928894043,1.6676139831542969,-1.2887542247772217,0.44277882740131613,0.060909509335000764,0.005472097403923475
1.3108198642730713,-0.14942686259746552,0.11466339230537415,-0.09859859943389893,4.442794322967529,2.1127045154571533,-1.4087268114089966,0.48748798368319946,0.08850349731767605,-0.013450881046734333
1.320807933807373,-0.1336401104927063,0.3222607970237732,-0.11769390106201172,4.4814863204956055,2.343576431274414,-1.5142756700515747,0.5302485710894812,0.12165876329864057,-0.03545031445483156
1.33085298538208,-0.07552297413349152,0.47065645456314087,-0.05809873342514038,4.530417442321777,2.4406819343566895,-1.641287088394165,0.5726959526605774,0.15912343350253438,-0.06114607817830251
1.3408689498901367,-0.05487459897994995,0.43402206897735596,0.09799820184707642,4.59752893447876,2.62082576751709,-1.8685559034347534,0.614542768224908,0.20164734227939773,-0.09198026580960698
1.3528540134429932,-0.059559762477874756,0.3891277313232422,0.355368435382843,4.520828723907471,2.6977479457855225,-2.0874903202056885,0.654557915510908,0.25001113997900365,-0.12865740900789946
1.3609049320220947,-0.031053736805915833,0.25067847967147827,0.5274063944816589,4.3468828201293945,2.653132200241089,-2.1406683921813965,0.6915713191024858,0.3028760697196123,-0.17036699983633435
1.3709189891815186,0.046724140644073486,0.1163949966430664,0.6098689436912537,4.249998569488525,2.5639395713806152,-2.20869517326355,0.7249760171196553,0.3586535562797135,-0.21575005030947098
1.3808801174163818,0.12139156460762024,0.06266194581985474,0.6379668116569519,4.311679840087891,2.4164741039276123,-2.2191288471221924,0.7562901852264273,0.4171191213524047,-0.2654935141903589
1.3919799327850342,0.18008461594581604,0.03395873308181763,0.6033179759979248,4.30409574508667,2.2949650287628174,-2.2948107719421387,0.7854537132524131,0.4786834029430827,-0.31997776184300014
1.4028007984161377,0.14938569068908691,-0.016177654266357422,0.5583792328834534,4.1730122566223145,2.2003400325775146,-2.295872926712036,0.8112378977779261,0.5431763693220242,-0.37855397587198314
1.411003828048706,0.12241736054420471,-0.09926509857177734,0.5271431803703308,4.012338638305664,2.0531764030456543,-2.2829413414001465,0.8331594736241887,0.6092734620076669,-0.4397411195742014
1.4209489822387695,0.10926967859268188,-0.18451851606369019,0.4776421785354614,3.7247886657714844,1.9638166427612305,-2.2068049907684326,0.8507283126589024,0.6755882658191644,-0.5016919554583734
1.430860996246338,0.09720847010612488,-0.2596644163131714,0.3721979558467865,3.4000470638275146,1.9048593044281006,-2.0064148902893066,0.8639537263180674,0.7402759980521695,-0.5616124263351218
1.440875768661499,0.09210965037345886,-0.33388280868530273,0.22515076398849487,3.168872833251953,1.8772257566452026,-1.746703028678894,0.8745223942295515,0.802609119367714,-0.6179771732320725
1.4525887966156006,0.0791860818862915,-0.34670954942703247,0.08172622323036194,2.783665895462036,1.9047064781188965,-1.510545253753662,0.8821798436809243,0.8614086725163722,-0.6697627528126883
1.4609758853912354,0.08841633796691895,-0.33416032791137695,-0.05428674817085266,2.479569435119629,1.799627423286438,-1.2003421783447266,0.8882635798269778,0.9153956945863729,-0.7154621187233513
1.4710290431976318,0.05543631315231323,-0.4007606506347656,-0.09766450524330139,2.1855077743530273,1.5842763185501099,-0.9542710185050964,0.8933908711472139,0.9634306992480994,-0.7554981009214109
1.4810009002685547,0.0371817946434021,-0.3920102119445801,-0.10557898879051208,1.9631578922271729,1.3804818391799927,-0.6897413730621338,0.8979434655183963,1.0056336072834204,-0.7904782905983573
1.4912118911743164,0.046414315700531006,-0.41086822748184204,-0.12595689296722412,1.7207973003387451,1.1772416830062866,-0.4212055802345276,0.9028092080646362,1.041911244776316,-0.820488098092195
1.5025219917297363,0.02913224697113037,-0.3600648045539856,-0.17415931820869446,1.4913023710250854,0.9825606942176819,-0.22158245742321014,0.9079362160654567,1.0725904212848907,-0.8457211923982231
1.5109617710113525,0.02858346700668335,-0.33277881145477295,-0.19713261723518372,1.2809298038482666,0.7415221929550171,-0.07765841484069824,0.9130913954032487,1.0979092502528953,-0.8668302012348186
1.521009922027588,0.01392674446105957,-0.31067562103271484,-0.21559816598892212,1.1342657804489136,0.543016254901886,0.027844570577144623,0.9182646553530085,1.1185129338372048,-0.884686640509571
1.5311038494110107,0.017769336700439453,-0.2255041003227234,-0.21144384145736694,1.0474439859390259,0.3466060757637024,0.07888394594192505,0.9234540075972258,1.1355862164356052,-0.9005719089575316
1.5410099029541016,0.017233729362487793,-0.12512052059173584,-0.21280306577682495,0.9584764838218689,0.2838694751262665,0.11161898821592331,0.9284738654265038,1.1502900220659322,-0.9151464128623304
1.5524399280548096,0.03617006540298462,-0.0034059882164001465,-0.2111012190580368,0.8067848682403564,0.29551661014556885,0.15520359575748444,0.9332697181300257,1.1634936224145287,-0.9279939362415031
1.5612308979034424,0.040191471576690674,0.06483405828475952,-0.24310070276260376,0.5356463193893433,0.3777201473712921,0.16019701957702637,0.9374134695244077,1.1743775141343367,-0.9373994205660863
1.5717051029205322,0.050665199756622314,0.06252682209014893,-0.2519954442977905,0.236306831240654,0.4358534812927246,0.1391206532716751,0.9403010390416487,1.182667535196834,-0.9425498238693371
1.5811798572540283,0.04165428876876831,0.010984539985656738,-0.22758595645427704,-0.0519406720995903,0.4354364275932312,0.1156451627612114,0.9417810704890375,1.187499782128061,-0.9431005935053192
1.5920307636260986,0.029915452003479004,-0.04486006498336792,-0.1823277324438095,-0.1937405914068222,0.353127121925354,0.12829825282096863,0.9424081367493922,1.1891093229789023,-0.9401529018110644
1.602745771408081,0.0203741192817688,-0.06019026041030884,-0.1197439432144165,-0.19776995480060577,0.25732338428497314,0.1312229484319687,0.9428579734941213,1.188930961474165,-0.9361789194846236
1.6112689971923828,0.0022126436233520508,0.003997862339019775,-0.06573152542114258,-0.17509791254997253,0.14736971259117126,0.20373208820819855,0.9436800883116387,1.1877254105923938,-0.932177076113474
1.621283769607544,-0.018874526023864746,0.018493473529815674,-0.040832459926605225,-0.1218075230717659,0.11212357878684998,0.288413941860199,0.9453979588073117,1.1858172715044268,-0.9282661050079556
1.6311171054840088,-0.0264245867729187,0.021101832389831543,-0.04433083534240723,-0.08385846018791199,0.09972794353961945,0.36308199167251587,0.9480597901407029,1.1838718126538528,-0.9245617272014844
1.642570972442627,-0.03750532865524292,0.030205965042114258,-0.07252734899520874,-0.06859029084444046,0.1286272406578064,0.40286508202552795,0.9513282419709755,1.182030846678235,-0.9208755901071088
1.652923822402954,-0.03864520788192749,0.03277462720870972,-0.07971233129501343,-0.08615758270025253,0.12598365545272827,0.4085864722728729,0.9548411543037055,1.1801103669049184,-0.9169716198504066
1.6613399982452393,-0.031524479389190674,0.0354425311088562,-0.07748526334762573,-0.11341450363397598,0.09257721900939941,0.3693954050540924,0.9580665889606667,1.1778213387827372,-0.9127529313544651
1.6711609363555908,-0.01779043674468994,0.02727985382080078,-0.04649382829666138,-0.13570158183574677,-0.0009098062291741371,0.2793848216533661,0.9606197614830876,1.1748065691866147,-0.9085448210136273
1.6811258792877197,-0.0018466711044311523,0.02754342555999756,-0.010124534368515015,-0.15491096675395966,-0.04626556858420372,0.1841200888156891,0.962173432202354,1.1713703751486058,-0.9046748852984795
1.6912968158721924,0.011320173740386963,0.038818359375,0.010011523962020874,-0.1790846437215805,-0.08757767826318741,0.1276095062494278,0.9629455292995385,1.1676325385939452,-0.9009237310963966
1.7029798030853271,0.005112767219543457,0.046005070209503174,0.0006616860628128052,-0.17703162133693695,-0.06902609765529633,0.07263334840536118,0.9631319286881083,1.1639051375023706,-0.8973457216972481
1.7112910747528076,0.015464067459106445,0.07294785976409912,-0.005669236183166504,-0.13896743953227997,-0.06580611318349838,0.02241837978363037,0.9629376647324815,1.1608787190672438,-0.8944932900112192
1.7214620113372803,0.00535959005355835,0.08848214149475098,-0.02206552028656006,-0.13141630589962006,-0.0751333087682724,-0.02308012917637825,0.9624049198196777,1.1584021544497451,-0.8923540452954639
1.7313148975372314,0.011659204959869385,0.08823299407958984,-0.014031440019607544,-0.1691150665283203,-0.06815027445554733,-0.0785878598690033,0.9613558652960691,1.1560465282130759,-0.8903711920677575
1.741297960281372,0.019069254398345947,0.05846744775772095,-0.002426326274871826,-0.23412629961967468,-0.04123636707663536,-0.11588463187217712,0.9596060363880992,1.1534392077479594,-0.8878519916803504
1.752906084060669,0.012824654579162598,0.003614664077758789,-0.005200982093811035,-0.24378880858421326,-0.04046982154250145,-0.0981873944401741,0.9575926029651068,1.1504095098647042,-0.8846635268138341
1.7610869407653809,0.012257516384124756,-0.02016359567642212,-0.0021796226501464844,-0.1428544670343399,-0.0904024988412857,-0.055596526712179184,0.9560741651211283,1.1476892336891515,-0.8820770385633883
1.7711808681488037,0.02273327112197876,0.028328776359558105,0.005411028861999512,-0.024654323235154152,-0.14248034358024597,-0.046505559235811234,0.9552807193281705,1.145745719280258,-0.8811431915636632
1.7812399864196777,0.032898128032684326,0.07811003923416138,0.02332417666912079,-0.0004334067925810814,-0.16283994913101196,-0.045374780893325806,0.9548441506441605,1.1443739254109586,-0.8813767111891114
1.791351079940796,0.021026194095611572,0.05243217945098877,0.040210604667663574,-0.0881936177611351,-0.16421866416931152,-0.05502048507332802,0.954241260375941,1.1425079029124787,-0.8810969321828254
1.802276849746704,0.009585976600646973,-0.0067604780197143555,0.04134783148765564,-0.20617592334747314,-0.140962615609169,-0.09069645404815674,0.9527324451114614,1.1394361542512603,-0.8792508660514554
1.811269998550415,0.004199087619781494,-0.0517614483833313,0.039328888058662415,-0.2789819538593292,-0.11197969317436218,-0.10561015456914902,0.9505449796454105,1.1356214993178622,-0.8761175309931187
1.8217108249664307,-0.013150930404663086,-0.06520432233810425,0.03608448803424835,-0.2797667384147644,-0.13207265734672546,-0.08649756014347076,0.9483433385476303,1.131521624989047,-0.8724605636826681
1.8315298557281494,-0.016056478023529053,-0.034847140312194824,0.03573724627494812,-0.1590898334980011,-0.17325237393379211,-0.07181453704833984,0.9466570097078458,1.1276210493610341,-0.8695341820159671
1.8415439128875732,0.0032854080200195312,0.02641594409942627,0.03728264570236206,0.023163598030805588,-0.20269282162189484,-0.03993995860219002,0.9458726258560665,1.1252987795523337,-0.8689741635465884
1.8523738384246826,0.015946924686431885,0.08394622802734375,0.020802795886993408,0.11542291939258575,-0.2393280565738678,-0.020388150587677956,0.94593267348414,1.124276744298599,-0.8704107334578821
1.8614170551300049,0.026793301105499268,0.11605322360992432,0.005480945110321045,0.10473006218671799,-0.2730562090873718,-0.055951472371816635,0.9460152473409478,1.1235603543512165,-0.8725919392949566
1.8715159893035889,0.03485894203186035,0.06624305248260498,0.019083857536315918,0.01701311208307743,-0.31756335496902466,-0.13237977027893066,0.9454061556675756,1.1221294655418101,-0.8744015718082636
1.881666898727417,0.03020256757736206,-0.016550302505493164,0.028598010540008545,-0.10152312368154526,-0.3601531684398651,-0.19865627586841583,0.9437412572113796,1.1194096731008103,-0.8751806783983975
1.8917229175567627,0.02849757671356201,-0.06876164674758911,0.039490848779678345,-0.22302591800689697,-0.37626269459724426,-0.1994408220052719,0.9412821139687553,1.1149982818194433,-0.8742566182227444
1.903352975845337,0.021180450916290283,-0.07635718584060669,0.046911537647247314,-0.27181529998779297,-0.3786158561706543,-0.17042382061481476,0.9384941162732863,1.1092285263427208,-0.8718042043151651
1.911665916442871,0.01609426736831665,-0.04377263784408569,0.04318264126777649,-0.24653740227222443,-0.3811532258987427,-0.10622486472129822,0.9360572504750254,1.1030887518567647,-0.8688939192728542
1.9217278957366943,0.01954030990600586,-0.008130073547363281,0.03423500061035156,-0.13004913926124573,-0.3209806978702545,-0.022589627653360367,0.9345886678081619,1.0975945856191414,-0.8665002168291895
1.931452989578247,0.03182631731033325,0.04840683937072754,0.013314694166183472,-0.03727785870432854,-0.2573527991771698,0.05956575274467468,0.9344141257093442,1.0936453701955935,-0.8651793418281564
1.941540002822876,0.023627817630767822,0.09173744916915894,-0.02283814549446106,-0.06890422105789185,-0.17540842294692993,0.07754261791706085,0.9348176508002153,1.090477365583434,-0.8639466172718903
1.952768087387085,0.005230069160461426,0.049930572509765625,-0.00937563180923462,-0.18532545864582062,-0.13559065759181976,0.07808174937963486,0.9349242478388708,1.0869141181916677,-0.86143428830696
1.9615159034729004,-0.012445926666259766,-0.04689764976501465,0.012116551399230957,-0.2375258058309555,-0.09667335450649261,0.07445079833269119,0.93457144102315,1.0826777325606225,-0.8575704503283124
1.9716870784759521,-0.014330446720123291,-0.06852877140045166,0.029862970113754272,-0.2168409675359726,-0.0742105171084404,0.05802958458662033,0.9340934904796815,1.07865713538909,-0.8536464484604726
1.9817259311676025,-0.021707355976104736,-0.02402961254119873,0.039558738470077515,-0.2463485151529312,-0.04318202659487724,0.023320075124502182,0.9333828060692606,1.075112280683288,-0.8499478652831254
1.9917690753936768,-0.02574324607849121,-0.0012995600700378418,0.04729577898979187,-0.33338943123817444,0.006883402355015278,-0.024224966764450073,0.9319902271057372,1.0714665211888341,-0.8456774745405731
2.002530813217163,-0.030623674392700195,-0.03839373588562012,0.047580331563949585,-0.4002068042755127,0.030683007091283798,-0.029418664053082466,0.9299455602623841,1.0675617637689416,-0.8404752763585726
2.0117380619049072,-0.027578234672546387,-0.07440394163131714,0.03601539134979248,-0.3845192492008209,-0.009280343540012836,-0.024652032181620598,0.9277802828457047,1.0631913383661689,-0.8348656636715783
2.0217010974884033,-0.002626657485961914,-0.04721325635910034,0.030470043420791626,-0.3433135151863098,-0.07745672762393951,-0.031061194837093353,0.9257716791717987,1.0587595498793123,-0.8298543575942631
2.0316669940948486,0.018980562686920166,-0.011175692081451416,0.02581515908241272,-0.3910468816757202,-0.14333423972129822,-0.025849709287285805,0.9237380053765034,1.0536770527695762,-0.8248741208190089
2.0417449474334717,0.026038408279418945,-0.03335839509963989,0.01261398196220398,-0.475787878036499,-0.17279359698295593,0.0008644593181088567,0.9214441441486396,1.0471445500128536,-0.8187278659896071
2.0524260997772217,0.03599262237548828,-0.0932738184928894,0.0005959570407867432,-0.5166126489639282,-0.14167539775371552,0.05179395154118538,0.9191356255357707,1.0397149852084173,-0.8113934009220338
2.0618159770965576,0.04221826791763306,-0.10003834962844849,-0.05118647217750549,-0.5748562216758728,-0.09698356688022614,0.11194969713687897,0.9170924255205513,1.0318542683304857,-0.8030054572680458
2.071798086166382,0.0352974534034729,-0.0643148422241211,-0.09080374240875244,-0.7504255771636963,-0.07708349078893661,0.11421311646699905,0.9147169598260684,1.0229330349405112,-0.7928287102672504
2.0817530155181885,0.018587231636047363,-0.09856951236724854,-0.07479622960090637,-1.0967113971710205,-0.06810890138149261,0.07772541791200638,0.910727185846027,1.0114560246261826,-0.7792569089266933
2.091881036758423,-0.004572451114654541,-0.19914352893829346,-0.04228401184082031,-1.5315682888031006,-0.06932197511196136,0.05612105876207352,0.9042043924605251,0.9962140307204541,-0.7607165356439993
2.103559970855713,-0.024632513523101807,-0.3067612648010254,-0.018847763538360596,-1.9686952829360962,-0.14629825949668884,0.04280365630984306,0.8949590459807615,0.9763818996906782,-0.736743050951948
2.111820936203003,-0.02927112579345703,-0.3641606569290161,0.002393007278442383,-2.3329708576202393,-0.17761604487895966,0.043121740221977234,0.8828844019245299,0.9524290530368711,-0.7081763208856859
2.121814012527466,-0.022920310497283936,-0.3845664858818054,0.030813515186309814,-2.460702419281006,-0.328985333442688,0.3053610920906067,0.8700236544680782,0.9256232248820163,-0.6762585723697098
2.1317780017852783,-0.009406805038452148,-0.364300012588501,0.03710067272186279,-2.344597578048706,-0.6404811143875122,0.5385468006134033,0.8585575693549927,0.8953106774496343,-0.6427507152488329
2.142069101333618,0.050368666648864746,-0.15800249576568604,0.09774583578109741,-2.0500166416168213,-0.9845117330551147,0.6460495591163635,0.8490812432076501,0.8632650435436415,-0.6110316219862753
2.1527459621429443,0.08201751112937927,-0.03263300657272339,0.15749189257621765,-1.8011585474014282,-1.215078353881836,0.7192627191543579,0.8414284775995156,0.8308536759309765,-0.5825748268580735
2.161808967590332,0.07969394326210022,-0.02294701337814331,0.10280215740203857,-1.7310364246368408,-1.2968759536743164,0.882815420627594,0.835171524690157,0.797858286858657,-0.5552342384746008
2.171828031539917,0.09791314601898193,-0.019270360469818115,0.007854282855987549,-1.840721607208252,-1.2413657903671265,0.9504076242446899,0.8290743036485952,0.7641294505390224,-0.5268945818880908
2.1817548274993896,0.09128078818321228,-0.02826446294784546,-0.039128780364990234,-2.198676586151123,-1.1011290550231934,0.8279003500938416,0.8204540795977672,0.7304669743863036,-0.4970728590174677
2.191920042037964,0.06448957324028015,-0.1449320912361145,-0.045150816440582275,-2.8136661052703857,-0.919132649898529,0.5818480849266052,0.806242018960156,0.6973987987619296,-0.46550320554523433
2.2030088901519775,0.023240864276885986,-0.3202178478240967,-0.014121949672698975,-3.6280136108398438,-0.6908565759658813,0.27995565533638,0.7838944069604556,0.6651315358347585,-0.43171601293841816
2.211946964263916,-0.005564600229263306,-0.46273404359817505,0.052269577980041504,-4.414021968841553,-0.5514354109764099,0.12615558505058289,0.7529317287731847,0.6339992266178546,-0.3957374395999215
2.2219488620758057,-0.010384291410446167,-0.5219911932945251,0.15245431661605835,-4.916450023651123,-0.5350985527038574,0.08374155312776566,0.7153283469035064,0.6033032990354241,-0.3579588978454953
2.2319529056549072,0.03493070602416992,-0.38422876596450806,0.2609636187553406,-5.09268045425415,-0.5912423729896545,0.03727184236049652,0.6738067329976659,0.5740749104307755,-0.32101109787429244
2.2420849800109863,0.0814836323261261,-0.20892935991287231,0.3093390464782715,-4.999319076538086,-0.8650803565979004,0.08812730014324188,0.6311225480143012,0.5459195024996101,-0.2864712113035039
2.2531468868255615,0.1128520667552948,-0.06623053550720215,0.3449651002883911,-4.731526851654053,-1.2137539386749268,0.18423406779766083,0.5897584767049683,0.5173864213700863,-0.25484248345998983
2.2621328830718994,0.16780534386634827,0.15446460247039795,0.39042651653289795,-4.32261323928833,-1.5676395893096924,0.21137221157550812,0.5510414777445221,0.48829863336603074,-0.2267130272256876
2.27307391166687,0.19687333703041077,0.30954182147979736,0.37379270792007446,-4.0594305992126465,-1.8606245517730713,0.12282019853591919,0.5146033387134092,0.4589089550491419,-0.20282747863262926
2.2820560932159424,0.18570014834403992,0.28712373971939087,0.33377718925476074,-4.051750183105469,-1.9893434047698975,0.0512610524892807,0.4784659182795603,0.4297519112340421,-0.18217009906997314
2.292699098587036,0.16640058159828186,0.1997278928756714,0.32529526948928833,-4.27385950088501,-2.0243337154388428,0.06760881841182709,0.44062418631087474,0.40110757919941853,-0.16294936312612185
2.3039820194244385,0.13135594129562378,0.11221161484718323,0.30415862798690796,-4.5831146240234375,-1.9791408777236938,0.10220327973365784,0.39991693474408496,0.3732112745707814,-0.14374438443810128
2.312021017074585,0.11281821131706238,0.03256532549858093,0.2816287875175476,-4.8862833976745605,-1.9099427461624146,0.09692174941301346,0.35590371856889436,0.34675213689598994,-0.12472357364373267
2.32254695892334,0.11211550235748291,0.004583626985549927,0.2728370428085327,-5.145691394805908,-1.844069004058838,0.07679890096187592,0.30859153063402206,0.3220722521958924,-0.10640614343102656
2.3321120738983154,0.08913379907608032,0.025368183851242065,0.259607195854187,-5.225138187408447,-1.7883307933807373,-0.053642671555280685,0.2591396178169712,0.29918981930684935,-0.08968306150404602
2.3422129154205322,0.054800570011138916,0.058207303285598755,0.2435365915298462,-5.089578151702881,-1.7293119430541992,-0.13826514780521393,0.20918958062412146,0.27831515311522215,-0.07554846336995083
2.3532068729400635,0.04043450951576233,0.06911900639533997,0.22197294235229492,-4.8086957931518555,-1.6894643306732178,-0.1417500525712967,0.1610002533768503,0.2590392508665091,-0.06354504430728619
2.362257957458496,0.04788587987422943,0.14114969968795776,0.2090076208114624,-4.475281715393066,-1.6936856508255005,-0.13429880142211914,0.11563520761357725,0.2407069613223993,-0.05331855074611655
2.37219500541687,0.041949912905693054,0.18798135221004486,0.20278793573379517,-4.2627716064453125,-1.6898373365402222,-0.09391291439533234,0.07290316091503103,0.2228989719815158,-0.044360565219429035
2.382106065750122,0.03368763625621796,0.13634860515594482,0.19833964109420776,-4.147873878479004,-1.6701562404632568,-0.08342831581830978,0.03160233840252099,0.20562255673397883,-0.03627174285655094
2.3927600383758545,0.04367765784263611,0.10742805153131485,0.21999675035476685,-4.059824466705322,-1.6703903675079346,-0.07971470057964325,-0.008813452128613716,0.18881850232053035,-0.029017524348455715
2.4027719497680664,0.04011893272399902,0.05589532107114792,0.22218966484069824,-4.129710674285889,-1.651600956916809,-0.1420944482088089,-0.04924231928626006,0.17238236884772815,-0.022681071275860533
2.4121968746185303,0.033919110894203186,-0.007662966847419739,0.22864621877670288,-4.231252670288086,-1.5798105001449585,-0.22646594047546387,-0.09087203576920086,0.156541038967838,-0.017663124506123805
2.4223668575286865,0.012067705392837524,-0.034475669264793396,0.23162299394607544,-4.287585735321045,-1.4802035093307495,-0.2485494166612625,-0.13344306708691886,0.14166888745737882,-0.013710875736538291
2.4320969581604004,-0.022901609539985657,-0.07439948618412018,0.19345885515213013,-4.270756244659424,-1.3664393424987793,-0.19963279366493225,-0.17623188197638193,0.12794882728945955,-0.010146825342133478
2.442199945449829,-0.031495288014411926,-0.03018750250339508,0.13534438610076904,-4.1612043380737305,-1.2250078916549683,-0.13571906089782715,-0.21844403574246019,0.1156881577534275,-0.0066325613573027745
2.4526851177215576,-0.03174129128456116,0.017644882202148438,0.0840383768081665,-3.982764959335327,-1.050902009010315,-0.04048393666744232,-0.2591410130238843,0.10520455824207858,-0.00287806952016023
2.4621241092681885,-0.03250895440578461,-0.006698429584503174,0.0384366512298584,-3.795412063598633,-0.9490957856178284,-0.028614230453968048,-0.2978089396256475,0.09629209258967061,0.0008832695366902648
2.47233510017395,-0.018062956631183624,-0.020887702703475952,0.020482003688812256,-3.6723215579986572,-0.8383994698524475,-0.033896077424287796,-0.33507558916393104,0.08826540049312305,0.0041217703854310745
2.482264995574951,-0.006898984313011169,-0.04628950357437134,0.04440349340438843,-3.5560660362243652,-0.7777813673019409,0.0002112925285473466,-0.3710607142700541,0.08151562667510218,0.007267058652286857
2.4927117824554443,0.0007541179656982422,-0.07662111520767212,0.054296672344207764,-3.5539979934692383,-0.7703999876976013,-0.07177091389894485,-0.4065615018197611,0.0746211235955833,0.009889950448550537
2.5033018589019775,0.01760314404964447,-0.07402339577674866,0.08628559112548828,-3.6476831436157227,-0.6542784571647644,-0.06583206355571747,-0.44259591926684344,0.06836247779096112,0.01189634266078569
2.5123088359832764,0.03972018137574196,-0.113456130027771,0.108021080493927,-3.6430017948150635,-0.5993481874465942,-0.01034728903323412,-0.4791107928504872,0.06309342012830069,0.01415191871312444
2.5225870609283447,0.021745160222053528,-0.07196444272994995,0.07506024837493896,-3.5714118480682373,-0.510367214679718,0.03154556453227997,-0.5151840484675264,0.05875597929882372,0.01678087874447908
2.532296895980835,0.013889428228139877,-0.0007749795913696289,0.05481719970703125,-3.554835081100464,-0.35295790433883667,0.09516847878694534,-0.5506794539912334,0.05590841671077054,0.019814238189149777
2.542296886444092,0.004416145384311676,0.007641971111297607,0.013008713722229004,-3.0836076736450195,-0.3387336730957031,0.0990242063999176,-0.584089435216296,0.05428888339216816,0.023256331455028766
2.553270101547241,-0.012632150202989578,0.024872541427612305,-0.01683056354522705,-2.7569565773010254,-0.246225968003273,0.04807644709944725,-0.6131964261800584,0.05297353824696836,0.026052275314308163
2.562390089035034,0.0054252296686172485,0.0037239789962768555,-0.04374706745147705,-2.3596203327178955,-0.21510079503059387,0.031148593872785568,-0.638804710856911,0.05192016669039128,0.028164649647717574
2.572492837905884,0.003479383885860443,0.007432222366333008,-0.029300689697265625,-1.9133665561676025,-0.18714435398578644,0.026863090693950653,-0.6601486586598712,0.050961229881252,0.0299220778260353
2.582385778427124,-0.0009214878082275391,0.048310279846191406,-0.016266942024230957,-1.533226728439331,-0.14311005175113678,0.019665364176034927,-0.677321464240358,0.05017615828573055,0.03133515622219875
2.59277606010437,0.022319193929433823,0.06459259986877441,-0.031578004360198975,-1.186143398284912,-0.11186956614255905,-5.124195013195276e-05,-0.6909056246918698,0.049583764942085384,0.032363008463345264
2.603616952896118,0.01159929484128952,0.06687456369400024,-0.041258811950683594,-0.8964719772338867,-0.10268006473779678,-0.01795567385852337,-0.7012546420241923,0.04880580935323728,0.03286773677904586
2.612438917160034,0.00042474642395973206,0.04505640268325806,-0.042025983333587646,-0.6139528155326843,-0.11649494618177414,0.030061492696404457,-0.7088456356913359,0.048082631249207274,0.033372597012797614
2.622451066970825,0.008856941014528275,0.0690796971321106,-0.01936882734298706,-0.3189517557621002,-0.1791527420282364,0.1105552688241005,-0.7134500077603797,0.04741294646852836,0.034615823535835824
2.6324689388275146,0.012178264558315277,0.15499329566955566,-0.01513218879699707,-0.0582122877240181,-0.16607461869716644,0.13466182351112366,-0.7152387807204315,0.04682563430577813,0.03639201483740586
2.6427578926086426,0.004833236336708069,0.15337485074996948,-0.029272079467773438,0.11695554107427597,-0.14188726246356964,0.12803348898887634,-0.7148561572173837,0.04643310244737526,0.03815113534509649
2.6530349254608154,-0.01750439777970314,0.06994050741195679,-0.059918105602264404,0.2559471130371094,-0.10181857645511627,0.11457104980945587,-0.7128970279454571,0.04617094315141934,0.03962399150183127
2.662517786026001,-0.019191019237041473,0.046231210231781006,-0.06358325481414795,0.3091554641723633,-0.06857273727655411,0.11709839105606079,-0.709951924001432,0.04620554693599387,0.0409800530778778
2.6725518703460693,-0.00634552538394928,0.06384605169296265,-0.07240021228790283,0.2869502007961273,-0.002990623004734516,0.11184524744749069,-0.7068695590199306,0.04668941159953468,0.04231270837957227
2.6824710369110107,-0.003795817494392395,0.06017047166824341,-0.07454967498779297,0.22329212725162506,0.057392291724681854,0.09935502707958221,-0.704261331345128,0.04778644849710984,0.04354322879734105
2.6924779415130615,-0.0053792595863342285,0.0268743634223938,-0.07622891664505005,0.14096984267234802,0.09436056762933731,0.08863276988267899,-0.7023826937192288,0.049266855368068824,0.04465035660322623
2.7027719020843506,-0.012965425848960876,0.012362241744995117,-0.07647532224655151,0.04811420664191246,0.1254843920469284,0.07951650023460388,-0.7014048872970348,0.051049351907831456,0.045693561908375466
2.712472915649414,-0.01649564877152443,0.009721219539642334,-0.0662078857421875,-0.024651678279042244,0.128183513879776,0.06446687132120132,-0.701266716832528,0.052950386013697885,0.04664417643859295
2.7225100994110107,-0.01916622370481491,0.011042952537536621,-0.057044804096221924,-0.08016233891248703,0.13937143981456757,0.06184392422437668,-0.7017736325690856,0.05483431468353968,0.04748833004057987
2.732546091079712,-0.025223173201084137,0.004799783229827881,-0.051917076110839844,-0.09418867528438568,0.14054039120674133,0.07498481124639511,-0.7026561306201307,0.0568568976106621,0.04844568735973825
2.7426388263702393,-0.02622389793395996,0.008346199989318848,-0.05352813005447388,-0.06833497434854507,0.12670554220676422,0.08288267999887466,-0.7034278924526423,0.058909998164330075,0.04954959156071488
2.7532780170440674,-0.02491041272878647,0.022192180156707764,-0.05473828315734863,-0.023418234661221504,0.12155365943908691,0.07921529561281204,-0.7038398421292248,0.06087395726601128,0.05066094353753281
2.763211965560913,-0.020371276885271072,0.018381357192993164,-0.05310410261154175,0.026709914207458496,0.11401824653148651,0.06868196278810501,-0.7037747682634719,0.06270584821878868,0.05163932498793901
2.77370285987854,-0.0201224684715271,0.006840765476226807,-0.049051523208618164,0.06890129297971725,0.09954790771007538,0.050696998834609985,-0.7032210071836313,0.0642337315015905,0.05237639880778043
2.7827179431915283,-0.020749270915985107,0.00420689582824707,-0.04307442903518677,0.0949491411447525,0.08506803959608078,0.025649700313806534,-0.7023333815738406,0.06540888100450928,0.05279576173110386
2.7926909923553467,-0.017457716166973114,0.0029054880142211914,-0.0313563346862793,0.09937267005443573,0.07162719964981079,0.002070232294499874,-0.7013001470257125,0.0662180520098793,0.052855882199707896
2.8028180599212646,-0.015964414924383163,-0.006740450859069824,-0.02265465259552002,0.09027637541294098,0.06006535142660141,-0.009904671460390091,-0.7003050484347407,0.0667250853164967,0.052672876376738696
2.8126139640808105,-0.016812223941087723,-0.005722701549530029,-0.01704472303390503,0.07036619633436203,0.05688149854540825,-0.009809862822294235,-0.6994533602843009,0.06708813084796061,0.052405424325357435
2.8225109577178955,-0.013361528515815735,0.0054795145988464355,-0.012497901916503906,0.04605286568403244,0.04582112655043602,-0.004748525097966194,-0.698832349301914,0.06742969968553697,0.05221294603495549
2.832751989364624,-0.011177171021699905,0.010744035243988037,-0.011103391647338867,0.014896830543875694,0.04066377878189087,-0.006646134424954653,-0.6984932980246804,0.067686981825143,0.05205305172348145
2.842862844467163,-0.01133192703127861,0.007192850112915039,-0.006838321685791016,-0.026969393715262413,0.04518529400229454,-0.0011416466441005468,-0.6985277455161474,0.06799135479688807,0.0519464136417123
2.8529927730560303,-0.008864734321832657,-0.0018171072006225586,-0.009196996688842773,-0.06196444481611252,0.04875486344099045,-0.007172587793320417,-0.6989158482028149,0.06835938328239755,0.05187967585729708
2.8629138469696045,-0.004321388900279999,8.96453857421875e-05,-0.0070421695709228516,-0.07938870787620544,0.04330044239759445,-0.0160443764179945,-0.6995546778596916,0.0686210041750046,0.05169614965428706
2.875093936920166,-0.0027962811291217804,-0.007555067539215088,-0.002689182758331299,-0.08065061271190643,0.04009009152650833,-0.014600517228245735,-0.700292869476536,0.06880477382779303,0.05146670712858949
2.8828070163726807,-0.008150741457939148,-0.011020004749298096,-0.000651240348815918,-0.07367126643657684,0.045043569058179855,-0.017904167994856834,-0.7009530591805354,0.06898145411651309,0.05123049338121754
2.8940629959106445,-0.007280409336090088,-0.0007864832878112793,-0.003237128257751465,-0.05896647647023201,0.047846946865320206,-0.02056695707142353,-0.7015190226428771,0.06915388589707444,0.050922351986355106
2.903594970703125,0.0011550746858119965,-0.0015636682510375977,-0.004278302192687988,-0.03454449027776718,0.049822211265563965,-0.014237954281270504,-0.7019372730896248,0.06932203287087053,0.05061372426540198
2.9128310680389404,-0.002265654504299164,-0.0028243660926818848,-0.00299757719039917,-0.006523440591990948,0.06200733035802841,-0.004097968339920044,-0.7021295026004946,0.06959739442552217,0.050365667805492495
2.9227519035339355,-0.0027934908866882324,0.0001805424690246582,-0.005639195442199707,0.021076230332255363,0.06050503998994827,0.0019103894010186195,-0.7020309688030623,0.06996405262299742,0.05017892484571027
2.9326939582824707,-0.0001684911549091339,0.00200808048248291,-0.008067011833190918,0.0390162318944931,0.05863368138670921,0.0020382744260132313,-0.7015760625365224,0.07033698927859378,0.050042669135274186
2.9428069591522217,-0.0007177777588367462,-0.002121150493621826,-0.0014760494232177734,0.06923964619636536,0.055215250700712204,0.00033305236138403416,-0.7009492466796393,0.07076002990849019,0.04992506260446548
2.953044891357422,0.0009386241436004639,-0.007495582103729248,0.009556293487548828,0.09097304195165634,0.04474858194589615,0.003997135907411575,-0.7000155947662049,0.07113319737807233,0.0498112787046462
2.962739944458008,0.002063792198896408,0.0026713013648986816,0.009328722953796387,0.09447536617517471,0.03947925195097923,0.0022301282733678818,-0.6989526791319925,0.07131451863541068,0.04963935780415397
2.972745895385742,0.005106642842292786,0.008359849452972412,0.006156802177429199,0.07939454168081284,0.03645407781004906,-0.003710957709699869,-0.6980798539558807,0.07147351554614394,0.0494494342591704
2.9827778339385986,0.009918555617332458,0.003335714340209961,0.006476163864135742,0.0586053803563118,0.046374086290597916,-0.005411918740719557,-0.6973881949135138,0.07178419791199576,0.049315879050437314
2.992825984954834,0.008075650781393051,0.00745236873626709,0.0026834607124328613,0.013656445778906345,0.06045430526137352,-0.006804592441767454,-0.6970341420615117,0.07217742426440589,0.04916792909597819
3.0032408237457275,0.007725432515144348,0.006823301315307617,-0.0010416507720947266,-0.02671680971980095,0.06850025057792664,-0.013467022217810154,-0.6971381458980443,0.07266167441987216,0.048991295266179145
3.012809991836548,0.009359344840049744,-8.171796798706055e-05,-9.781122207641602e-05,-0.0422513447701931,0.06565959006547928,-0.022521983832120895,-0.6975267662961324,0.07316286057471151,0.048760602037914956
3.0228588581085205,0.008860137313604355,-0.002641737461090088,0.0080680251121521,-0.034573186188936234,0.058239758014678955,-0.02362453192472458,-0.6979404912581776,0.0735620388397754,0.04846332203015141
3.0328710079193115,0.00971783697605133,0.008168399333953857,0.013861477375030518,-0.01605043187737465,0.051994550973176956,-0.025761187076568604,-0.6982501430194997,0.07391656617365647,0.04816167111992878
3.0430099964141846,0.012172669172286987,0.018874645233154297,0.010982275009155273,0.0028446947690099478,0.04441998898983002,-0.028587333858013153,-0.6984564672489794,0.07419152773794933,0.04782905583120345
3.053239107131958,0.01216418668627739,0.017553865909576416,0.007899940013885498,0.013632329180836678,0.0478389598429203,-0.030290743336081505,-0.6985273806690362,0.07446680510648432,0.047475220231493566
3.063378095626831,0.010496199131011963,0.015612602233886719,0.007690310478210449,0.030295727774500847,0.050069354474544525,-0.02947049029171467,-0.6983923084902613,0.07484419939925291,0.04716688945574904
3.0747299194335938,0.011102933436632156,0.020641028881072998,0.007991254329681396,0.047200508415699005,0.057188693434000015,-0.028590207919478416,-0.6981026060308275,0.07523020180049082,0.04682992805472637
3.0829129219055176,0.012335535138845444,0.02335655689239502,0.0033799409866333008,0.054184116423130035,0.05934159457683563,-0.026237305253744125,-0.6976651789383688,0.07564624417992105,0.046483431463871
3.092935800552368,0.011742588132619858,0.017878353595733643,-0.0013890862464904785,0.06091021001338959,0.05981088802218437,-0.02883484773337841,-0.6970883224471792,0.07610579492088507,0.04614661982691037
3.103104829788208,0.01269465684890747,0.016018450260162354,-0.000995039939880371,0.04534829780459404,0.050208061933517456,-0.04283508285880089,-0.6966285058869105,0.07648756381810579,0.04572565894876752
3.112914800643921,0.014259286224842072,0.014629602432250977,0.004047214984893799,0.027329083532094955,0.04054717719554901,-0.06289587914943695,-0.6965094345328608,0.07662876760859337,0.045099551261854984
3.122907876968384,0.016539253294467926,0.0019614696502685547,0.01872241497039795,0.007177208550274372,0.02435249648988247,-0.08375508338212967,-0.6966929587080519,0.07651245375848963,0.04424551271344634
3.132884979248047,0.019741155207157135,-0.007435858249664307,0.02599775791168213,0.002508370904251933,0.011383390054106712,-0.0920746922492981,-0.6969488431260429,0.07611296224009065,0.04319276645078819
3.1431257724761963,0.021739233285188675,0.0013737678527832031,0.02573949098587036,-0.01143221277743578,0.00899480003863573,-0.08261434733867645,-0.6973001957074261,0.07563742182555061,0.042153991384786905
3.153291940689087,0.024412591010332108,0.0067879557609558105,0.016972064971923828,-0.004088612273335457,0.01599207893013954,-0.06978888809680939,-0.6977018252122228,0.07529948233774358,0.04128735099835084
3.1630308628082275,0.02612490952014923,0.014013826847076416,0.003819108009338379,0.011012310162186623,0.0351327508687973,-0.0626758486032486,-0.6979496092052621,0.07519095846921617,0.040541903664956
3.1731579303741455,0.018580526113510132,0.002929985523223877,-0.005219578742980957,0.021268809214234352,0.040485791862010956,-0.06018568202853203,-0.6979772991182095,0.07524122218664284,0.03984510891121454
3.183100938796997,0.012670300900936127,-0.004430592060089111,-0.012452125549316406,0.04158979281783104,0.040538523346185684,-0.060700736939907074,-0.6978256294639263,0.07533812279054335,0.03916551504225228
3.1941099166870117,0.01202404871582985,-0.0037103891372680664,-0.010419487953186035,0.06007707118988037,0.03448191657662392,-0.05660879239439964,-0.6975031104678413,0.07542459352658369,0.03850761965929131
3.205378770828247,0.01152784749865532,-0.005408942699432373,-0.006238400936126709,0.07896821200847626,0.03058837726712227,-0.05141562968492508,-0.6969918653327674,0.07554228883505514,0.03791156115465109
3.213139772415161,0.004128806293010712,-0.00796198844909668,-0.005042970180511475,0.09134287387132645,0.02332109771668911,-0.047487519681453705,-0.6963019292808706,0.0756961484694904,0.03740781977622872
3.223294973373413,0.004311870783567429,-0.011923074722290039,-0.00042372941970825195,0.10593273490667343,0.01573481783270836,-0.04625900462269783,-0.6955582004720245,0.07580856593078494,0.03693497169957636
3.233165979385376,0.006438314914703369,-0.01215362548828125,0.00036787986755371094,0.11977723985910416,0.011047209613025188,-0.04157343879342079,-0.6946464359071419,0.07588311362868821,0.03649511601397051
