timestamp,accel_x,accel_y,accel_z,rotation_x,rotation_y,rotation_z, pitch,roll,yaw
0.048711299896240234,-0.010468661785125732,0.0054018497467041016,0.015485972166061401,-0.038579102605581284,-0.04413384199142456,-0.05576343089342117,-0.2555492939413879,1.2740366179281764,0.18955205467338757
0.0677652359008789,-0.006950020790100098,0.011760443449020386,0.011269330978393555,0.09253647923469543,-0.06506415456533432,-0.0579841323196888,-0.2559796241858874,1.2733480322499444,0.18910460013137176
0.07589316368103027,-0.004324615001678467,0.023223936557769775,0.01230078935623169,0.21913889050483704,-0.06436534225940704,-0.05500805005431175,-0.256054162739909,1.272226662625291,0.18737021044938376
0.07744121551513672,-0.003058910369873047,0.016712695360183716,0.010915875434875488,0.3199029564857483,-0.05600585788488388,-0.05899278074502945,-0.25578165832318944,1.2708747327846988,0.18448071928717547
0.08211421966552734,-0.0054419636726379395,0.011136114597320557,0.005226254463195801,0.36521610617637634,-0.03989746421575546,-0.0649164468050003,-0.25492163734126677,1.2702653286439942,0.18107168599105877
0.08881711959838867,-0.010572493076324463,0.009816944599151611,0.006771355867385864,0.35088032484054565,-0.013554537668824196,-0.07042546570301056,-0.2542350453444332,1.2697551729503462,0.17747988573979878
0.09850502014160156,-0.015350878238677979,-0.004910409450531006,0.007259368896484375,0.3016834855079651,0.01632612943649292,-0.08057636767625809,-0.25392245634470306,1.2697146664037355,0.17421882856941487
0.10852527618408203,-0.015848219394683838,-0.019535481929779053,0.012983322143554688,0.23461368680000305,0.04134159907698631,-0.08768727630376816,-0.2542136083415888,1.2699367432097108,0.171472724179822
0.11857223510742188,-0.011659860610961914,-0.02381303906440735,0.01308414340019226,0.15772876143455505,0.059284381568431854,-0.09487035870552063,-0.25494421552545604,1.2705775073152639,0.16943024916280608
0.12856721878051758,-0.007627964019775391,-0.02456843852996826,0.011248350143432617,0.08387462049722672,0.07190820574760437,-0.09566599875688553,-0.2561034121867306,1.271330929170019,0.16806814320235447
0.13877201080322266,-0.0058286190032958984,-0.02525314688682556,0.007692158222198486,0.02476203441619873,0.0781802162528038,-0.09318899363279343,-0.2578368990737166,1.272330686519419,0.1673678915943416
0.14873027801513672,-0.005807220935821533,-0.024619370698928833,0.000556647777557373,-0.006663098931312561,0.0713045597076416,-0.0893767848610878,-0.2593120770691904,1.2733109450689826,0.16708831720668824
0.15856719017028809,-0.004999697208404541,-0.025077521800994873,-0.003617018461227417,-0.024977391585707664,0.062478043138980865,-0.07976224273443222,-0.260496634726623,1.273966261829706,0.16699691042112894
0.16898298263549805,-0.00478595495223999,-0.021085381507873535,-0.007450282573699951,-0.03949340060353279,0.047200776636600494,-0.07559583336114883,-0.2615923089721051,1.274491460931625,0.16707118007323443
0.17875313758850098,-0.007452070713043213,-0.021092712879180908,-0.008033841848373413,-0.05598955228924751,0.03802112862467766,-0.07136593014001846,-0.2620421273244707,1.2748716397873128,0.16728377709816758
0.18901610374450684,-0.00852811336517334,-0.02955329418182373,-0.007356733083724976,-0.08033788204193115,0.03295557200908661,-0.06727445870637894,-0.2618916895856056,1.2754722295258294,0.16777793431583243
0.1988539695739746,-0.010433614253997803,-0.036152929067611694,-0.008521884679794312,-0.10946701467037201,0.03147086128592491,-0.05892651900649071,-0.2616312433559529,1.276159814032542,0.16856584024331056
0.20867013931274414,-0.012363970279693604,-0.033657968044281006,-0.011814594268798828,-0.1461709886789322,0.03419558331370354,-0.05166243016719818,-0.2614652432027523,1.276912475978901,0.16970260798408382
0.21883511543273926,-0.013341963291168213,-0.03149452805519104,-0.015114694833755493,-0.1810261607170105,0.04281863197684288,-0.038865409791469574,-0.26143704428463793,1.277711441846918,0.17120228569190357
0.2288203239440918,-0.014346718788146973,-0.031769365072250366,-0.01624196767807007,-0.20965108275413513,0.04656010866165161,-0.030109092593193054,-0.26153205536214846,1.2784441310532775,0.1729850059413916
0.2390291690826416,-0.014705359935760498,-0.03164908289909363,-0.017621874809265137,-0.2253384292125702,0.0460842028260231,-0.022214950993657112,-0.26167606494502704,1.2791489347166145,0.17500529869421674
0.2489001750946045,-0.015920519828796387,-0.031064748764038086,-0.015419423580169678,-0.2248397171497345,0.04072823002934456,-0.016603192314505577,-0.2619557563221882,1.2797640607709955,0.177092315625703
0.258803129196167,-0.01310110092163086,-0.028056979179382324,-0.013976514339447021,-0.21149781346321106,0.03289959952235222,-0.011490721255540848,-0.2621750214226331,1.280248388070304,0.1791057769815021
0.26880502700805664,-0.00964444875717163,-0.0193021297454834,-0.014213711023330688,-0.19410890340805054,0.02742338925600052,-0.002185157034546137,-0.26202090695299807,1.2806324148138748,0.1809932683343532
0.2790191173553467,-0.009435832500457764,-0.012353181838989258,-0.016960442066192627,-0.1640215665102005,0.02393890917301178,0.003775263438001275,-0.26149320744727894,1.280839670079112,0.18264621479338153
0.2891850471496582,-0.009050846099853516,-0.012725412845611572,-0.016924738883972168,-0.13293349742889404,0.026773443445563316,0.010999087244272232,-0.2608834510536754,1.2808331949191498,0.18397844989814238
0.29893016815185547,-0.009388148784637451,-0.013004809617996216,-0.017592549324035645,-0.11068865656852722,0.03353414312005043,0.017707059159874916,-0.2601934815661386,1.280719466114308,0.18504254657340505
0.30923008918762207,-0.007071018218994141,-0.008732259273529053,-0.019545942544937134,-0.09092345088720322,0.043513938784599304,0.026225872337818146,-0.25937236893036403,1.2806036541126322,0.18590470422113495
0.31914806365966797,-0.006769418716430664,-0.006677806377410889,-0.020446747541427612,-0.08119598776102066,0.05382383614778519,0.03454878181219101,-0.2584467631078154,1.2805127497714344,0.18663568582059387
0.3292713165283203,-0.005420982837677002,-0.008763343095779419,-0.021438300609588623,-0.07708392292261124,0.06725331395864487,0.036994628608226776,-0.2575106146161497,1.2806026742562386,0.18733598592868653
0.339428186416626,-0.00634157657623291,-0.008912473917007446,-0.02129453420639038,-0.08190743625164032,0.07138493657112122,0.04002077877521515,-0.256655035747934,1.280860460400866,0.18806292130348354
0.3491373062133789,-0.009218037128448486,-0.0072619616985321045,-0.017927318811416626,-0.09425358474254608,0.07164841890335083,0.03530330955982208,-0.25611604540745553,1.2811877830381744,0.1888693036792396
0.358917236328125,-0.014335691928863525,-0.007333338260650635,-0.011953622102737427,-0.11570827662944794,0.0636589378118515,0.026546036824584007,-0.25592168040322677,1.2814252380524787,0.18980695765819328
0.3691251277923584,-0.028584063053131104,-0.008656948804855347,-0.0015904903411865234,-0.15801265835762024,0.05578591674566269,0.009596827439963818,-0.25591765942947553,1.2816862523226287,0.1910364732971266
0.3789851665496826,-0.04858279228210449,-0.013661503791809082,0.00959882140159607,-0.21614813804626465,0.047456614673137665,-0.010738804005086422,-0.25626433889141736,1.2820821248127734,0.19272854106673157
0.38924503326416016,-0.07302707433700562,-0.018308669328689575,0.018331527709960938,-0.294644832611084,0.04579511657357216,-0.0313715897500515,-0.2570934460161857,1.2827036296319023,0.19506644373306806
0.3991842269897461,-0.08782637119293213,-0.023240238428115845,0.026572585105895996,-0.38081514835357666,0.05518941581249237,-0.04972183704376221,-0.25837471946969914,1.2836719524537081,0.19820908389318007
0.4090251922607422,-0.09461474418640137,-0.025824904441833496,0.03593066334724426,-0.4808776080608368,0.0812462717294693,-0.054805971682071686,-0.2599910148217258,1.285120767818888,0.20225427166210877
0.4190711975097656,-0.08886748552322388,-0.028792768716812134,0.04132121801376343,-0.5816202163696289,0.13011154532432556,-0.04773740842938423,-0.26189414678151557,1.2872712935160555,0.20733655366025555
0.42900705337524414,-0.0760958194732666,-0.032756507396698,0.039870619773864746,-0.6607934832572937,0.1999407410621643,-0.01924222521483898,-0.2638973275707665,1.2903243076229136,0.2133989547531187
0.43899011611938477,-0.055930256843566895,-0.031866252422332764,0.03346070647239685,-0.7083216309547424,0.2860652506351471,0.02927391231060028,-0.2656784118563596,1.2943969729255076,0.2202249367646882
0.4490351676940918,-0.04060077667236328,-0.025136113166809082,0.024411946535110474,-0.7123995423316956,0.3721219003200531,0.09270982444286346,-0.2670376054958305,1.299599564805003,0.22750002511071418
0.45915913581848145,-0.028713643550872803,-0.014583289623260498,0.014776021242141724,-0.6910969018936157,0.4649384021759033,0.16453129053115845,-0.26767687102758086,1.3057287539759048,0.23489890334871927
0.4690241813659668,-0.021459877490997314,-0.0037394165992736816,0.004555881023406982,-0.6597796082496643,0.5592960715293884,0.2349768429994583,-0.2674923256596956,1.3127980627098856,0.2422104572802698
0.4790840148925781,-0.018333852291107178,0.004639714956283569,-0.0035368502140045166,-0.6280203461647034,0.6294493675231934,0.2846887409687042,-0.26657268087816005,1.3206491809191572,0.24936215041327323
0.4895181655883789,-0.022012174129486084,-0.003224670886993408,0.0038984566926956177,-0.616076648235321,0.6756731271743774,0.3077174723148346,-0.26518734318328474,1.329022428277678,0.25634212121746114
0.49913501739501953,-0.03314709663391113,-0.027311205863952637,0.015381082892417908,-0.6502791047096252,0.7101959586143494,0.31976747512817383,-0.26363074900107736,1.3378172617651214,0.26345833835537547
0.5091681480407715,-0.05390065908432007,-0.03729310631752014,0.013494551181793213,-0.7792603969573975,0.7451608180999756,0.3230011463165283,-0.2621008072405348,1.347153874576344,0.27136900217635607
0.5192899703979492,-0.06674724817276001,-0.028152137994766235,-0.0005324482917785645,-0.9737193584442139,0.7987481355667114,0.3444667458534241,-0.26077296764331176,1.3573500299432093,0.28096124564328256
0.5290701389312744,-0.07406294345855713,-0.007562041282653809,-0.025213241577148438,-1.158293604850769,0.8400187492370605,0.3904174268245697,-0.25937729043983865,1.368554604813347,0.29258223369988623
0.5393011569976807,-0.07592964172363281,0.016236454248428345,-0.05140644311904907,-1.2894971370697021,0.8595666289329529,0.40771597623825073,-0.25785167632586786,1.3804726370571183,0.3058482610610693
0.5491220951080322,-0.0719679594039917,0.03471720218658447,-0.07443541288375854,-1.4036167860031128,0.8660408854484558,0.43194711208343506,-0.256176863149697,1.39278724139727,0.3203502857789832
0.5591449737548828,-0.07013159990310669,0.06021222472190857,-0.09023302793502808,-1.5051143169403076,0.857957124710083,0.43815600872039795,-0.2543815743039545,1.4053736956075076,0.3359507254597812
0.5691671371459961,-0.07065767049789429,0.08399227261543274,-0.09917449951171875,-1.6386339664459229,0.8348714113235474,0.41587093472480774,-0.2526091109089478,1.4179791824160213,0.35270415955639334
0.5792181491851807,-0.05923116207122803,0.1132906824350357,-0.10659527778625488,-1.5953704118728638,0.7846471071243286,0.43430960178375244,-0.25081139534497915,1.4303955131703532,0.36986594307714366
0.589482307434082,-0.04562246799468994,0.12909328937530518,-0.12943726778030396,-1.6100342273712158,0.7751384973526001,0.39415520429611206,-0.24880140225770292,1.4423668018372207,0.3869162843930625
0.5993351936340332,-0.036616742610931396,0.1697021722793579,-0.15148133039474487,-1.5740346908569336,0.7346211671829224,0.296615332365036,-0.24733207237068783,1.4541278559835267,0.40368598360925223
0.6093521118164062,-0.04873800277709961,0.18786363303661346,-0.1580027937889099,-1.6482881307601929,0.7030128836631775,0.23856092989444733,-0.24647875071361586,1.4654631230703516,0.42053719770989956
0.6192140579223633,-0.05908328294754028,0.20694193243980408,-0.16309517621994019,-1.7655417919158936,0.6399135589599609,0.16954591870307922,-0.24608037367170787,1.4764585477663106,0.4381616807839249
0.6293292045593262,-0.0681835412979126,0.23930063843727112,-0.1801694631576538,-1.9704134464263916,0.5992984771728516,0.040360063314437866,-0.2467151258959569,1.487359391749833,0.4574590031217375
0.639458179473877,-0.07098561525344849,0.2706413269042969,-0.19054198265075684,-2.1448729038238525,0.5307180881500244,-0.0843680202960968,-0.24854172019791995,1.4982442562784484,0.47864805660916593
0.6493682861328125,-0.06742072105407715,0.29664480686187744,-0.18943560123443604,-2.3105528354644775,0.43106144666671753,-0.22236749529838562,-0.25159440532198324,1.5087277317850365,0.5015146014004148
0.6592991352081299,-0.06267714500427246,0.3162272870540619,-0.1905885934829712,-2.5025124549865723,0.3486107885837555,-0.34481775760650635,-0.2558133846529128,1.5187949792769415,0.5261616014363193
0.6692841053009033,-0.04563570022583008,0.3527805507183075,-0.1905537247657776,-2.705427408218384,0.2828476130962372,-0.4655592143535614,-0.26110770709003445,1.5287896206489462,0.5529277496176386
0.6793622970581055,-0.010027408599853516,0.4142921268939972,-0.18329793214797974,-2.8719165325164795,0.23310162127017975,-0.6037317514419556,-0.267490522042914,1.538873165950078,0.5817018468414789
0.6895880699157715,0.03135836124420166,0.4931432008743286,-0.17757022380828857,-2.886500120162964,0.17096896469593048,-0.7671237587928772,-0.2750834787621008,1.548903068642,0.611508691571308
0.6995491981506348,0.059181034564971924,0.5742172598838806,-0.17848223447799683,-2.7888174057006836,0.07395001500844955,-0.9988899230957031,-0.2843984707270608,1.5582533652901054,0.6409574067131205
0.7095232009887695,0.05635428428649902,0.6276122331619263,-0.18483740091323853,-2.6234548091888428,0.013201574794948101,-1.2455271482467651,-0.29587532261689314,1.5667208679761138,0.6691712111534553
0.7195751667022705,0.03159523010253906,0.6723383665084839,-0.19656872749328613,-2.4445652961730957,-0.009790560230612755,-1.5329304933547974,-0.30976472176290987,1.5746469754025452,0.6957663506251586
0.7294631004333496,0.016878962516784668,0.7355625629425049,-0.19950640201568604,-2.198516845703125,-0.034195102751255035,-1.8573639392852783,-0.32659376462131645,1.5821361771718916,0.7204125265626286
0.7396061420440674,0.03110218048095703,0.7835618853569031,-0.1941831111907959,-1.9858614206314087,-0.04673752188682556,-2.1820032596588135,-0.3464991103553134,1.589113038928578,0.7428859036258626
0.7493751049041748,0.051814496517181396,0.8099355101585388,-0.1829991340637207,-1.8062810897827148,-0.03416416421532631,-2.5265705585479736,-0.3696765530240805,1.5959844154013683,0.7636750051263599
0.759587287902832,0.07780838012695312,0.8172314167022705,-0.15956592559814453,-1.627472996711731,-0.011777367442846298,-2.8449339866638184,-0.39612668199465356,1.6029767058476654,0.7830486586866309
0.7693171501159668,0.12443137168884277,0.8008430004119873,-0.13681840896606445,-1.4557151794433594,0.019931070506572723,-3.1193087100982666,-0.42545396885312964,1.6101834076696657,0.8010262653633553
0.7794632911682129,0.19110506772994995,0.8155959844589233,-0.11683345586061478,-1.2527340650558472,0.040599334985017776,-3.416700839996338,-0.4575751070871636,1.6175836235903511,0.8176140672758386
0.7901251316070557,0.2904976010322571,0.8767033815383911,-0.0822754055261612,-0.9895129799842834,0.036569658666849136,-3.7246994972229004,-0.49277642275930095,1.6246686129951238,0.8322673934064738
0.7995600700378418,0.39313310384750366,0.9035903215408325,-0.05414390563964844,-0.7568773627281189,0.042393457144498825,-4.019457817077637,-0.5310379336528153,1.6311472732722678,0.8447559116848707
0.809974193572998,0.4834948778152466,0.9074587225914001,-0.0246737003326416,-0.543357253074646,0.09476660937070847,-4.323276519775391,-0.5723662896095449,1.6374450425417209,0.8555118800272322
0.8197751045227051,0.5908603668212891,0.9059605598449707,-0.002807609736919403,-0.3420230448246002,0.16161514818668365,-4.60372257232666,-0.6167276135504106,1.6437720968612521,0.8645650927102351
0.8299660682678223,0.6891767382621765,0.8843516111373901,0.005736589431762695,-0.1810462325811386,0.2724747359752655,-4.8453264236450195,-0.6638670574511987,1.6505454618327058,0.8723446670153202
0.8404171466827393,0.741782009601593,0.8425461649894714,0.013526201248168945,0.007654437329620123,0.3863126337528229,-5.034944534301758,-0.7135934482600176,1.6578465643048075,0.8786999603491586
0.8501992225646973,0.7707525491714478,0.7810879349708557,0.017743341624736786,0.2592744827270508,0.4677920639514923,-5.241313934326172,-0.7652647375633463,1.6652183842630424,0.8832872317113335
0.859745979309082,0.7918563485145569,0.7159637808799744,0.05184316635131836,0.6152960062026978,0.5088223218917847,-5.397959232330322,-0.8188427407481921,1.6710058023414327,0.8845375528682082
0.8721699714660645,0.8210626840591431,0.6935952305793762,0.0623786523938179,0.9937846064567566,0.5220523476600647,-5.531182289123535,-0.8741630344872369,1.673280518973953,0.880705223310467
0.8798491954803467,0.8567578792572021,0.7245866656303406,0.05395376309752464,1.3053526878356934,0.5359714031219482,-5.678638458251953,-0.9312139580309888,1.6712853490762472,0.8714088308056144
0.8898100852966309,0.8870740532875061,0.7173948287963867,0.07142007350921631,1.4940662384033203,0.5362598299980164,-5.82956600189209,-0.9899726100525186,1.6644925867753284,0.8566195300422065
0.8998832702636719,0.8978209495544434,0.6263782978057861,0.09723687171936035,1.5561069250106812,0.5361189246177673,-5.9822258949279785,-1.050252618814729,1.6533733770290315,0.8372589115492002
0.9101572036743164,0.9085800647735596,0.5440925359725952,0.12583303451538086,1.4116342067718506,0.5908306241035461,-6.178651809692383,-1.112092420447151,1.6398562184273786,0.815590953084921
0.9198422431945801,0.9378399848937988,0.5135776400566101,0.16992151737213135,1.327093482017517,0.6343147158622742,-6.406630992889404,-1.1758628954565487,1.6242840735153075,0.7917859182927235
0.9298171997070312,0.9210720062255859,0.3857623338699341,0.19056689739227295,1.3369313478469849,0.6958000659942627,-6.553492069244385,-1.2413555077043774,1.6033474865596875,0.7622857922003674
0.9397740364074707,0.8667973279953003,0.21349948644638062,0.1769886016845703,1.438856601715088,0.7661991715431213,-6.629595756530762,-1.3075966475214358,1.5687957928390002,0.7185237498197737
0.9503083229064941,0.8526977896690369,0.14799624681472778,0.14354300498962402,1.6480350494384766,0.7929637432098389,-6.656545162200928,-1.3736018722495673,1.5000022736912086,0.6398907857804343
0.9597582817077637,0.8604975342750549,0.13506776094436646,0.12611716985702515,2.071699857711792,0.8057708740234375,-6.713354587554932,-1.4372207163858546,1.338395999793764,0.467993296228194
0.9698581695556641,0.8290570974349976,-0.02245914936065674,0.12104368209838867,2.586089849472046,0.730739176273346,-6.669355392456055,-1.4880726264200816,0.870533542217931,-0.010124322571566388
0.9797072410583496,0.7434360384941101,-0.3694274425506592,0.12305587530136108,2.916018486022949,0.6043985486030579,-6.56232213973999,-1.4901131007508563,-0.03007325216100999,-0.9200537012551077
0.9899539947509766,0.6864378452301025,-0.6050871014595032,0.1857018619775772,3.16825008392334,0.426641047000885,-6.404541492462158,-1.440913282404891,-0.5400458081890612,-1.4378079663378736
1.0000011920928955,0.6736472845077515,-0.7768693566322327,0.2615354061126709,3.308932304382324,0.21885427832603455,-6.08408260345459,-1.3772961012367435,-0.7282010889386891,-1.6315992300358952
1.0101170539855957,0.7057709693908691,-0.8744060397148132,0.34671682119369507,3.253133535385132,0.07381440699100494,-5.727703094482422,-1.3123892708922062,-0.811789692814837,-1.7187557582178437
1.019911289215088,0.7359504103660583,-0.9153063297271729,0.43970274925231934,3.0231266021728516,-0.0027581285685300827,-5.291251182556152,-1.2502355865643906,-0.8577424579618426,-1.7669878217580999
1.0304780006408691,0.7636654376983643,-0.9813487529754639,0.536331832408905,2.5644233226776123,-0.07049793750047684,-4.785284042358398,-1.1934674666579395,-0.8881203267766427,-1.7989467130359618
1.0398759841918945,0.7950826287269592,-1.0583336353302002,0.6330115795135498,1.9312196969985962,-0.07665383070707321,-4.215178489685059,-1.1440651935885955,-0.9130752585223113,-1.8252224743446512
1.0496940612792969,0.7944631576538086,-1.1393866539001465,0.7062598466873169,1.193057894706726,-0.020456518977880478,-3.6319971084594727,-1.1032289446949757,-0.9368021943480002,-1.8509671210264693
1.0600011348724365,0.764411211013794,-1.2291626930236816,0.7368998527526855,0.41735875606536865,0.05873071029782295,-3.0593295097351074,-1.0712475863192028,-0.9612227018088251,-1.878774919683952
1.0697221755981445,0.7079243063926697,-1.3537266254425049,0.732917070388794,-0.4333598017692566,0.15603360533714294,-2.540945053100586,-1.0478691040671715,-0.9883589684672619,-1.911069593081702
1.079897165298462,0.636419415473938,-1.525630235671997,0.7375973463058472,-1.2546368837356567,0.315210223197937,-2.020209789276123,-1.0330834721056805,-1.0193011896190105,-1.9496264393787566
1.090054988861084,0.5653563737869263,-1.735244870185852,0.7333260178565979,-1.913973331451416,0.514538049697876,-1.4317777156829834,-1.0262790808748077,-1.0527247910439563,-1.9934444090914134
1.1002249717712402,0.5068624019622803,-1.9387645721435547,0.6838529109954834,-2.464143753051758,0.7542747259140015,-0.7422038316726685,-1.0271891056219666,-1.0869324498144866,-2.0408449868309484
1.1105690002441406,0.48705294728279114,-2.0341622829437256,0.6054222583770752,-2.944488763809204,1.0058698654174805,0.09803374856710434,-1.036434218122088,-1.121092377580666,-2.090936528230417
1.120232105255127,0.541984498500824,-1.9645159244537354,0.5204444527626038,-3.3385732173919678,1.1900594234466553,1.0828461647033691,-1.054899326564413,-1.1550953915381457,-2.1431680104187176
1.1300582885742188,0.6501331329345703,-1.784539818763733,0.4346041679382324,-3.456230878829956,1.4151861667633057,2.140444040298462,-1.08303937323864,-1.1881630156045166,-2.1956420740449785
1.1401863098144531,0.7446935772895813,-1.5655434131622314,0.31251055002212524,-3.5054690837860107,1.5855108499526978,3.1985244750976562,-1.1205424808948126,-1.218297355799541,-2.2464405534868352
1.1505451202392578,0.7525014877319336,-1.3674534559249878,0.2113988846540451,-3.3749947547912598,1.5490498542785645,4.164050579071045,-1.1668491881202199,-1.2473058611807872,-2.2956226116041205
1.1602592468261719,0.7509788274765015,-1.3072187900543213,0.12933075428009033,-3.074699640274048,1.5449172258377075,4.953216075897217,-1.220314755504573,-1.2743268507432985,-2.341295303249068
1.170107126235962,0.7244967222213745,-1.36383056640625,0.047908537089824677,-2.8704833984375,1.4237703084945679,5.582797050476074,-1.2793882570740365,-1.3008221965296836,-2.3850783389320185
1.1803622245788574,0.6801358461380005,-1.3512507677078247,0.001988708972930908,-2.5656564235687256,1.1838687658309937,6.062728404998779,-1.3427710952458443,-1.331434928885905,-2.430340626440933
1.1906061172485352,0.652597188949585,-1.3136465549468994,-0.008358478546142578,-2.285715103149414,0.8971328735351562,6.302847862243652,-1.408723633359143,-1.3727996962849307,-2.4830506742576413
1.2003581523895264,0.6423839330673218,-1.297119379043579,0.020048141479492188,-2.029885768890381,0.47974154353141785,6.428616046905518,-1.4749222900438945,-1.4543572493145922,-2.572458308679225
1.2101850509643555,0.6772165894508362,-1.293689489364624,0.053736329078674316,-1.617389440536499,0.002707610372453928,6.826356410980225,-1.5411682389481567,-1.8064488943077102,-2.927342056432507
1.2219631671905518,0.7580568790435791,-1.2301702499389648,0.0941171646118164,-1.3945105075836182,-0.3756822943687439,7.103295803070068,-1.524394111100057,2.0612075584306426,0.9415795026429957
1.2302732467651367,0.7923997640609741,-1.1274549961090088,0.08552050590515137,-1.249945044517517,-0.6650329828262329,7.496525287628174,-1.451588710635513,1.8644970257286815,0.7496322230582781
1.2403101921081543,0.877072274684906,-0.9383757710456848,0.0395050048828125,-1.6315333843231201,-0.9398360848426819,7.8450026512146,-1.3736394086876658,1.8138076215282255,0.7066059141714593
1.2501611709594727,1.0115973949432373,-0.6126188039779663,0.042472124099731445,-1.9952410459518433,-1.0880684852600098,8.165931701660156,-1.291618327424065,1.800307137380151,0.7032080566238297
1.2603821754455566,1.110617756843567,-0.3412558436393738,0.03423190116882324,-2.359736919403076,-1.346035361289978,8.747296333312988,-1.204167444962853,1.7938848956987612,0.7091362513352911
1.2728610038757324,1.2782669067382812,0.015013813972473145,0.0784149169921875,-2.678534507751465,-1.5509928464889526,8.910744667053223,-1.1120477045520099,1.7919175528531712,0.7228589567179465
1.2802200317382812,1.468082308769226,0.47679537534713745,0.1193535327911377,-2.556515693664551,-1.8261871337890625,8.832855224609375,-1.0195918197301117,1.7864978531328164,0.7359958350752426
1.290194034576416,1.5614981651306152,0.6843649744987488,0.007564559578895569,-2.3429253101348877,-1.9327354431152344,8.721638679504395,-0.928406673247181,1.7758624317546792,0.7460900630949001
1.3004260063171387,1.6123319864273071,0.7490564584732056,-0.08095179498195648,-2.2139039039611816,-1.806994080543518,8.517688751220703,-0.8393809208020061,1.763573349017268,0.75454400802488
1.310420036315918,1.6340974569320679,0.6877833008766174,-0.19855152070522308,-2.2314841747283936,-1.5110087394714355,8.402375221252441,-0.7520783658780946,1.7533477493921923,0.7632837313254099
1.321965217590332,1.7007803916931152,0.6988192200660706,-0.2554941177368164,-1.976036787033081,-1.312685251235962,8.308207511901855,-0.665981560854832,1.7450079653914878,0.7718233035127877
1.3304290771484375,1.8236851692199707,0.9020354151725769,-0.23066948354244232,-1.6070806980133057,-1.14543616771698,8.38048267364502,-0.5806370506983253,1.7349430645087165,0.7757565710217261
1.3403971195220947,1.911341667175293,1.1270350217819214,-0.16217853128910065,-2.0124521255493164,-0.9978203773498535,8.415764808654785,-0.4948085028396113,1.7262277988287689,0.7801035875057936
1.350405216217041,1.9449806213378906,1.085344672203064,0.018227338790893555,-2.6425294876098633,-0.9533876776695251,8.580798149108887,-0.40686745313500144,1.7217271425924117,0.7925757260292897
1.3604540824890137,1.9366475343704224,0.9302973747253418,0.19652213156223297,-2.6977338790893555,-1.633193016052246,7.807490825653076,-0.3231136809170602,1.7147445296494586,0.8059083233698754
1.3704442977905273,2.1236701011657715,0.8652786016464233,0.4958289861679077,-4.044487476348877,-1.0085344314575195,7.740031719207764,-0.2401888347243439,1.709063994983718,0.8304098027140191
1.3805341720581055,1.76540207862854,0.8063198328018188,0.58716881275177,-3.350470542907715,-2.2611823081970215,7.805758953094482,-0.15816008113332847,1.6973322638799944,0.857845571306544
1.3903942108154297,1.76676344871521,1.2270065546035767,0.5926969051361084,-2.688626527786255,-2.5250494480133057,7.17453670501709,-0.08010115460656973,1.6764800040515733,0.8789517847719269
1.4009521007537842,2.0641603469848633,1.2317863702774048,0.5449920892715454,-2.9257984161376953,-2.278899908065796,7.248832702636719,-0.005838703242949114,1.651763984495666,0.9002056033725878
1.4117469787597656,1.6784143447875977,1.1127077341079712,0.5754380226135254,-0.702604353427887,-3.68434476852417,6.769568920135498,0.06526884329860268,1.6232713930955123,0.9136916995524191
1.4232392311096191,1.6908411979675293,1.6238075494766235,0.5079388618469238,1.9482805728912354,-3.4668333530426025,6.1591691970825195,0.1303409236153618,1.5875057636133467,0.9035333546505044
1.4304790496826172,1.479086995124817,2.1548783779144287,0.3381490111351013,0.29831117391586304,-2.579230785369873,5.837803840637207,0.18888232005178626,1.561352110778241,0.8881499443796018
1.4404382705688477,1.2704957723617554,1.8555470705032349,0.36916977167129517,-1.3548623323440552,-2.7589073181152344,5.047323703765869,0.2446219617230015,1.5326979715126863,0.895676221972566
1.4505231380462646,0.8516389727592468,1.490391731262207,1.078559160232544,-3.3645808696746826,-2.302945852279663,3.3210983276367188,0.28449730973712173,1.5004310128409848,0.9222447401570887
1.4604601860046387,0.15873831510543823,1.278512954711914,1.151013731956482,-4.148252010345459,-2.3734145164489746,2.1924822330474854,0.30845107851561165,1.4645507474944353,0.965054431168449
1.4704532623291016,-0.11602407693862915,1.6062105894088745,1.1035550832748413,-4.547313213348389,-2.0514864921569824,0.9840127825737,0.3185727246390078,1.42741034773143,1.0118337762578287
1.4807929992675781,-0.4476657509803772,1.7943270206451416,0.7715598940849304,-5.278615474700928,-1.4467318058013916,0.20575669407844543,0.31612182260890154,1.3934157109258627,1.064796802640753
1.4905521869659424,-0.685457706451416,1.5400171279907227,0.5600135326385498,-4.746022701263428,-0.7776066660881042,-0.16948498785495758,0.3059688948043826,1.3662265897707275,1.1171907332759088
1.5006351470947266,-0.9283563494682312,1.3789763450622559,0.3394686281681061,-3.279137134552002,-0.18679076433181763,-0.36650511622428894,0.29450051398571264,1.3492562015233625,1.1583969832818681
1.510491132736206,-1.1556580066680908,1.630002498626709,0.04490730166435242,-1.2520391941070557,0.3223729133605957,-0.5112804770469666,0.2850463847119284,1.3437319146999798,1.1804044626622279
1.5222063064575195,-1.2831883430480957,1.7894223928451538,-0.15692147612571716,0.3887953758239746,0.8412704467773438,-0.4576452672481537,0.27929114334015476,1.3487582590043015,1.1833282229266546
1.5306751728057861,-1.2746827602386475,1.6218996047973633,-0.15075980126857758,1.6216373443603516,1.2064542770385742,-0.4637109637260437,0.27702546003553463,1.362336374185129,1.1718436712765283
1.5405561923980713,-1.2247631549835205,1.343092918395996,-0.008688017725944519,2.532191514968872,1.3994472026824951,-0.5188218951225281,0.27626602336243766,1.3816218738611186,1.1493831863529338
1.550537109375,-1.1938817501068115,1.215127944946289,0.08383476734161377,3.216665506362915,1.559941053390503,-0.5240239500999451,0.2762293893355545,1.404738064862721,1.1189105930412366
1.560448169708252,-1.170868158340454,1.2101871967315674,0.09786809980869293,3.6606221199035645,1.5763094425201416,-0.5446370840072632,0.27620092650101646,1.430437784585948,1.08242572834596
1.5718162059783936,-1.1476399898529053,1.1475715637207031,0.11918336153030396,3.7256762981414795,1.5560985803604126,-0.6629306674003601,0.27497082561909764,1.4568136639206843,1.0433981676679145
1.5804972648620605,-1.1047043800354004,0.9997197389602661,0.1563846468925476,3.641284227371216,1.5132218599319458,-0.7659888863563538,0.2714905601746038,1.4827319215600927,1.0044417937343575
1.5904350280761719,-1.0451114177703857,0.8420824408531189,0.15643996000289917,3.478368043899536,1.4229398965835571,-0.7908056378364563,0.2663953160179634,1.5074327971554267,0.9669725977170771
1.6006979942321777,-0.9553263187408447,0.820213794708252,0.12951606512069702,3.3271119594573975,1.3050390481948853,-0.8635584115982056,0.2598974598976205,1.5303503326890633,0.931292583711343
1.610706090927124,-0.8479596972465515,0.845868706703186,0.1035008430480957,3.129516839981079,1.1912400722503662,-0.8884444832801819,0.25201619581246526,1.5513985942904145,0.897586136166216
1.6233861446380615,-0.6911852955818176,0.8431325554847717,0.08930104970932007,2.937358856201172,1.0492064952850342,-0.8178132176399231,0.24370060378470546,1.5703494451427977,0.8662008820760924
1.6307482719421387,-0.48152172565460205,0.8388271927833557,0.08066976070404053,2.840484142303467,0.8362742066383362,-0.7209861278533936,0.23574987579915876,1.5868702945657769,0.8365743079071495
1.640714168548584,-0.25438374280929565,0.8580471277236938,0.06334495544433594,2.85606050491333,0.556329071521759,-0.6018762588500977,0.22843699718711713,1.600512975859946,0.8074877461812532
1.6506431102752686,-0.041943371295928955,0.9066126942634583,0.04986440762877464,2.906757354736328,0.2858836054801941,-0.5089613199234009,0.22182781583669878,1.6112749995376336,0.7780954134036796
1.6606571674346924,0.15957975387573242,0.9454653263092041,0.0469820499420166,2.8594210147857666,0.0813259407877922,-0.4538123309612274,0.21575105870184727,1.6194747584114517,0.7487074267717557
1.671821117401123,0.3960977792739868,0.9838853478431702,0.04517758637666702,2.722701072692871,-0.18018577992916107,-0.43072399497032166,0.2098953240290918,1.625056686874505,0.7202985002774039
1.680643081665039,0.7185813784599304,1.0598397254943848,0.05065787583589554,2.4469847679138184,-0.5939334034919739,-0.6262460947036743,0.20339011650812847,1.626649820617015,0.6941790919136606
1.6910400390625,1.1566569805145264,1.1327104568481445,0.10996139049530029,2.117324113845825,-1.2561204433441162,-1.2342777252197266,0.19301938035994673,1.6221036468190841,0.6713488148373711
1.700883150100708,1.614717960357666,1.0852515697479248,0.24078583717346191,1.6695252656936646,-2.015491008758545,-1.9573960304260254,0.17620407399191185,1.609132260447788,0.6525922108813111
1.7108960151672363,1.918001413345337,0.9353039264678955,0.4569215774536133,0.6636419892311096,-2.641472816467285,-2.8656270503997803,0.15184446621091527,1.5875333362748387,0.6409885510448498
1.7225122451782227,1.963073492050171,0.7339881658554077,0.7923279404640198,-1.0532865524291992,-2.9896936416625977,-3.982534885406494,0.11757490505514764,1.5589959946419394,0.6426455467733662
1.7308001518249512,1.953383445739746,0.5330289006233215,1.1154192686080933,-3.139892101287842,-3.012495994567871,-5.14470100402832,0.07115963289449659,1.5268614700231102,0.6624146011329342
1.7408711910247803,2.0076117515563965,0.36762481927871704,1.1905275583267212,-4.990839004516602,-2.613992214202881,-6.113826274871826,0.01224798112127415,1.4968801196180914,0.6999633242266885
1.7507731914520264,2.092820644378662,0.33155691623687744,0.9753125905990601,-6.291109561920166,-1.7439351081848145,-6.965129852294922,-0.057956085647696595,1.4759506517687357,0.751145933665668
1.7608742713928223,2.1521172523498535,0.4658358693122864,0.60554438829422,-6.796870708465576,-0.5542051792144775,-7.605639457702637,-0.13731740628107134,1.4700400703917258,0.8097935120823616
1.7729930877685547,2.195530652999878,0.643402636051178,0.21527421474456787,-6.6711273193359375,0.7900540828704834,-7.956170558929443,-0.2217056334738356,1.4821141342164803,0.8709457846731207
1.780951976776123,2.2751762866973877,0.8247747421264648,-0.05379515886306763,-5.901886940002441,2.1129794120788574,-7.993834018707275,-0.3064648614072815,1.512162775304916,0.9300957036811662
1.7908861637115479,2.3237743377685547,0.9120519161224365,-0.14122700691223145,-4.689159870147705,3.1737847328186035,-7.980094909667969,-0.3907876772373729,1.5578653396159574,0.9838229693567525
1.8011760711669922,2.3044533729553223,0.8770673871040344,-0.03169143572449684,-3.134349822998047,3.8520915508270264,-8.088582992553711,-0.47090992018212596,1.6119523181361533,1.0284395166586973
1.8113350868225098,2.2432243824005127,0.8252704739570618,0.10377489775419235,-1.323672890663147,4.043488502502441,-8.107622146606445,-0.5504697376981761,1.66730314272971,1.0603902752886478
1.8228771686553955,2.2189111709594727,0.9799619913101196,0.15281319618225098,0.30901747941970825,4.021998882293701,-8.09337329864502,-0.630453712182041,1.717537582222521,1.0780920570768056
1.831214189529419,2.2406535148620605,1.1958167552947998,0.1496185064315796,1.5059610605239868,3.9588661193847656,-8.106002807617188,-0.7120415357414358,1.7608335983145564,1.0835550245531653
1.8410053253173828,2.1280460357666016,1.0755006074905396,0.07827447354793549,2.1941311359405518,3.9046146869659424,-8.155439376831055,-0.7955934556173923,1.7988660507857976,1.0815329778526175
1.8510260581970215,1.9021799564361572,0.6340166926383972,0.00330410897731781,2.3185064792633057,3.89119815826416,-8.246901512145996,-0.8808131505150624,1.8353707012417277,1.0782129865453214
1.8610811233520508,1.6635315418243408,0.2552006244659424,-0.05932749807834625,2.2916178703308105,3.9147324562072754,-8.423876762390137,-0.9673991235866444,1.8764958044556557,1.0806501463056075
1.8730201721191406,1.4710791110992432,0.05332040786743164,-0.13975657522678375,2.2475290298461914,3.8694241046905518,-8.571165084838867,-1.055303575138107,1.9250882812146328,1.0920005552628334
1.880998134613037,1.3287584781646729,-0.10090494155883789,-0.20161785185337067,2.4000473022460938,3.825645923614502,-8.686698913574219,-1.1441366815697838,1.9853675357166234,1.1162864098665628
1.8911621570587158,1.2627365589141846,-0.2561277151107788,-0.25497567653656006,2.630373477935791,3.7221803665161133,-8.73771858215332,-1.2336545068481222,2.0620266910485943,1.1580856045326842
1.9018540382385254,1.2783145904541016,-0.408825159072876,-0.31288599967956543,2.900301218032837,3.557443141937256,-8.692008972167969,-1.322723072555759,2.170522779624243,1.233208590298972
1.911062240600586,1.3801451921463013,-0.5201173424720764,-0.29181042313575745,3.181523561477661,3.334770441055298,-8.570453643798828,-1.4089374718158139,2.358892351854151,1.3901415885502668
1.9224920272827148,1.55979323387146,-0.6208972930908203,-0.1920989751815796,3.426832437515259,3.0293338298797607,-8.437722206115723,-1.4830949583445665,2.840129160504448,1.8425529899394537
1.9310941696166992,1.7991031408309937,-0.753197968006134,-0.031742461025714874,3.55850887298584,2.619359016418457,-8.429229736328125,-1.4937507291880041,-2.247096360119073,3.01328401422515
1.941087245941162,2.0318069458007812,-1.0451428890228271,0.17012059688568115,3.4994256496429443,2.291517496109009,-8.506304740905762,-1.4248739070997287,-1.6430559954744257,-2.6871697030007153
1.951127052307129,2.2362067699432373,-1.520573377609253,0.34440845251083374,2.91617488861084,1.7404959201812744,-8.477218627929688,-1.3388036843876792,-1.4609292543694075,-2.522499771427313
1.9612250328063965,2.3981781005859375,-1.9717063903808594,0.5121397376060486,2.0568294525146484,1.3373194932937622,-8.321318626403809,-1.251946607483503,-1.3997142473477127,-2.474925762282037
1.9717493057250977,2.5042030811309814,-2.2992217540740967,0.6534181833267212,1.0956389904022217,0.9041621088981628,-7.886101245880127,-1.1690427392813447,-1.385580138624344,-2.471940990406804
1.98101806640625,2.4835147857666016,-2.5065500736236572,0.6723076701164246,0.34808385372161865,0.4331873953342438,-7.228518962860107,-1.093220152705826,-1.3932396694878189,-2.487786915961775
1.9913341999053955,2.4163384437561035,-2.657909870147705,0.6388060450553894,-0.12954913079738617,-0.036014750599861145,-6.379603385925293,-1.0257421113626861,-1.4100674330653913,-2.509359574841636
2.0010170936584473,2.3091020584106445,-2.8686065673828125,0.5053063631057739,-0.49048280715942383,-0.40942615270614624,-5.348727703094482,-0.9672873415420524,-1.4304548465605862,-2.5309856390554626
2.0110650062561035,2.104252815246582,-3.0369298458099365,0.26396644115448,-0.7711262106895447,-0.576860249042511,-3.9735658168792725,-0.9215555422566523,-1.4525739477617117,-2.5520952687691905
2.021879196166992,1.8387744426727295,-3.0729477405548096,-0.042922548949718475,-0.9835492372512817,-0.7115565538406372,-2.2299747467041016,-0.8914201773185557,-1.4744765029572346,-2.5717736655668078
2.0310330390930176,1.64296293258667,-2.953866958618164,-0.262532114982605,-1.0484414100646973,-0.9205129742622375,-0.33862149715423584,-0.8794607272198,-1.4964719414526255,-2.5897235825671
2.0410380363464355,1.496713399887085,-2.76590633392334,-0.3587857484817505,-1.014467477798462,-1.178953766822815,1.5220402479171753,-0.886088698506032,-1.519079535229877,-2.6054084515986053
2.051190137863159,1.3148753643035889,-2.5709376335144043,-0.3342097997665405,-0.948782205581665,-1.454447627067566,3.2379910945892334,-0.9103993766571126,-1.5433758732702567,-2.6196469261886186
2.0613081455230713,1.1333856582641602,-2.328829526901245,-0.22008490562438965,-0.9169619679450989,-1.7595326900482178,4.722923278808594,-0.9505555316658467,-1.5712031803298194,-2.634321102076966
2.0721073150634766,0.9902890920639038,-2.028395652770996,-0.10665762424468994,-1.0213514566421509,-2.081631898880005,5.907597064971924,-1.003747452839637,-1.605969614346106,-2.653049198468286
2.0812430381774902,0.8741706609725952,-1.725672960281372,-0.020752310752868652,-1.4074565172195435,-2.2896649837493896,6.885934352874756,-1.0670365103873407,-1.6545985306694773,-2.6840450410843175
2.0913190841674805,0.7838869094848633,-1.4704082012176514,0.040377140045166016,-1.895384430885315,-2.3379266262054443,7.629896640777588,-1.1375029719856955,-1.7273017687275367,-2.7394749250944783
2.1016311645507812,0.7730522751808167,-1.2901630401611328,0.04877053201198578,-2.23146915435791,-2.864063024520874,8.508272171020508,-1.2117154511196822,-1.8430898448978261,-2.8367768649351794
2.111394166946411,0.9008454084396362,-1.1316914558410645,0.06739139556884766,-2.506011962890625,-3.3112499713897705,9.356742858886719,-1.2871644656534487,-2.03759204830146,-3.0088890111480624
2.1224679946899414,1.0777220726013184,-0.8959782123565674,0.0457310676574707,-3.1669704914093018,-3.5993335247039795,9.764036178588867,-1.3480456289507923,-2.3825905387000104,2.9541575810358958
2.1313321590423584,1.2309995889663696,-0.6335893869400024,0.043687254190444946,-3.6556553840637207,-3.735133171081543,10.085360527038574,-1.365960542121527,-2.9017406177509115,2.4610152670075665
2.141348123550415,1.4299054145812988,-0.46535247564315796,0.008161664009094238,-3.586172580718994,-4.021441459655762,10.583396911621094,-1.3274011578754892,2.885760936252401,1.9928523575616715
2.1513421535491943,1.6901313066482544,-0.3676527142524719,0.005576968193054199,-3.3381714820861816,-4.377252578735352,10.896493911743164,-1.2508158261114923,2.551792354411123,1.6893830964636176
2.1614441871643066,1.9856868982315063,-0.1351361870765686,0.09485593438148499,-2.8323171138763428,-4.733068943023682,10.998613357543945,-1.1561459765233202,2.3394151633753806,1.5107928176159613
2.1723990440368652,2.2188949584960938,0.2555176019668579,0.26756125688552856,-2.0074965953826904,-5.423349857330322,11.027228355407715,-1.0554522152437589,2.1849354319875802,1.3950665279396517
2.1813549995422363,2.5399861335754395,0.7652857303619385,0.6341614723205566,-0.8554808497428894,-5.92566442489624,11.085264205932617,-0.9532926219259703,2.057260151557059,1.3111724920137413
2.1916213035583496,2.9028708934783936,1.5239763259887695,0.9053835868835449,0.8466536998748779,-5.980668067932129,11.283960342407227,-0.8513599207246313,1.9381448174892832,1.2360028383838737
2.2014122009277344,2.9162111282348633,2.143925666809082,0.6217446327209473,1.8635679483413696,-5.25264310836792,11.282241821289062,-0.747766999300881,1.8318781614204942,1.166876285881479
2.2116870880126953,2.5505340099334717,2.105144739151001,0.181154265999794,2.289592981338501,-4.086696624755859,10.822364807128906,-0.6442002278105398,1.7472963621778914,1.1083307488071146
2.22202730178833,2.2077794075012207,1.3396084308624268,-0.16047881543636322,1.630919337272644,-2.691756010055542,10.32846450805664,-0.5424569997163794,1.689485803286048,1.065891597075093
2.231971263885498,2.2054123878479004,0.8416726589202881,-0.2396240234375,0.357832670211792,-1.5671898126602173,10.101787567138672,-0.4419533948022465,1.6568254994221805,1.0418426503752247
2.241353988647461,2.344615936279297,0.8466717004776001,-0.12032806128263474,0.1125379428267479,-1.133305311203003,9.578741073608398,-0.3434514677623781,1.6401426163842694,1.0323773858414083
2.2517852783203125,2.424074172973633,1.0212628841400146,0.11511063575744629,-0.4311031401157379,-0.7537490129470825,9.36484432220459,-0.24881347940458826,1.6296503653153296,1.028259766403959
2.2615280151367188,2.3871688842773438,1.3278815746307373,0.32692277431488037,-0.8856692910194397,-0.6385347843170166,8.952325820922852,-0.1567530927943541,1.6229391086874183,1.0295211459422218
2.2734451293945312,2.1398940086364746,1.3164386749267578,0.4296576976776123,-1.406238079071045,-0.5708431601524353,8.330921173095703,-0.06966491946925919,1.6177714500480362,1.0368793270918677
2.281633138656616,1.8629677295684814,1.3838814496994019,0.4509192705154419,-1.4534388780593872,-0.8126541972160339,7.45895528793335,0.010224529165800356,1.6114066218092329,1.0480564654166082
2.2921431064605713,1.4593664407730103,1.541807770729065,0.49275457859039307,-1.3532187938690186,-1.3331525325775146,6.208097457885742,0.07927487819864522,1.6001874474750422,1.0595173343901787
2.30173397064209,1.005012035369873,1.5764036178588867,0.6775988340377808,-1.7624601125717163,-1.7897908687591553,4.829365253448486,0.1348257392712684,1.582852088280211,1.0735791197240339
2.311946153640747,0.5335114002227783,1.5074113607406616,0.8427685499191284,-2.7565762996673584,-1.994795560836792,3.5282912254333496,0.1764469540688937,1.5601377015213855,1.0962031940213657
2.3229312896728516,0.09231889247894287,1.3857901096343994,0.863362729549408,-3.767332077026367,-1.9152743816375732,2.378541946411133,0.2047064713007945,1.533817120926971,1.1303079730708416
2.3316731452941895,-0.24790489673614502,1.2815563678741455,0.7276902794837952,-4.28258752822876,-1.5760726928710938,1.4024561643600464,0.2210819546738844,1.5072120503252713,1.1729463157596816
2.34155011177063,-0.4969298243522644,1.1658594608306885,0.4936036467552185,-4.255520343780518,-1.116470456123352,0.7864180207252502,0.22849644478007047,1.4837277228832322,1.2177356572706481
2.3516480922698975,-0.6640309691429138,1.0937045812606812,0.28187406063079834,-3.91959547996521,-0.6248798370361328,0.31664663553237915,0.22991063030321415,1.4653239257799935,1.2602844137709788
2.3614861965179443,-0.78879314661026,1.1322689056396484,0.15177637338638306,-3.3800923824310303,-0.13056357204914093,-0.03029056079685688,0.22709627978149757,1.4530709324503959,1.2977983314076473
2.371978282928467,-0.8967617154121399,1.190704345703125,0.07186133414506912,-2.634244203567505,0.3362148404121399,-0.177127406001091,0.22226945457441274,1.4473285636442974,1.3284775219301226
2.3815150260925293,-0.9857337474822998,1.1961644887924194,0.03950202465057373,-1.7081410884857178,0.6752479672431946,-0.18666765093803406,0.21768573604813005,1.447687118190673,1.3504308726785372
2.391627311706543,-1.0534040927886963,1.1476919651031494,0.03785843402147293,-0.6619436144828796,0.9155240654945374,-0.13731969892978668,0.21455037385416573,1.453163414318482,1.3623787977172632
2.4017810821533203,-1.1123746633529663,1.0889155864715576,0.04743422567844391,0.4018976390361786,1.0522387027740479,-0.023618170991539955,0.2135515000124046,1.4628596927670594,1.3635615968426706
2.4116063117980957,-1.1596330404281616,1.0498144626617432,0.05241627246141434,1.2937599420547485,1.10526442527771,0.10260314494371414,0.2148080217213969,1.4755695266213416,1.3548335705804844
2.4224371910095215,-1.2008912563323975,1.0231006145477295,0.0674186423420906,1.9308801889419556,1.1495636701583862,0.1886882185935974,0.21768700193672652,1.490394186035752,1.3383168063909299
2.431638240814209,-1.237964391708374,0.9790182113647461,0.07404959946870804,2.3290388584136963,1.2004189491271973,0.293325811624527,0.2215801815445664,1.5068913608400014,1.316561407333645
2.4417850971221924,-1.2292205095291138,0.9395643472671509,0.06468814611434937,2.547106981277466,1.2955411672592163,0.4425027668476105,0.22654682991870553,1.5249091632560245,1.2917089851780283
2.451641082763672,-1.1468161344528198,0.9025182127952576,0.029506325721740723,2.729358434677124,1.3636153936386108,0.7373467087745667,0.23327200845439147,1.54438662035197,1.2647951678743539
2.4619970321655273,-0.978868842124939,0.8960812091827393,-0.02880072593688965,2.905275583267212,1.4056206941604614,1.135932445526123,0.24308808885969488,1.5650502386812677,1.2359553643667225
2.4721412658691406,-0.738484799861908,0.9916608929634094,-0.09889328479766846,3.232055187225342,1.3912297487258911,1.5134049654006958,0.2562197325312078,1.5869190906110775,1.2042869176899482
2.481924057006836,-0.45920610427856445,1.1649816036224365,-0.1794881820678711,3.7136573791503906,1.3577243089675903,1.9078584909439087,0.2723396725739919,1.6102381933768573,1.1679501835091612
2.491767168045044,-0.13200658559799194,1.4128196239471436,-0.22902798652648926,4.4038591384887695,1.1776537895202637,2.289515256881714,0.29124844454755205,1.6351262134464641,1.1246009154750933
2.5019402503967285,0.2830064296722412,1.7043018341064453,-0.2227497100830078,4.85867977142334,0.8210911750793457,2.2840118408203125,0.3108784066868758,1.6602847318408047,1.0739383490151453
2.51183819770813,0.8438634872436523,1.9765934944152832,-0.14736342430114746,4.719460487365723,0.02661866880953312,1.6657140254974365,0.3260761195473733,1.6815141079158593,1.0212107669822739
2.522189140319824,1.671592354774475,2.0281760692596436,0.0848541259765625,4.548421382904053,-1.5545666217803955,0.2398972362279892,0.33079163390655236,1.6903558162376549,0.9712479835135266
2.5318570137023926,2.492258071899414,1.5139048099517822,0.5877224206924438,2.6815905570983887,-3.161745548248291,-1.5477474927902222,0.3195152868453481,1.6792720679848716,0.9319228005559014
2.5419301986694336,2.5459139347076416,0.72412109375,1.3095097541809082,-1.6005821228027344,-3.9672915935516357,-2.982454776763916,0.2961496889322596,1.6440392643581123,0.9277678354813567
2.551730155944824,2.177549123764038,0.20882323384284973,2.0326478481292725,-6.355724334716797,-3.762050151824951,-4.385175704956055,0.2610646067227194,1.5934373340651962,0.9707450752420617
2.561803102493286,1.6722111701965332,-0.17767031490802765,2.291956663131714,-10.74852180480957,-3.1584885120391846,-5.409757614135742,0.210976367193451,1.5377916377975336,1.0593033630782933
2.5718531608581543,1.298383355140686,0.19005972146987915,2.0525076389312744,-12.858400344848633,-1.920853853225708,-6.04758358001709,0.14673201379763146,1.4903612704063474,1.1779365381191842
2.581757068634033,1.3419914245605469,0.9666472673416138,1.3530519008636475,-11.77218246459961,0.048737287521362305,-6.807565689086914,0.07087844547663899,1.4681310848549436,1.2965745651277463
2.59187912940979,1.4423224925994873,1.471050500869751,0.22514599561691284,-9.755967140197754,1.8196934461593628,-7.245112419128418,-0.01048640827768648,1.4745248915621412,1.3969480348444963
2.6019601821899414,1.3972115516662598,1.6711431741714478,-0.4117734432220459,-7.8595757484436035,3.752092123031616,-6.825229644775391,-0.08843237312716933,1.5063367102548584,1.4787229763243717
2.6119842529296875,1.6265214681625366,1.271668791770935,-0.6553070545196533,-6.226071834564209,5.738031387329102,-6.465476036071777,-0.157432181327705,1.5624875120469224,1.5475351600335943
2.622352123260498,1.6981313228607178,0.6892361640930176,-0.5798109769821167,-3.6907854080200195,6.8785858154296875,-6.276110649108887,-0.2201769565840227,1.636649183973468,1.6005921500773121
2.631978988647461,1.5640685558319092,0.71579909324646,-0.34508180618286133,-0.5051082372665405,7.07103967666626,-5.947820663452148,-0.27981173885039606,1.7143544827516586,1.6290935039413308
2.6420671939849854,1.7524011135101318,1.1711527109146118,-0.17465993762016296,2.4496335983276367,6.828278541564941,-5.990659236907959,-0.34051677989891815,1.78459354147207,1.6297530182484994
2.651994228363037,1.8110822439193726,1.2928922176361084,-0.0606519877910614,4.589350700378418,6.3153181076049805,-6.404375076293945,-0.40954671823213185,1.8427472374736724,1.6085902105681844
2.661940097808838,1.8635435104370117,1.0849220752716064,0.09272763133049011,5.936118125915527,5.763274669647217,-6.765635967254639,-0.4882127165248329,1.8879587638040367,1.5734553322646878
2.6718971729278564,2.035855770111084,0.8611260056495667,0.12120074033737183,6.624746799468994,5.331810474395752,-7.132569789886475,-0.574754211869311,1.9219101549340964,1.5308188187964495
2.6820311546325684,1.9996089935302734,0.6275144219398499,-0.01361227035522461,6.948061943054199,4.91602087020874,-7.555481910705566,-0.6677491884763415,1.9463961304530448,1.4846443122972866
2.6918821334838867,1.890787124633789,0.34503859281539917,-0.16296592354774475,6.775635242462158,4.491223335266113,-8.196412086486816,-0.766639454893419,1.9634198623062606,1.4388945605881647
2.701949119567871,1.8325358629226685,0.027737200260162354,-0.22506430745124817,5.9781174659729,4.19807243347168,-8.801016807556152,-0.8702165111506479,1.9792528894420334,1.4009907037777998
2.7122411727905273,1.7659244537353516,-0.26371192932128906,-0.24111279845237732,4.731405735015869,4.0615410804748535,-9.134116172790527,-0.9742761625796551,2.0045667991228613,1.3808480010027844
2.722407102584839,1.7534632682800293,-0.4520239233970642,-0.2301584780216217,3.6020190715789795,3.9344489574432373,-9.229823112487793,-1.075192950944092,2.050132865952932,1.3870903018619694
2.731943130493164,1.850566029548645,-0.6112468838691711,-0.17697712779045105,2.8007164001464844,3.57804012298584,-9.27176570892334,-1.1715821066823755,2.125994300812326,1.429070865222627
2.7422730922698975,1.9922646284103394,-0.7189843058586121,-0.007064104080200195,2.3013346195220947,2.981015920639038,-9.292291641235352,-1.2620608334576937,2.24857274006999,1.5246733788303017
2.7521610260009766,2.155573844909668,-0.7863931059837341,0.17151987552642822,2.1803762912750244,2.3547110557556152,-9.30105209350586,-1.3441580938401234,2.457779518115808,1.713596439914928
2.762129306793213,2.337617874145508,-0.9024792313575745,0.22549651563167572,2.4130966663360596,1.6693412065505981,-9.257610321044922,-1.409171568553682,2.8424605055631096,2.084728165104507
2.7719271183013916,2.5047011375427246,-1.0493003129959106,0.28817129135131836,2.680177927017212,1.002389907836914,-9.330158233642578,-1.4337971087784724,-2.794440767802856,2.724318278875037
2.78206205368042,2.590620517730713,-1.286221981048584,0.36239027976989746,2.7704944610595703,0.4566211402416229,-9.352014541625977,-1.3975409616418388,-2.1946094278036035,-2.9595819254414057
2.7921342849731445,2.6408300399780273,-1.627178430557251,0.4452476501464844,2.6309831142425537,-0.0003515179269015789,-9.246407508850098,-1.3255986236996329,-1.8793547710944096,-2.6399080620228816
2.8022561073303223,2.685939073562622,-2.02976393699646,0.5025759935379028,2.2759735584259033,-0.3165324032306671,-9.007251739501953,-1.2419653250650853,-1.7277998533707548,-2.480275498056685
2.812120199203491,2.671412706375122,-2.4188108444213867,0.5074832439422607,1.684233546257019,-0.400569885969162,-8.512794494628906,-1.15701423673772,-1.653340118066258,-2.3966235450645947
2.822047233581543,2.5839569568634033,-2.6700007915496826,0.40927064418792725,0.842995285987854,-0.5452713966369629,-7.762993335723877,-1.076328593286064,-1.6207527977607958,-2.3552189288809604
2.8320412635803223,2.446551561355591,-2.775052070617676,0.27313661575317383,-0.05385509505867958,-0.6735444068908691,-6.719793319702148,-1.00388571883087,-1.614445527769433,-2.3407680447904857
2.8421051502227783,2.235279083251953,-2.8144145011901855,0.14139318466186523,-0.736457884311676,-0.6276177167892456,-5.3344621658325195,-0.9430420721402062,-1.622745196581359,-2.3428978780285155
2.8521111011505127,1.915786862373352,-2.7834644317626953,-0.04335212707519531,-1.1703046560287476,-0.5960261821746826,-3.509166717529297,-0.8981128500867049,-1.6381709232646682,-2.354638897726382
2.8620920181274414,1.5635061264038086,-2.6389453411102295,-0.23644638061523438,-1.0493395328521729,-0.633941113948822,-1.4694032669067383,-0.8722478087104693,-1.65595372408739,-2.3697278216332203
2.8721389770507812,1.2179880142211914,-2.6292004585266113,-0.47263407707214355,-0.5130628347396851,-0.8735733032226562,0.8151010274887085,-0.8681144487880365,-1.6722260126977049,-2.381471455700192
2.882284164428711,0.9699493646621704,-2.6017189025878906,-0.5798283815383911,-0.12127429991960526,-1.347333550453186,3.090378761291504,-0.8874362756062599,-1.689457843845351,-2.389513592204371
2.892322063446045,0.8385481238365173,-2.2693378925323486,-0.40143144130706787,0.046178292483091354,-1.9085701704025269,5.019115447998047,-0.9279448808728165,-1.7129795609929952,-2.3986176547959563
2.9023542404174805,0.7891258597373962,-1.8808338642120361,-0.1464756578207016,-0.018389778211712837,-2.3003580570220947,6.1958417892456055,-0.9838424578202659,-1.7461342853591175,-2.4135293945957557
2.9123592376708984,0.8067320585250854,-1.6643400192260742,0.0705716609954834,-0.06681408733129501,-3.0791144371032715,7.248349189758301,-1.049563107606087,-1.7949869865169847,-2.4396118937066475
2.9229249954223633,0.9207342863082886,-1.4780833721160889,0.27706754207611084,-0.08486925065517426,-3.814389228820801,8.38393497467041,-1.125129836193719,-1.869710320892804,-2.484658859856152
2.932319164276123,1.028594970703125,-1.1532374620437622,0.3631924092769623,-0.5493752956390381,-4.152607440948486,9.1469144821167,-1.2065593527990313,-1.987661656046232,-2.5694585874037177
2.942343235015869,1.0625948905944824,-0.8123916387557983,0.2887301445007324,-1.1635111570358276,-4.273045063018799,9.756095886230469,-1.284849556128318,-2.1922623652893667,-2.7402454671474255
2.952406167984009,1.2364542484283447,-0.5871589779853821,0.15628206729888916,-1.8602970838546753,-4.288905620574951,10.349222183227539,-1.344769594616858,-2.5529110164934834,-3.0682797581729084
2.9627931118011475,1.560051679611206,-0.39634180068969727,-0.03418612480163574,-2.5189127922058105,-3.809162139892578,10.6405029296875,-1.3579191837371236,-3.0784609220802173,2.718902157368436
2.9728221893310547,1.8673322200775146,-0.11548018455505371,-0.2017468810081482,-3.025829315185547,-3.3498499393463135,10.742207527160645,-1.31179514818898,2.74571655670337,2.283972009073992
2.982429027557373,1.9256415367126465,0.05540001392364502,-0.32856452465057373,-3.798255205154419,-3.139477014541626,10.865571975708008,-1.226473219672016,2.4692551746334486,2.0287418330265483
2.9924283027648926,2.064720869064331,0.4197058081626892,-0.057692497968673706,-3.668610095977783,-3.2756476402282715,10.84460735321045,-1.1239099539831072,2.309827091672839,1.8906356752938691
3.002474308013916,2.303121566772461,0.7592964768409729,0.2846141457557678,-2.484571933746338,-3.9166691303253174,10.528514862060547,-1.0213136478491527,2.1933134364644222,1.799212913822401
3.012493133544922,2.392976760864258,0.8129211068153381,0.4025300443172455,-1.7342875003814697,-4.291042804718018,10.028027534484863,-0.9241382108602596,2.0938786139962224,1.7296861658496752
3.0229172706604004,2.425689697265625,1.0015897750854492,0.46144339442253113,-1.0046242475509644,-4.432734966278076,10.02493667602539,-0.8276683624127176,2.0081343853629767,1.6758618213353287
3.032445192337036,2.4211511611938477,1.362103819847107,0.4182358384132385,-1.8893120288848877,-4.057433128356934,9.76163101196289,-0.7308847837453324,1.9399114077679647,1.6395867596962832
3.042471170425415,2.270470142364502,1.3211212158203125,0.5110187530517578,-3.3628616333007812,-3.682835102081299,9.495075225830078,-0.6323777462047033,1.8929488754260313,1.6284393336040222
3.0524771213531494,1.8877172470092773,0.8596197962760925,0.5572772026062012,-3.583958625793457,-3.9246299266815186,8.858057022094727,-0.5338123004144938,1.8597306832323148,1.6365196870133731
3.0625510215759277,1.7950623035430908,0.9906145930290222,0.5277867317199707,-3.986968994140625,-3.396003246307373,8.58288860321045,-0.439590463027779,1.8255088649203546,1.647507211983748
3.0729622840881348,1.8344109058380127,1.3067539930343628,0.5471929311752319,-4.002763748168945,-3.6581709384918213,8.352962493896484,-0.3477011583192176,1.7992716269753073,1.6689563707587145
3.082612991333008,1.6953377723693848,0.768308162689209,0.6157969236373901,-3.677661657333374,-3.508166790008545,7.897071838378906,-0.2597492891694278,1.7700540073973376,1.6913476499624562
3.0928330421447754,1.3459060192108154,1.1650882959365845,0.6989561319351196,-0.12618155777454376,-4.797375202178955,7.0178751945495605,-0.18203034058129566,1.734768143778122,1.7010847885589404
3.1026792526245117,1.2306239604949951,1.4158788919448853,0.5977598428726196,1.7515931129455566,-2.962693691253662,6.97239351272583,-0.11423080551108891,1.68765476404731,1.6794765552170294
3.1126601696014404,0.9000693559646606,1.7241058349609375,0.21349716186523438,0.15072308480739594,-2.59790301322937,7.906238555908203,-0.04127144071134258,1.6626670859594785,1.6671886000459761
3.1227781772613525,0.8346023559570312,1.4726488590240479,0.19825565814971924,0.8963993787765503,-1.874766230583191,7.092716217041016,0.034377490293734984,1.6395575664405515,1.6529758210278553
3.1325950622558594,0.4065142273902893,1.2906346321105957,0.509042501449585,1.5803008079528809,-1.7507423162460327,6.276764869689941,0.10034278275658066,1.623244682253026,1.6385339932161762
3.1429452896118164,0.07484334707260132,1.679462194442749,0.5057961940765381,2.941903829574585,-1.7325457334518433,5.491702556610107,0.1584571399696153,1.6088670347653098,1.6119197338075348
3.1526312828063965,-0.09063255786895752,1.9948782920837402,0.5123904943466187,2.8157405853271484,-1.1768361330032349,4.376015663146973,0.20653349716089395,1.5995483140603468,1.5796588549860198
3.1626291275024414,-0.4094897508621216,1.775068998336792,0.4992356300354004,0.9399237036705017,-0.5958041548728943,3.362680673599243,0.24507489933388335,1.5955104130716797,1.559381983934325
3.1729931831359863,-0.6378229856491089,1.215527057647705,0.5686577558517456,-0.7584463953971863,-0.08942924439907074,2.386888027191162,0.2736792972724987,1.592295933001501,1.5583070165446606
3.1826720237731934,-0.8035019636154175,1.186739444732666,0.5019494295120239,-1.1431431770324707,0.1405232697725296,1.419673204421997,0.2930746074330521,1.5897363377191034,1.5687690225196813
3.192629098892212,-0.8501419425010681,1.533412218093872,0.2681403160095215,-0.8202322721481323,0.2522473931312561,0.5453835129737854,0.3029321886724756,1.5886571702214694,1.5789978454237046
3.2029972076416016,-0.815895676612854,1.6247106790542603,0.1163942813873291,-0.6414496898651123,0.50770103931427,0.03243684396147728,0.3056084730061537,1.5902217135884322,1.586305061416801
3.214405059814453,-0.7731330394744873,1.434715986251831,0.05141723155975342,-0.6155558824539185,0.7918115258216858,-0.24605290591716766,0.3045608075522901,1.5947322554102794,1.5930402738038236
3.2232611179351807,-0.7771388292312622,1.2599928379058838,0.04281008243560791,-0.3017093241214752,1.0100607872009277,-0.35217025876045227,0.3015127080595644,1.6022719484275696,1.5981858011886505
3.2328901290893555,-0.7598663568496704,1.2919672727584839,-0.005392435938119888,0.3780616223812103,1.1014657020568848,-0.36608555912971497,0.29786301795131925,1.612922165349838,1.5981399988702085
3.2429051399230957,-0.6679567694664001,1.3841230869293213,-0.0858016088604927,1.1425875425338745,1.0967998504638672,-0.27923163771629333,0.2942341802297921,1.626231707172771,1.590263329038663
3.2527952194213867,-0.5407991409301758,1.373861312866211,-0.12759995460510254,1.708238959312439,1.0928733348846436,-0.1537087857723236,0.29111822341318694,1.6414589261906674,1.5753835988137184
3.2628092765808105,-0.3950777053833008,1.3125044107437134,-0.1363598108291626,2.0702438354492188,1.063836932182312,0.03327067941427231,0.28899903091184037,1.6579432160418384,1.5556856090321867
3.2746829986572266,-0.2024543285369873,1.2875088453292847,-0.1390594244003296,2.4069297313690186,0.9370049238204956,0.20625731348991394,0.2880582201736377,1.6746726050401308,1.53229596601101
3.2830100059509277,0.0584871768951416,1.3426541090011597,-0.13016724586486816,2.6757094860076904,0.6725947856903076,0.20807573199272156,0.28738988846424807,1.6904270703384587,1.5055609097694056
3.2929651737213135,0.38100337982177734,1.4086933135986328,-0.055949121713638306,2.706051826477051,0.21849587559700012,-0.073415607213974,0.284812244701651,1.702933146995004,1.4774422324785896
3.3030221462249756,0.7482441067695618,1.3395942449569702,0.11967825889587402,2.344905138015747,-0.453163206577301,-0.5195297002792358,0.27848265654257165,1.7091458080427624,1.4513789829565595
3.3129851818084717,1.106918454170227,1.1106464862823486,0.40898239612579346,1.4004576206207275,-1.2863314151763916,-1.2576789855957031,0.2671801550878839,1.7055151989153672,1.432991258884204
3.3230371475219727,1.3497321605682373,0.8232626914978027,0.7844589948654175,-0.18808652460575104,-2.194661855697632,-2.0473077297210693,0.24988163099725175,1.6893357471180355,1.4283315397506844
3.3328402042388916,1.4140604734420776,0.5722249150276184,1.1148656606674194,-2.3466827869415283,-2.656005859375,-2.9216225147247314,0.22642217503793563,1.661083084166029,1.4438375378892905
3.342987060546875,1.350172758102417,0.42021700739860535,1.2262393236160278,-4.494332313537598,-2.68703556060791,-3.633389472961426,0.19600586796954697,1.626318430837337,1.4813104609903833
3.352816104888916,1.226452112197876,0.40616387128829956,1.1149075031280518,-6.172002792358398,-2.4669413566589355,-4.251069068908691,0.15847441441218488,1.5904906241846533,1.5375099142704172
3.3630261421203613,1.177365779876709,0.5864318013191223,0.9620975852012634,-6.873336315155029,-1.8680163621902466,-4.7655029296875,0.11337755436348089,1.5596003251235282,1.6041646047010167
3.373380184173584,1.2251290082931519,0.7676724195480347,0.6824764013290405,-6.894175052642822,-1.1133975982666016,-5.1971516609191895,0.061962669170930046,1.5384140338531451,1.6726482372949494
3.38291597366333,1.3075816631317139,0.8785116076469421,0.3752599358558655,-6.231858730316162,-0.13479432463645935,-5.5502028465271,0.005464853844442645,1.5299361728003231,1.736604698132401
3.392944097518921,1.3560397624969482,0.8359710574150085,0.10971099138259888,-5.315544605255127,0.9954703450202942,-5.710043430328369,-0.053168299681529564,1.5354758711005692,1.7923059986221441
3.4029412269592285,1.3743517398834229,0.7262610793113708,-0.09588730335235596,-4.165805339813232,2.1361958980560303,-5.890735626220703,-0.11266110194081795,1.5550722269790296,1.8386327289245223
3.412907123565674,1.3568254709243774,0.5784765481948853,-0.22671842575073242,-2.706737756729126,3.117144823074341,-5.947299957275391,-0.17217439130864795,1.5864741676824496,1.873592037553504
3.425089120864868,1.3420413732528687,0.5295582413673401,-0.30757832527160645,-0.9187819361686707,3.8432345390319824,-5.933781147003174,-0.23114625295079325,1.625680314573502,1.8943324766781493
3.433197021484375,1.354020357131958,0.6151231527328491,-0.34676551818847656,0.8103012442588806,4.234531879425049,-5.984086036682129,-0.2908618884973706,1.6676715359167513,1.8993493072866294
3.44307017326355,1.3698880672454834,0.6688923239707947,-0.3138463497161865,2.106323480606079,4.51174259185791,-6.128600597381592,-0.35367871043912086,1.7094032479048993,1.8914461044814135
3.452989101409912,1.4004402160644531,0.6173107624053955,-0.23007012903690338,3.020711660385132,4.585728645324707,-6.291378021240234,-0.41973147670216593,1.7489867684574847,1.8745957949133938
3.4633121490478516,1.4456965923309326,0.48837974667549133,-0.14236117899417877,3.6999690532684326,4.453402519226074,-6.494434833526611,-0.4892150493180746,1.7842555302198178,1.851548428070734
3.473276138305664,1.4779441356658936,0.35704904794692993,-0.0692528784275055,4.0571160316467285,4.291460037231445,-6.8177947998046875,-0.5630574429466888,1.8148725713854643,1.825199532292993
3.4831202030181885,1.450581669807434,0.22306746244430542,-0.05095481872558594,4.256040096282959,4.08322811126709,-7.133063316345215,-0.641337113684595,1.8413359405017609,1.7978206475587102
3.493056297302246,1.4278719425201416,0.06249511241912842,-0.07124248147010803,4.378263473510742,3.8518614768981934,-7.4217071533203125,-0.7234532090932911,1.8638942291854321,1.77048984245911
3.5030901432037354,1.4320268630981445,-0.08725327253341675,-0.10844942927360535,4.493608474731445,3.5611660480499268,-7.6717610359191895,-0.808901893162255,1.8818822950031446,1.7428304206666119
3.513007164001465,1.417238473892212,-0.19955837726593018,-0.149043470621109,4.501726150512695,3.2686259746551514,-7.918206691741943,-0.8971855132092796,1.8950399382499878,1.714926802155982
3.5236892700195312,1.4176557064056396,-0.2607157826423645,-0.16889476776123047,4.568638801574707,2.9443185329437256,-8.121603012084961,-0.9879030134676146,1.9028260705604088,1.6860097876238953
3.532989025115967,1.4747357368469238,-0.38098037242889404,-0.14929485321044922,4.663146495819092,2.512073040008545,-8.276777267456055,-1.0806461247526682,1.9017193881847487,1.6529101076513915
3.5431060791015625,1.551754117012024,-0.5469499826431274,-0.068666473031044,4.7606072425842285,2.0353221893310547,-8.392671585083008,-1.1748618552593069,1.8861055283305306,1.6104144466410224
3.5530312061309814,1.629972219467163,-0.6874930262565613,0.00970923900604248,4.793788433074951,1.540589451789856,-8.46534538269043,-1.269642715729289,1.8455818481058832,1.5483288095450918
3.5630741119384766,1.7346099615097046,-0.8095089197158813,0.0904155969619751,4.667700290679932,1.0234837532043457,-8.482999801635742,-1.363281160764296,1.7547280508307264,1.441241888001315
3.5732040405273438,1.8467450141906738,-0.9210270643234253,0.20592576265335083,4.339333534240723,0.4181533753871918,-8.423478126525879,-1.4515279901812457,1.522361811381931,1.1986483903840852
3.583104133605957,1.9672585725784302,-1.0388014316558838,0.3694598078727722,3.8448429107666016,-0.11983498930931091,-8.320146560668945,-1.512297898856781,0.6493093579651726,0.32141385012707424
3.593351125717163,2.074748992919922,-1.1736273765563965,0.5249305963516235,3.1740283966064453,-0.5959869623184204,-8.217179298400879,-1.476175762788075,-0.5272961732406285,-0.8541251614973772
3.603328227996826,2.1249232292175293,-1.301511526107788,0.6548808217048645,2.533588409423828,-0.9813210964202881,-8.061781883239746,-1.40084861369258,-0.8685986995448021,-1.1901711163258857
3.613218307495117,2.1464505195617676,-1.4385535717010498,0.7365894913673401,1.9800491333007812,-1.2865818738937378,-7.887280464172363,-1.3228039301413854,-1.0159066511878259,-1.3289998733155475
3.6234982013702393,2.1270134449005127,-1.5835063457489014,0.7562088370323181,1.54499089717865,-1.4899277687072754,-7.631145000457764,-1.2462480329645185,-1.1066172784509691,-1.4089324445073903
3.6332430839538574,2.034813165664673,-1.700931191444397,0.7062351107597351,1.1842807531356812,-1.5849968194961548,-7.2558722496032715,-1.1727045963945721,-1.171635593963966,-1.461966954988684
3.643311023712158,1.8937795162200928,-1.7660505771636963,0.6021955609321594,1.067505121231079,-1.7634015083312988,-6.692553520202637,-1.1035692005359585,-1.2212024740977954,-1.4981879573583279
3.653280258178711,1.7153971195220947,-1.796584129333496,0.4628455638885498,1.0758702754974365,-1.951507329940796,-6.093670845031738,-1.039530409599448,-1.2594861379140272,-1.5205183265518645
3.663281202316284,1.4524954557418823,-1.8142998218536377,0.3181164860725403,1.181127667427063,-2.0442516803741455,-5.34188175201416,-0.9813845318381363,-1.289095477215188,-1.5317598336785783
3.6743550300598145,1.1394691467285156,-1.8344171047210693,0.16024470329284668,1.1213515996932983,-1.911353349685669,-4.332483768463135,-0.9313132711880151,-1.3115052493838557,-1.5347227382820454
3.6832001209259033,0.7869278788566589,-1.8253633975982666,-0.00544506311416626,0.7154302000999451,-1.5857611894607544,-2.600367546081543,-0.8948597164139458,-1.3286602819502915,-1.5341746289407105
3.6933321952819824,0.4653385281562805,-1.681046485900879,-0.07946211099624634,0.008510926738381386,-1.2043496370315552,-0.3613665997982025,-0.879447695585613,-1.3424307452879454,-1.5339322339967036
3.703357219696045,0.25865745544433594,-1.4023162126541138,-0.030573412775993347,-0.6886032223701477,-0.8699698448181152,1.7586685419082642,-0.8872657660819909,-1.3551222515082146,-1.5369335930582122
3.713341236114502,0.12811791896820068,-1.2396210432052612,0.11291933804750443,-1.0302858352661133,-0.68890380859375,3.529832363128662,-0.915210985245383,-1.3667345106195385,-1.5420038900400501
3.7235302925109863,0.05504685640335083,-1.3570680618286133,0.2594412565231323,-1.0870074033737183,-0.7274453639984131,5.052073955535889,-0.9595820852390994,-1.3762995496703134,-1.5451809254471032
3.733351230621338,0.04205799102783203,-1.4747729301452637,0.3615022897720337,-1.2659846544265747,-0.8099940419197083,6.222626209259033,-1.0174970169200694,-1.3851619910719737,-1.5465549933816445
3.7434182167053223,0.07879829406738281,-1.349317193031311,0.416537344455719,-1.4500007629394531,-0.7563326954841614,6.957641124725342,-1.0851683916556316,-1.395887966681523,-1.5496282159346344
3.753390312194824,0.1841432750225067,-1.2018314599990845,0.40377968549728394,-1.8357294797897339,-0.8671112060546875,7.3373565673828125,-1.1583459082574963,-1.4127344169457854,-1.5598084342821905
3.7633981704711914,0.3756832480430603,-1.1422460079193115,0.4009142518043518,-2.1392745971679688,-1.3256827592849731,7.995741367340088,-1.237208954344762,-1.4463160150581977,-1.5841487999543133
3.7752201557159424,0.6263545155525208,-0.9862979054450989,0.449476957321167,-2.3956961631774902,-1.9018930196762085,8.40293025970459,-1.321190308917352,-1.5128902134306101,-1.6368512259978205
3.7835183143615723,0.774146556854248,-0.8026962876319885,0.4511064291000366,-2.4332070350646973,-2.4267101287841797,8.66032600402832,-1.406503904104797,-1.6564799579007186,-1.7610643603202565
3.793504238128662,0.8368732929229736,-0.6575286984443665,0.3281402587890625,-2.2125084400177,-2.5558228492736816,8.83938217163086,-1.4853330916897307,-2.061044144497393,-2.1430040322185655
3.803556203842163,0.8570250272750854,-0.5771340131759644,0.07788336277008057,-2.1765639781951904,-2.5119946002960205,8.910749435424805,-1.5063766143880852,2.909363940397302,2.8501496421839954
3.8135011196136475,0.8748465776443481,-0.5357107520103455,-0.1208256408572197,-2.4351675510406494,-2.347295045852661,9.042998313903809,-1.4353038399866516,2.2416731523278046,2.2042563969224083
3.823544979095459,0.9570040702819824,-0.4371301531791687,-0.19429028034210205,-2.8900833129882812,-2.2911832332611084,9.332871437072754,-1.343324081108874,2.0637466860025957,2.047057801495804
3.8334221839904785,1.0964034795761108,-0.015041053295135498,-0.1277763694524765,-2.8712854385375977,-2.2446510791778564,9.180201530456543,-1.2470172482097155,1.9896402028104754,1.993709265970658
3.8434982299804688,1.116369605064392,0.35413670539855957,-0.06658194959163666,-2.149663209915161,-2.4037468433380127,9.037492752075195,-1.153089145149107,1.9370353193424885,1.9621155537458868
3.8535733222961426,0.9855896234512329,0.3774905800819397,-0.14277160167694092,-1.4488824605941772,-2.5311899185180664,8.814659118652344,-1.0626936220707734,1.8860374619122238,1.9329112675618534
3.8635361194610596,0.8517237901687622,0.26758134365081787,-0.15550565719604492,-0.8013373017311096,-2.427173614501953,8.444870948791504,-0.9767021989002368,1.8383184390932898,1.9061673111264696
3.873445987701416,0.7812017202377319,0.13811850547790527,-0.2010500580072403,-0.22094672918319702,-2.245220184326172,8.173789978027344,-0.8947677872976725,1.7940543381501528,1.880301558638961
3.8834142684936523,0.7534894943237305,0.08983922004699707,-0.25409746170043945,0.21262413263320923,-1.9168845415115356,7.875561237335205,-0.8160702308230452,1.7544075657944003,1.8554998377236336
3.893418312072754,0.7137627601623535,0.09561079740524292,-0.26989102363586426,0.37958356738090515,-1.5437551736831665,7.624258518218994,-0.7400811013334311,1.7212743395345655,1.8329759467829496
3.9034643173217773,0.6642699837684631,0.11347216367721558,-0.2533893585205078,0.25126394629478455,-1.1532214879989624,7.379130840301514,-0.6661621499455953,1.6962530595815002,1.815202401573349
3.913344144821167,0.6454988121986389,0.14971905946731567,-0.19835638999938965,0.033972110599279404,-0.8499955534934998,7.274870872497559,-0.5935361109906601,1.6789916169659176,1.802846867598611
3.923527240753174,0.6362547874450684,0.17893719673156738,-0.12676382064819336,-0.20667192339897156,-0.6297532320022583,7.191737174987793,-0.5213655472072314,1.6674929496123243,1.7951295115441985
3.9335451126098633,0.5863038897514343,0.22355982661247253,-0.04403532296419144,-0.4115980863571167,-0.44660428166389465,7.093202114105225,-0.44984538106946975,1.6602796422641157,1.7911902870559169
3.943361282348633,0.5202504992485046,0.2769584655761719,0.017292141914367676,-0.49308785796165466,-0.3456933796405792,6.955752849578857,-0.37933634768794494,1.655687921900079,1.7895285307847668
3.953402042388916,0.4642298221588135,0.33659064769744873,0.0529782697558403,-0.40096861124038696,-0.28768494725227356,6.794275760650635,-0.3103343563718857,1.652113199120598,1.7883288800558967
3.963430166244507,0.4038395285606384,0.41189467906951904,0.061937928199768066,-0.14194688200950623,-0.24511562287807465,6.599242687225342,-0.24322141004662653,1.648741512921233,1.785689701611778
3.9735260009765625,0.3470681309700012,0.5076172947883606,0.04198981076478958,0.24961501359939575,-0.21155714988708496,6.385301113128662,-0.17843231052086525,1.6453071619677597,1.7801626105200234
3.983384132385254,0.2927882671356201,0.617431640625,-0.00010836124420166016,0.7185990214347839,-0.19281461834907532,6.146501541137695,-0.11615139308175398,1.6419240488630196,1.770682085641733
3.993448257446289,0.237845778465271,0.7510368227958679,-0.03995584696531296,1.189385175704956,-0.22904053330421448,5.788110733032227,-0.05709958247393712,1.6386706780327773,1.7569315906624283
4.003503322601318,0.18423867225646973,0.8658224940299988,-0.02505100518465042,1.6176340579986572,-0.3110171854496002,5.27199649810791,-0.0026924499318342846,1.635474153468714,1.7391930353490435
4.01354718208313,0.13163501024246216,0.9074832797050476,0.03208469972014427,1.9358686208724976,-0.41970109939575195,4.6790242195129395,0.04594251944552936,1.6322753725442107,1.7181925201890145
4.023844242095947,0.09132581949234009,0.8723453283309937,0.11810922622680664,2.0911214351654053,-0.4960006773471832,3.9732086658477783,0.0880506022205851,1.6291854773787582,1.6952909918998917
4.033660173416138,0.07768696546554565,0.7601402401924133,0.2304680347442627,2.069425582885742,-0.5412889719009399,3.224201202392578,0.12282996467709165,1.6264051227277145,1.6722210708799283
4.0436460971832275,0.10664939880371094,0.5884028673171997,0.3475770950317383,1.8720874786376953,-0.5517951846122742,2.5432534217834473,0.15054014407604158,1.6238532146053162,1.6506178361034098
4.053664207458496,0.18790960311889648,0.43151116371154785,0.44497251510620117,1.5246434211730957,-0.5175215601921082,1.8916083574295044,0.1718269698860397,1.6214335301753806,1.6322066347558337
4.063685178756714,0.31852781772613525,0.303819477558136,0.5105410814285278,1.093060851097107,-0.5302943587303162,1.2697932720184326,0.18695636532287144,1.6187569253525167,1.6180603847494073
4.073811054229736,0.4904480576515198,0.21608568727970123,0.5444928407669067,0.6269564032554626,-0.5914670825004578,0.6784400939941406,0.1962866990895064,1.614918246420228,1.6088133806574683
4.083677291870117,0.650205671787262,0.1774103343486786,0.5522857904434204,0.12648265063762665,-0.5823827385902405,0.15927575528621674,0.20021455809794553,1.6097526087454042,1.6047854023127825
4.0938591957092285,0.7411853075027466,0.1619124412536621,0.528301477432251,-0.35239288210868835,-0.5365930795669556,-0.27199816703796387,0.19967475034024298,1.6039039973567235,1.6059880505861053
4.103763103485107,0.7775787115097046,0.1556406170129776,0.49604344367980957,-0.7650464773178101,-0.45682206749916077,-0.6503766179084778,0.19516157419783178,1.5977128636839035,1.6118943541523516
4.113710165023804,0.7880562543869019,0.1447923481464386,0.462185263633728,-1.0329005718231201,-0.3123823404312134,-0.955421507358551,0.1873290324637923,1.5920317608575867,1.6213367363379314
4.123826026916504,0.7862730026245117,0.12512485682964325,0.39727842807769775,-1.2343626022338867,-0.14508335292339325,-1.2183411121368408,0.17657827368696855,1.5876294088719842,1.6330951411214238
4.1337761878967285,0.7385884523391724,0.08527977764606476,0.31615138053894043,-1.3941227197647095,0.03452421724796295,-1.3347904682159424,0.16395534338001033,1.584711895881402,1.6466533476775083
4.143723011016846,0.6405163407325745,0.08353152871131897,0.24005985260009766,-1.5361645221710205,0.37028437852859497,-1.3721181154251099,0.1505208606856876,1.5842614790276823,1.661722512191505
4.153713226318359,0.52155601978302,0.08681289851665497,0.13276410102844238,-1.67362380027771,0.7709420919418335,-1.3217027187347412,0.13726194183843682,1.587713105442623,1.67817491209345
4.1638171672821045,0.4396206736564636,0.05120445787906647,0.07140398025512695,-1.744364619255066,1.0178078413009644,-1.2542203664779663,0.12469334640662597,1.5944267564540178,1.6957628003597116
4.1739091873168945,0.404191255569458,0.025251463055610657,0.08067309856414795,-1.7242447137832642,1.192461371421814,-1.169001817703247,0.11306249552494946,1.6034203156390887,1.7136554783777096
4.183793067932129,0.3574259281158447,0.01809723675251007,0.10753035545349121,-1.5904226303100586,1.2800053358078003,-1.0817384719848633,0.10241324298926267,1.6140186416267144,1.7308462517966532
4.193869113922119,0.28590959310531616,-0.004576735198497772,0.14142060279846191,-1.352900743484497,1.2817944288253784,-0.9827934503555298,0.09281610854645543,1.6254082517665096,1.7461952953958078
4.203939199447632,0.21282994747161865,-0.0337248370051384,0.16779041290283203,-1.0560375452041626,1.2297887802124023,-0.8649605512619019,0.08426437322492614,1.636869933610713,1.7588868837308842
4.2138190269470215,0.13665133714675903,-0.05235221982002258,0.17360317707061768,-0.7431747317314148,1.1735455989837646,-0.7796707153320312,0.07675154091413701,1.6482000518102111,1.768500393387464
4.224024295806885,0.06723058223724365,-0.05313524603843689,0.1755274534225464,-0.41774415969848633,1.0975583791732788,-0.7232335209846497,0.06975467033027194,1.659086844971774,1.7749284864606159
4.233901023864746,0.010443150997161865,-0.0443301722407341,0.17995762825012207,-0.09961391240358353,1.0071437358856201,-0.7073485255241394,0.06288911846202713,1.6694221032095846,1.7781706498209655
4.243870258331299,-0.025120913982391357,-0.016027402132749557,0.16294479370117188,0.19812697172164917,0.9275413155555725,-0.7511711120605469,0.05562613994495273,1.6790892099060049,1.778408010977639
4.253817081451416,-0.052148401737213135,0.007730286568403244,0.1447305679321289,0.48080357909202576,0.8889341354370117,-0.8615147471427917,0.04722242833258655,1.6882923431910184,1.7759319338682196
4.263940095901489,-0.06994444131851196,-0.007062245160341263,0.10632477700710297,0.7483599185943604,0.8505001664161682,-1.0081337690353394,0.03722746156483993,1.6972258693295401,1.7709480019075803
4.274132251739502,-0.08563351631164551,-0.09959034621715546,0.044693008065223694,0.9909400939941406,0.8171032071113586,-1.1772433519363403,0.02518354043072689,1.705800898114922,1.763664226762094
4.284062147140503,-0.14184552431106567,-0.2757304012775421,-0.017008647322654724,1.069299340248108,0.865649938583374,-1.2571810483932495,0.011623476826736739,1.7142986563733331,1.7550390507116334
4.294108152389526,-0.22611409425735474,-0.36930158734321594,-0.05769576132297516,1.0093004703521729,1.0170557498931885,-1.3326466083526611,-0.002724338336604617,1.7237541024339436,1.7465974460850457
4.3041253089904785,-0.28280603885650635,-0.35323265194892883,-0.09214115142822266,0.9115056991577148,1.1421431303024292,-1.402159333229065,-0.017799530953841066,1.734556239368259,1.7392647559359669
4.314006090164185,-0.28133177757263184,-0.31532955169677734,-0.10701596736907959,0.7997646331787109,1.1825523376464844,-1.3808422088623047,-0.03306312915799259,1.7460954245869045,1.7331663562756383
4.3241353034973145,-0.25703924894332886,-0.2804495096206665,-0.11262856423854828,0.638151228427887,1.1995824575424194,-1.2944172620773315,-0.04754191582974148,1.757828537968375,1.7284553831018805
4.334102153778076,-0.2558205723762512,-0.24591046571731567,-0.12072862684726715,0.504780650138855,1.2450430393218994,-1.2023859024047852,-0.06095053338326715,1.7698646621578482,1.7252879493234226
4.344053268432617,-0.27820873260498047,-0.24359336495399475,-0.1392645537853241,0.36547765135765076,1.2350540161132812,-1.0765793323516846,-0.0730497108670236,1.7822303668684942,1.7232860640244414
4.354035139083862,-0.2882532477378845,-0.25783324241638184,-0.14599040150642395,0.32275670766830444,1.2051066160202026,-1.0075026750564575,-0.08395099289654367,1.7943613063991064,1.7223681976472647
4.364121198654175,-0.3005489706993103,-0.3238423466682434,-0.16608557105064392,0.2979259192943573,1.1413052082061768,-0.8181556463241577,-0.09358637898003845,1.80606069234948,1.7213391839083847
4.374085187911987,-0.3057856559753418,-0.39583420753479004,-0.18104621767997742,0.24082615971565247,1.0796558856964111,-0.6604449152946472,-0.10139104696881576,1.8170853529298039,1.720489798159916
4.384092092514038,-0.28426170349121094,-0.3672786355018616,-0.1468779444694519,0.2019389569759369,0.976701021194458,-0.5174161195755005,-0.10765975754163697,1.8273887115396155,1.7198192958818221
4.3941240310668945,-0.22948145866394043,-0.3199976086616516,-0.11725658178329468,0.18585124611854553,0.7731196880340576,-0.3396645784378052,-0.11231725595903977,1.8361178146281547,1.7190512711519534
4.404131174087524,-0.15505528450012207,-0.2718577980995178,-0.06322139501571655,0.17382974922657013,0.5111197829246521,-0.15047843754291534,-0.1151447822440331,1.8424467537028135,1.7179509200741578
4.414122104644775,-0.0974421501159668,-0.237396702170372,-0.013865053653717041,0.1554645299911499,0.24880766868591309,0.014496244490146637,-0.11622866904871573,1.8460778530906665,1.7165345105507614
4.424288272857666,-0.07038706541061401,-0.2226596176624298,0.020861506462097168,0.16203482449054718,0.015018071979284286,0.1671220064163208,-0.11578610934815323,1.8471674523952566,1.7147518652103497
4.434190273284912,-0.06128436326980591,-0.23170728981494904,0.036661297082901,0.14604583382606506,-0.20603539049625397,0.2976888418197632,-0.11392677545261191,1.8459820672908287,1.7126158185843667
4.444192171096802,-0.04749542474746704,-0.25226157903671265,0.04455915093421936,0.14639870822429657,-0.4196864068508148,0.41763630509376526,-0.11090236921982141,1.8425751348845623,1.710212666988746
4.45414400100708,-0.026431918144226074,-0.2904270589351654,0.05115640163421631,0.05779248848557472,-0.5961421728134155,0.5320351123809814,-0.10656175429123078,1.8372164767710486,1.70789426424643
4.4642860889434814,0.006550848484039307,-0.3062153160572052,0.0664837658405304,-0.06275922060012817,-0.7298187613487244,0.6077655553817749,-0.10104959680120261,1.8304129556457767,1.7064032202379789
4.474200248718262,0.03867948055267334,-0.31757038831710815,0.08379434049129486,-0.23914383351802826,-0.8409010767936707,0.715552806854248,-0.09427542835441151,1.8224986968949306,1.7061614578596338
4.484206199645996,0.07238078117370605,-0.3070465922355652,0.11480176448822021,-0.46009165048599243,-0.8963978886604309,0.8404297828674316,-0.0858537142341432,1.8139139649465692,1.7076455630598488
4.494193077087402,0.10346478223800659,-0.2627171277999878,0.1459677517414093,-0.7043358087539673,-0.9359954595565796,0.9476438164710999,-0.07576252941395038,1.8050418082732986,1.7112262788424606
4.504319190979004,0.1325150728225708,-0.20812170207500458,0.16903769969940186,-0.8900500535964966,-0.9712948799133301,1.0625677108764648,-0.06413785991080573,1.795882932566228,1.7167522882505477
4.51435112953186,0.14616823196411133,-0.16082879900932312,0.18068599700927734,-1.0179836750030518,-0.9636034965515137,1.1640740633010864,-0.05114029770777232,1.7865613226035435,1.723692269976691
4.524245262145996,0.1266002655029297,-0.12469591200351715,0.1716921329498291,-1.0598347187042236,-0.8851339817047119,1.2351527214050293,-0.037179971972002186,1.7776094197733079,1.7313924285820046
4.534288167953491,0.0770764946937561,-0.10450240224599838,0.1418934166431427,-1.0365904569625854,-0.7415744662284851,1.2975964546203613,-0.022625572998373908,1.7696786364866643,1.7391495738520575
4.544285297393799,0.032868266105651855,-0.07640188187360764,0.10547974705696106,-0.9501543045043945,-0.5763309001922607,1.3205909729003906,-0.0077983440673871154,1.763183809413111,1.746417806304764
4.554407119750977,0.015892505645751953,-0.04377654939889908,0.06797589361667633,-0.7746244668960571,-0.37846413254737854,1.3251301050186157,0.006867527939019782,1.7584097185294294,1.752434891286542
4.564320087432861,0.019682466983795166,-0.02166009321808815,0.02133093774318695,-0.5278738141059875,-0.1611323207616806,1.3236312866210938,0.021127224798808103,1.7556509622588488,1.7564323740028995
4.574321269989014,0.03347587585449219,0.003725636750459671,-0.02222493290901184,-0.2312912940979004,0.05787401646375656,1.2951629161834717,0.03473857949620631,1.7551081381179279,1.7577972652633747
4.5843281745910645,0.049857139587402344,0.027015861123800278,-0.05625452101230621,0.07167816162109375,0.27483829855918884,1.2447683811187744,0.047404199605720294,1.7568552120201886,1.756233025215456
4.594401121139526,0.05950593948364258,0.036967676132917404,-0.08174790441989899,0.37031298875808716,0.48718324303627014,1.1792906522750854,0.05892876160078698,1.7609343356052494,1.751784277566775
4.605593204498291,0.06238675117492676,0.024928748607635498,-0.09583795070648193,0.6299664378166199,0.6650221943855286,1.1093326807022095,0.06921934613119696,1.767177378050005,1.7446215979705428
4.614391088485718,0.0583953857421875,0.004298999905586243,-0.09202778339385986,0.839826226234436,0.8233333826065063,1.0338103771209717,0.07829264206256441,1.7753591226116319,1.735216532431304
4.624410152435303,0.06525611877441406,0.008272722363471985,-0.0763934999704361,1.0029983520507812,0.9384418725967407,0.9472795128822327,0.08607683361486389,1.7851279829281104,1.72404766156938
4.634403228759766,0.08228588104248047,0.01970527321100235,-0.06541597843170166,1.099926233291626,0.9991002678871155,0.8768607378005981,0.09268347863202729,1.7959750017154437,1.7117078888133215
4.644406318664551,0.10683953762054443,0.03010493516921997,-0.05140793323516846,1.1288766860961914,0.9986329078674316,0.8197457790374756,0.09840956131015002,1.8072519812462973,1.6987979384373622
4.6558051109313965,0.13757532835006714,0.037241049110889435,-0.036233678460121155,1.0995749235153198,0.9536074995994568,0.7500700950622559,0.10338899575792738,1.81834825384559,1.6859916522523835
4.664488315582275,0.158156156539917,0.03218652307987213,-0.02189221978187561,1.0197679996490479,0.8701136708259583,0.683418333530426,0.10768147356216878,1.8287845319906013,1.673827460190804
4.674419164657593,0.15376520156860352,0.010717906057834625,-0.008280187845230103,0.8792052268981934,0.7608782649040222,0.6201876401901245,0.11151969814474628,1.8381643477202991,1.662839183635371
4.684466123580933,0.13570713996887207,-0.012281276285648346,0.009758025407791138,0.6840652823448181,0.6508787870407104,0.538188636302948,0.11501695031077566,1.846274987773533,1.653675274332125
4.694484233856201,0.11439234018325806,-0.029856517910957336,0.025725185871124268,0.4693078100681305,0.512061595916748,0.4665442705154419,0.11827687275453587,1.8529294573850643,1.646699114477816
4.70561408996582,0.09905272722244263,-0.04632221907377243,0.03869462013244629,0.23718670010566711,0.36031466722488403,0.41032975912094116,0.12150287974934527,1.8578798131578231,1.6420161255923538
4.714454174041748,0.08952146768569946,-0.056396566331386566,0.05338546633720398,0.010289935395121574,0.21337687969207764,0.3420144021511078,0.1247742202181108,1.8610188512294508,1.6397553403783145
4.724589109420776,0.07632613182067871,-0.05583202838897705,0.06199723482131958,-0.20495793223381042,0.06218443065881729,0.28802332282066345,0.1280658058722541,1.8624224540614778,1.6397685850466608
4.734506130218506,0.06184905767440796,-0.050448134541511536,0.061597079038619995,-0.38603705167770386,-0.05110470950603485,0.24643078446388245,0.13149490867493513,1.8621747930521013,1.6418830642226978
4.7445902824401855,0.04593360424041748,-0.03542184829711914,0.051952093839645386,-0.5146019458770752,-0.14785867929458618,0.20023399591445923,0.13495519270582693,1.8606760006707792,1.6456466523465452
4.755836009979248,0.02669501304626465,-0.024235457181930542,0.02612587809562683,-0.5777506232261658,-0.21744468808174133,0.18438918888568878,0.13836082521460935,1.8581887542230888,1.650404021791767
4.764698028564453,0.0022529959678649902,-0.01532803475856781,0.0003947913646697998,-0.6119632124900818,-0.25175419449806213,0.1651233583688736,0.14176262279440738,1.8550903533962109,1.655683500576865
4.77508020401001,-0.01820152997970581,-0.0009173750877380371,-0.02116069197654724,-0.6224788427352905,-0.25145336985588074,0.13674890995025635,0.1449449768567968,1.8517666913144384,1.6612747893551147
4.784767150878906,-0.03449535369873047,0.0005059093236923218,-0.03345179557800293,-0.6125375628471375,-0.23964731395244598,0.13736090064048767,0.14797231581552972,1.8484852086406565,1.6669065175472544
4.794710159301758,-0.040816307067871094,0.005887836217880249,-0.03919506072998047,-0.5931472778320312,-0.20997127890586853,0.13653650879859924,0.15096141903330415,1.8454113209461775,1.6724070476243327
4.805639266967773,-0.0428277850151062,0.013991385698318481,-0.040479809045791626,-0.5548192858695984,-0.17818404734134674,0.14133046567440033,0.15386484398756806,1.8426856516363674,1.6776416050697325
4.814870119094849,-0.041062235832214355,0.017589569091796875,-0.03960001468658447,-0.5054737329483032,-0.14124515652656555,0.1598772406578064,0.15675009559192504,1.840348138278218,1.682407180704064
4.824632167816162,-0.040303945541381836,0.026904821395874023,-0.03186574578285217,-0.4416119456291199,-0.09681113064289093,0.16623181104660034,0.1596006759196268,1.8385040915385304,1.6866175376348613
4.834630012512207,-0.04393702745437622,0.030162736773490906,-0.02928793430328369,-0.3709534704685211,-0.06032790243625641,0.18037757277488708,0.1623602290576248,1.8371531420482183,1.6901306760485022
4.844723224639893,-0.04864782094955444,0.025697827339172363,-0.025429874658584595,-0.2976885735988617,-0.009411725215613842,0.19473440945148468,0.16507268817321605,1.8363480631404836,1.692908233218475
4.855959177017212,-0.05615955591201782,0.02248893678188324,-0.021797925233840942,-0.22155122458934784,0.03689594194293022,0.21203936636447906,0.1677293541168827,1.836164335531188,1.6949111664567593
4.8647003173828125,-0.055415332317352295,0.022817105054855347,-0.018465638160705566,-0.14929647743701935,0.08161360770463943,0.22541534900665283,0.17035324115072117,1.8365687426874828,1.6961437284518426
4.87479829788208,-0.04366862773895264,0.0355478972196579,-0.016845107078552246,-0.05689128115773201,0.10327820479869843,0.22978165745735168,0.17283606045965227,1.8374533518438878,1.696560767399579
4.884718179702759,-0.02906489372253418,0.03820733726024628,-0.015765458345413208,0.026643557474017143,0.11121309548616409,0.23826302587985992,0.17514895393081556,1.8386126322657224,1.6960698357919388
4.89469313621521,-0.02246958017349243,0.037664711475372314,-0.011228799819946289,0.0945928692817688,0.1271277368068695,0.23943322896957397,0.17731009864504693,1.8400316651877513,1.6948175992288004
4.905786037445068,-0.02164936065673828,0.042318105697631836,-0.008777379989624023,0.139931321144104,0.13271930813789368,0.22394400835037231,0.17924761141751164,1.841662104951038,1.693020790435559
4.9148101806640625,-0.019078493118286133,0.04476660490036011,-0.003072381019592285,0.17147237062454224,0.1312042474746704,0.20621705055236816,0.1809143608869866,1.8433746395304424,1.6909088447818559
4.924805164337158,-0.015072524547576904,0.03517632186412811,0.0022428929805755615,0.17403486371040344,0.12974803149700165,0.19343173503875732,0.1823802756269449,1.8450881386869065,1.6886441206004552
4.935099124908447,-0.01334160566329956,0.026205241680145264,0.004205882549285889,0.16580118238925934,0.13732512295246124,0.16966265439987183,0.18366936683834487,1.8468382161743822,1.6864738942580693
4.944979190826416,-0.010234355926513672,0.024469420313835144,0.0043516457080841064,0.13633543252944946,0.1283247023820877,0.1434646099805832,0.1847751704071743,1.8485337348621176,1.6845461760427147
4.95561408996582,0.0015261173248291016,0.022479280829429626,0.005688756704330444,0.11222855001688004,0.11636324226856232,0.11713814735412598,0.18569999151744343,1.8500585306707429,1.682955301739656
4.964831113815308,0.01191633939743042,0.0157577246427536,0.0076105594635009766,0.0885796770453453,0.0973578616976738,0.09504429250955582,0.18645299719917838,1.8513602727694631,1.6816758176676523
4.974818229675293,0.015690326690673828,0.011032626032829285,0.010030746459960938,0.058167628943920135,0.07964513450860977,0.07220907509326935,0.18706384507541293,1.852434403489061,1.6807135093147951
4.984886169433594,0.012125849723815918,0.011782854795455933,0.011354833841323853,0.034574419260025024,0.06632799655199051,0.043004319071769714,0.18750130562297168,1.8532866848678275,1.6801067216450911
4.994916200637817,0.006856143474578857,0.0094880610704422,0.013650089502334595,0.019741561263799667,0.05208403617143631,0.023652458563447,0.18542999584137695,1.8535544114769085,1.6798318134604198
5.0057783126831055,0.003662407398223877,0.002665504813194275,0.013119757175445557,0.0012238025665283203,0.038870230317115784,0.0020680706948041916,0.18342578725057715,1.8538783282796631,1.6797167868564493
5.014908313751221,0.00022488832473754883,-0.002482101321220398,0.01458132266998291,-0.01952037401497364,0.037497684359550476,-0.013540929183363914,0.18162033404234276,1.8542857176278762,1.6798153676881995
5.025206089019775,-0.0027624964714050293,-0.0030873119831085205,0.010615497827529907,-0.03673664480447769,0.03683269023895264,-0.030225632712244987,0.17960913294860323,1.8547263973896635,1.6801338445612337
5.034919261932373,0.0030834078788757324,-0.0037171095609664917,0.0076906681060791016,-0.04491036757826805,0.028692074120044708,-0.047913335263729095,0.177837204221473,1.8549993511251472,1.6806477323874907
5.044974088668823,0.010243773460388184,-0.012793853878974915,0.009524255990982056,-0.056196846067905426,0.022226184606552124,-0.059343092143535614,0.17669235548744958,1.8551628410988785,1.6812821532930617
5.055520057678223,0.01307380199432373,-0.025466173887252808,0.01101607084274292,-0.07198092341423035,0.024159861728549004,-0.07187315821647644,0.17598720282568328,1.8554527830171073,1.682055005440265
5.065035104751587,0.007421970367431641,-0.03318655490875244,0.01155880093574524,-0.08040902763605118,0.01847800612449646,-0.07922321557998657,0.17529045160680407,1.8559080017308538,1.6829517066088333
5.075031280517578,0.004218578338623047,-0.04092520475387573,0.011849075555801392,-0.08834180235862732,0.018166638910770416,-0.07743288576602936,0.174730136232048,1.8565245453155423,1.6838881685232407
5.084958076477051,0.0009930729866027832,-0.04313507676124573,0.013118118047714233,-0.08761022984981537,0.02378111518919468,-0.07466106116771698,0.1745778578960683,1.8571438285059814,1.6848592315440112
5.095032215118408,-0.0028058290481567383,-0.036393776535987854,0.011290907859802246,-0.06856600195169449,0.023111507296562195,-0.06427590548992157,0.17468319963812556,1.8579044308233932,1.6857191668716818
5.10564112663269,-0.003959059715270996,-0.03428027033805847,0.0066182613372802734,-0.046196773648262024,0.02327102981507778,-0.05284455418586731,0.1747685887382602,1.858478019124105,1.6863716225606877
5.114994049072266,-0.002873361110687256,-0.036136314272880554,0.0033714473247528076,-0.013773206621408463,0.02592029795050621,-0.03919404000043869,0.17474319236214364,1.8588287780668604,1.6867618564398685
5.125049114227295,-0.0022963285446166992,-0.0367061048746109,-0.0010633766651153564,0.022910239174962044,0.027579713612794876,-0.02938402071595192,0.17506329549594984,1.8592276115439548,1.6867969683962958
5.135054111480713,-0.0005453228950500488,-0.03176000714302063,-0.002319246530532837,0.0533786304295063,0.02661973424255848,-0.026420721784234047,0.17587141272913925,1.8597114776574757,1.6864754913701017
5.145129203796387,0.0011855363845825195,-0.027721509337425232,-0.0020100772380828857,0.06935440748929977,0.02548469416797161,-0.027808228507637978,0.17690472447172653,1.8603119050252241,1.6859035262962063
5.155698299407959,0.0021968483924865723,-0.031230702996253967,-0.00154036283493042,0.06930596381425858,0.026600293815135956,-0.028513913974165916,0.17816079539991664,1.8609811682118937,1.6852462594468127
5.1651129722595215,0.00024062395095825195,-0.034747228026390076,-0.0022347867488861084,0.060176119208335876,0.036222562193870544,-0.03154565393924713,0.17940963315455064,1.861785283452494,1.6846289407460664
5.175107002258301,-0.004299163818359375,-0.03818309307098389,-0.006074666976928711,0.04876032844185829,0.0395323820412159,-0.03456754609942436,0.18029094194077253,1.862572504072888,1.6841354785872245
5.1851561069488525,-0.012886643409729004,-0.04428400099277496,-0.009779781103134155,0.0357382707297802,0.05025613307952881,-0.024152453988790512,0.18111570723857415,1.8632141224109178,1.683787660845582
5.195260047912598,-0.018818378448486328,-0.04345382750034332,-0.010381042957305908,0.026227323338389397,0.050921037793159485,-0.018063189461827278,0.18203736243458282,1.8637415818533098,1.6835634450145716
5.205568313598633,-0.01672917604446411,-0.032616108655929565,-0.010945916175842285,0.03297444432973862,0.04024975001811981,-0.004154564812779427,0.18303441600178588,1.864040531282955,1.683359190815205
5.2151570320129395,-0.008562445640563965,-0.02286665141582489,-0.00965157151222229,0.04766077548265457,0.026248177513480186,0.008114725351333618,0.18388703298661485,1.8641721970978302,1.6830133629133475
5.2251152992248535,-0.004134416580200195,-0.018346816301345825,-0.009346693754196167,0.06125887855887413,0.00965828262269497,0.01757720299065113,0.1846198658069016,1.8642136918491221,1.682490447378659
5.235054969787598,-0.0022859573364257812,-0.014320224523544312,-0.009078651666641235,0.07156778872013092,-0.005567141808569431,0.022036399692296982,0.1855029379960182,1.864157221304614,1.6818213992993192
5.24517822265625,-0.0003625154495239258,-0.01363372802734375,-0.007715582847595215,0.07161492854356766,-0.020314395427703857,0.01458647195249796,0.1864809854972462,1.863980380688391,1.6811056238027537
5.25600528717041,-0.005205333232879639,-0.016868874430656433,-0.007411956787109375,0.06052381172776222,-0.024264352396130562,0.013999031856656075,0.1875677636382434,1.8636547488817337,1.680455379525695
5.265322208404541,-0.010097205638885498,-0.021900787949562073,-0.0048683881759643555,0.0338466577231884,-0.02183741331100464,0.012317778542637825,0.18895377809761923,1.8632849521760513,1.6799847759252977
5.275322198867798,-0.009784400463104248,-0.018981635570526123,-0.001842886209487915,0.013066263869404793,-0.02322603017091751,0.009368328377604485,0.19035692183170877,1.8629558510610975,1.679750403944407
5.285415172576904,-0.005961596965789795,-0.007431119680404663,0.00046440958976745605,0.0023355891462415457,-0.030346255749464035,0.009131839498877525,0.19138223192569107,1.8625414036721042,1.6796809957810308
5.2954020500183105,-1.6808509826660156e-05,0.0028978437185287476,0.0039023160934448242,0.006009935401380062,-0.03289228305220604,0.007416657172143459,0.19201828453038433,1.8620541532549855,1.679654312898021
5.305860996246338,0.0027244091033935547,0.011450156569480896,0.0029942989349365234,0.018639178946614265,-0.03429816663265228,0.004092499613761902,0.19242998654789317,1.861550902632576,1.679554909178449
5.315277099609375,0.008428633213043213,0.017330855131149292,0.0028985440731048584,0.028554460033774376,-0.04553244635462761,-0.01316787302494049,0.1925760657080797,1.8610122371954723,1.679359001855221
5.325321197509766,0.01423567533493042,0.018419891595840454,0.0032110512256622314,0.04271182417869568,-0.05005209520459175,-0.030785484239459038,0.1924886085003126,1.860447720203779,1.679093629352538
5.3353190422058105,0.012859225273132324,0.012152031064033508,0.0008412301540374756,0.03679591417312622,-0.04751170426607132,-0.04464345797896385,0.19242991626998007,1.8599303175358632,1.678821797719107
5.345382213592529,0.00844264030456543,0.007609188556671143,0.0014190673828125,0.030915917828679085,-0.042983800172805786,-0.061754800379276276,0.19243431963664245,1.859575915488867,1.6786339362117961
5.355804204940796,0.008681237697601318,0.004394173622131348,0.0058314502239227295,0.02108963578939438,-0.04873662814497948,-0.07162276655435562,0.19228352448180785,1.8592724768885398,1.6785399899719005
5.365350246429443,0.011200964450836182,0.008407160639762878,0.012373954057693481,0.009340834803879261,-0.05106183513998985,-0.08459555357694626,0.19172388979536753,1.8589359592605625,1.6785843126731579
5.375401973724365,0.015994369983673096,0.01157805323600769,0.015994280576705933,0.006172638386487961,-0.05892419442534447,-0.09111268818378448,0.19078832403044688,1.8585700032011103,1.67872391322907
