timestamp,accel_x,accel_y,accel_z,rotation_x,rotation_y,rotation_z, pitch,roll,yaw
0.045877933502197266,-0.016086220741271973,-0.006318256258964539,-0.00015652179718017578,-0.2686673700809479,-0.05679694935679436,-0.1242746040225029,-0.21533012286418513,1.2557388513006253,0.15658477181179692
0.05500984191894531,-0.010332822799682617,-0.0005622059106826782,-0.0013679265975952148,-0.3719732463359833,-0.07478154450654984,-0.13108325004577637,-0.2175919988328223,1.2556488433568551,0.15932555838256457
0.06868791580200195,-0.0018883347511291504,0.013160720467567444,-0.006175518035888672,-0.3534448444843292,-0.07025403529405594,-0.12050879746675491,-0.21997817749413315,1.2556414491789516,0.16254065721491923
0.07606172561645508,0.00037103891372680664,0.018322929739952087,-0.01868605613708496,-0.2780262529850006,-0.11775630712509155,-0.10320250689983368,-0.2220376782288745,1.255291310279348,0.1652860916035762
0.07782483100891113,0.0041373372077941895,0.029656335711479187,-0.034409284591674805,-0.2126522660255432,-0.15946149826049805,-0.09284680336713791,-0.22376268474764008,1.2543311361968024,0.16733089298262435
0.08553385734558105,0.00393068790435791,0.035046204924583435,-0.02716246247291565,-0.1571197658777237,-0.17712384462356567,-0.08740755915641785,-0.22523034745669077,1.2529703865117938,0.1688369271554355
0.09559392929077148,-0.003168463706970215,0.017078012228012085,-0.025541186332702637,-0.1367211788892746,-0.1832304745912552,-0.08299773931503296,-0.2265229916373332,1.2513844638734741,0.16996723624785143
0.10584068298339844,-0.010731279850006104,0.012675225734710693,-0.02050301432609558,-0.1377427726984024,-0.17207449674606323,-0.07431503385305405,-0.227752990701473,1.249835264313685,0.171024185942379
0.11578989028930664,-0.018857121467590332,0.009185492992401123,-0.011095523834228516,-0.15754634141921997,-0.15602855384349823,-0.06938201189041138,-0.22892327287004902,1.2484479239934978,0.1722255795240628
0.12573671340942383,-0.02268052101135254,0.0003127157688140869,-0.01151496171951294,-0.1870531141757965,-0.12967950105667114,-0.05959329381585121,-0.23012177945416962,1.2473378289118657,0.17368793061077556
0.13573503494262695,-0.02441304922103882,-0.0027851760387420654,-0.00940006971359253,-0.22916150093078613,-0.09413309395313263,-0.04707058146595955,-0.2313134232271826,1.246622220700128,0.1755234225611486
0.14577579498291016,-0.025431811809539795,-0.0009248256683349609,-0.013477563858032227,-0.2846985161304474,-0.052527591586112976,-0.03728266432881355,-0.2325689542740602,1.246410418324153,0.17788289239275998
0.15573787689208984,-0.023780107498168945,-0.0009660571813583374,-0.015929967164993286,-0.33756959438323975,-0.015822310000658035,-0.02510940656065941,-0.2338973325496088,1.2467464677477604,0.18081354073421196
0.16600990295410156,-0.0222509503364563,-0.006113722920417786,-0.013863712549209595,-0.3941655158996582,0.015486611053347588,-0.019414769485592842,-0.23529928355099858,1.2475373186772392,0.18429580279626845
0.17580175399780273,-0.0195656418800354,-0.007507100701332092,-0.011927127838134766,-0.435040682554245,0.04502590373158455,-0.012144126929342747,-0.23681085024953802,1.2487740952789335,0.18830139472318988
0.18586969375610352,-0.01703011989593506,-0.009695976972579956,-0.010347992181777954,-0.4358726441860199,0.06563344597816467,-0.008024483919143677,-0.23832507252824112,1.2503151362016105,0.19257998621861463
0.19585680961608887,-0.01442563533782959,-0.011489257216453552,-0.010877817869186401,-0.34889861941337585,0.06305448710918427,-0.0025947773829102516,-0.23965253811707793,1.2519074622006474,0.19642830318200172
0.20688295364379883,-0.010978400707244873,-0.00614398717880249,-0.014560610055923462,-0.2467978298664093,0.03033914975821972,-0.006153292953968048,-0.24065314334885912,1.2530566010752477,0.19932978458565728
0.21585893630981445,-0.0020954012870788574,0.0042219460010528564,-0.009725809097290039,-0.1626981794834137,0.010971399024128914,-0.007803707383573055,-0.241402029758011,1.2537097048945005,0.20129195265992675
0.22586774826049805,0.0015516281127929688,0.00653134286403656,-0.003508657217025757,-0.1087915450334549,0.003376862732693553,-0.009944622404873371,-0.24193087514339998,1.2540565223024431,0.202564335084439
0.23596787452697754,-0.002781510353088379,0.003550603985786438,-0.007579058408737183,-0.08888188749551773,0.01006796583533287,-0.005762500688433647,-0.2423448940575169,1.2543167099583201,0.20349340151615528
0.24596500396728516,-0.0034251809120178223,0.0017964988946914673,-0.01014775037765503,-0.09384068846702576,0.0234889667481184,-0.00025455118156969547,-0.24267432970150332,1.2546760792067608,0.20434706689749355
0.2559490203857422,-0.004635274410247803,-0.004963234066963196,-0.010690689086914062,-0.12013816088438034,0.03990517929196358,0.0011923974379897118,-0.24303600372780618,1.255218710899107,0.20538867039024689
0.2659459114074707,-0.006801128387451172,-0.010523200035095215,-0.006369143724441528,-0.13442416489124298,0.04985048994421959,0.0018507307395339012,-0.24263322563531278,1.2533455356971206,0.20602150278691772
0.2761378288269043,-0.0038361549377441406,-0.016839534044265747,-0.0050820112228393555,-0.13597580790519714,0.04599658399820328,0.000703760888427496,-0.24216082692656965,1.2521204769729772,0.20686526736976574
0.28607988357543945,0.0015759468078613281,-0.015014976263046265,-0.0043364763259887695,-0.11303932219743729,0.054753854870796204,0.0032516068313270807,-0.24213611968926127,1.2509660257175497,0.20764689618542034
0.2961440086364746,0.004150807857513428,-0.011111170053482056,-0.010254591703414917,-0.06478582322597504,0.03801371529698372,0.008272571489214897,-0.2426415797098049,1.2508559097921117,0.20834329950361957
0.3060028553009033,0.006745338439941406,-0.004101961851119995,-0.016680985689163208,-0.016752518713474274,0.020795045420527458,0.009384706616401672,-0.2430447618360048,1.2512560422114276,0.2087697846863456
0.3162038326263428,0.012300431728363037,0.004334762692451477,-0.011332124471664429,0.028430072590708733,0.005037654656916857,0.007881778292357922,-0.2431404876597498,1.2509245738872765,0.20862452797886596
0.32628393173217773,0.01160520315170288,0.0025704950094223022,-0.01293271780014038,0.07162947952747345,-0.007546048145741224,0.005411962978541851,-0.24300877518869735,1.2502048907791183,0.20801399634005366
0.3362288475036621,0.0133514404296875,0.004665538668632507,-0.00982522964477539,0.1263195425271988,-0.017550745978951454,0.0009204356465488672,-0.24242245713747085,1.2493478203994457,0.20694058511661304
0.3460550308227539,0.011852085590362549,0.005798071622848511,-0.006285667419433594,0.17789672315120697,-0.03937002271413803,-0.0046301246620714664,-0.24146024060538154,1.2484003412649527,0.20537099744788018
0.356292724609375,0.012047529220581055,0.007677808403968811,-0.004059970378875732,0.23126158118247986,-0.04759315401315689,-0.011197799816727638,-0.24009028491060383,1.2473553701538544,0.20331604106653484
0.3661468029022217,0.010571956634521484,0.011203214526176453,-0.00132828950881958,0.26791146397590637,-0.06099684536457062,-0.01818540133535862,-0.2387545916575012,1.246221782401309,0.2008226960005325
0.37606096267700195,0.008210957050323486,0.014067798852920532,-0.0009690523147583008,0.26418715715408325,-0.060946911573410034,-0.02214573509991169,-0.2376753184482453,1.2447435336862536,0.19807032524110585
0.3860459327697754,0.00510638952255249,0.012639373540878296,0.0034270882606506348,0.23930604755878448,-0.050830624997615814,-0.02593701146543026,-0.23705700268727461,1.243151362978902,0.19544559061490868
0.39601993560791016,-0.0011333227157592773,0.0030943304300308228,0.007214933633804321,0.2202981561422348,-0.04623960331082344,-0.02754279039800167,-0.23684576722714584,1.2421698784574056,0.19312442826660817
0.40608978271484375,-0.0039670467376708984,-0.005390644073486328,0.011476278305053711,0.20685797929763794,-0.0406794548034668,-0.02844719961285591,-0.23664283048698714,1.241186883854675,0.19094376511052455
0.4161508083343506,-0.003170907497406006,0.0012420117855072021,0.015411794185638428,0.19292141497135162,-0.03933238238096237,-0.022954590618610382,-0.23650663921883766,1.2404528495254206,0.18894701653430462
0.4261348247528076,-0.004554450511932373,0.003278404474258423,0.015449225902557373,0.18536309897899628,-0.03187580034136772,-0.016491098329424858,-0.2363738722610882,1.2399087284988577,0.18711012749423125
0.4360668659210205,-0.005384862422943115,0.003225162625312805,0.014469742774963379,0.22607417404651642,-0.02403021603822708,-0.0058979494497179985,-0.23613046093110085,1.239517123268253,0.18518436308185712
0.4460740089416504,-0.005723476409912109,0.005962014198303223,0.006191134452819824,0.27060380578041077,-0.043491262942552567,0.0036651960108429193,-0.2357167317669483,1.2389961716028413,0.18283604405421347
0.4573206901550293,-0.004393100738525391,0.009230971336364746,0.006520479917526245,0.2784646153450012,-0.047740962356328964,0.009998459368944168,-0.23522664159188011,1.23821362077803,0.18022846232431664
0.4660758972167969,-0.006041347980499268,0.009957760572433472,0.01186913251876831,0.24751202762126923,-0.040948569774627686,0.018036412075161934,-0.23466757556408152,1.2375870778914813,0.17779259314245036
0.47612881660461426,-0.01298069953918457,0.005582749843597412,0.010602593421936035,0.17974750697612762,-0.027802448719739914,0.023578716441988945,-0.23395727736662425,1.2372308373257612,0.1758736585252757
0.4861898422241211,-0.01793462038040161,-0.0005843788385391235,0.017496764659881592,0.08865167945623398,-0.020224692299962044,0.024356892332434654,-0.23325411547089173,1.2372586222322104,0.1747633578518905
0.4961400032043457,-0.020988523960113525,-0.009996369481086731,0.02424183487892151,-0.007558686658740044,-0.004843560978770256,0.0264766626060009,-0.23307886738815398,1.2377204329039075,0.1746203488874528
0.5063738822937012,-0.021456122398376465,-0.018144965171813965,0.027221977710723877,-0.06131592392921448,-0.0046896301209926605,0.03104265220463276,-0.23318898448245298,1.2384031841440604,0.17521653860860056
0.5160698890686035,-0.018586456775665283,-0.012330964207649231,0.0201779305934906,-0.08328142762184143,-0.02191935107111931,0.032253965735435486,-0.23337680171359107,1.2389624445193355,0.17615425687019423
0.526099681854248,-0.010520994663238525,0.0033402442932128906,0.019784390926361084,-0.09264643490314484,-0.02806033194065094,0.04005489498376846,-0.23358026605328217,1.2390750283688494,0.17717493415277016
0.5360398292541504,-0.009315013885498047,0.012171730399131775,0.01793786883354187,-0.09967637807130814,-0.03727220743894577,0.04473992809653282,-0.23377190703940703,1.239109309935626,0.17827425401541935
0.5460999011993408,-0.009626686573028564,0.017801150679588318,0.012540936470031738,-0.09636367112398148,-0.038623228669166565,0.04490344598889351,-0.23392989082682808,1.2391908262398863,0.17942139797221815
0.5561079978942871,-0.01079469919204712,0.020344406366348267,0.014727652072906494,-0.1055087000131607,-0.03612198680639267,0.04268689826130867,-0.23401342641216594,1.2391788074313204,0.18056566006479438
0.5661108493804932,-0.011759817600250244,0.017745107412338257,0.014951169490814209,-0.1294848769903183,-0.02372603863477707,0.03698480501770973,-0.2340972832372747,1.2393934412582086,0.18189068694380675
0.5764427185058594,-0.012613296508789062,0.019250035285949707,0.015240699052810669,-0.16084669530391693,-0.004185449797660112,0.03188362345099449,-0.23416591836371492,1.2399688265251085,0.1835109883837938
0.5863208770751953,-0.015071511268615723,0.021194323897361755,0.012719511985778809,-0.18737657368183136,0.014424720779061317,0.02803162857890129,-0.23423773077782037,1.240845719337647,0.18540135242821237
0.596444845199585,-0.017103731632232666,0.020043134689331055,0.010389149188995361,-0.18853671848773956,0.03395003825426102,0.02680252678692341,-0.23448001362813503,1.2417995088800688,0.18740655765858144
0.6073338985443115,-0.01919931173324585,0.0206928551197052,0.010296732187271118,-0.15761367976665497,0.03699003905057907,0.019847681745886803,-0.23492584760153784,1.2428580776132907,0.18923719754753635
0.616553783416748,-0.01604217290878296,0.025188744068145752,0.00885075330734253,-0.12366180866956711,0.03202342242002487,0.012533308938145638,-0.23543358406410095,1.2437573714666403,0.1907160978717903
0.6265807151794434,-0.012390553951263428,0.02939319610595703,0.010685205459594727,-0.08835016191005707,0.03832899034023285,0.006614700425416231,-0.23595863378269186,1.244456571717891,0.19180186370317256
0.6365609169006348,-0.014261901378631592,0.02575160562992096,0.00810009241104126,-0.052773717790842056,0.04092024639248848,0.003384924493730068,-0.23645546842430673,1.2451354692036722,0.1925189496002591
0.6466197967529297,-0.015037834644317627,0.02469426393508911,0.003775864839553833,-0.04767216742038727,0.04836085066199303,0.006045156624168158,-0.23685251041245783,1.2458054031709436,0.19303235920712047
0.6572709083557129,-0.016966581344604492,0.02228178083896637,0.003913372755050659,-0.06195272132754326,0.060423146933317184,0.006937581580132246,-0.23730938875512733,1.2465961930694156,0.1936101500468249
0.6665318012237549,-0.021421432495117188,0.015367284417152405,0.005719542503356934,-0.07267700135707855,0.07075488567352295,0.00835438258945942,-0.23784547307662152,1.2474739014626657,0.19430331153629093
0.6767239570617676,-0.023971915245056152,0.007690399885177612,0.007410228252410889,-0.09420325607061386,0.07601165026426315,0.009588118642568588,-0.23839681388573195,1.2483761920696628,0.19513383679442053
0.6863789558410645,-0.02650970220565796,0.006395429372787476,0.008160382509231567,-0.12820649147033691,0.08086073398590088,0.014050247147679329,-0.23900721223615135,1.2493834422716936,0.19625075612363024
0.6964550018310547,-0.028690457344055176,0.002074629068374634,0.008034169673919678,-0.1602214127779007,0.08612340688705444,0.019909201189875603,-0.2396852036558311,1.2505246621399673,0.19770673194651184
0.7079730033874512,-0.02895289659500122,-0.00495108962059021,0.008230805397033691,-0.1966169774532318,0.09292671829462051,0.027217181399464607,-0.2404147123279642,1.2518739478591194,0.1995349334390517
0.7165148258209229,-0.02791118621826172,-0.004654750227928162,0.0033740103244781494,-0.2348935306072235,0.1002136617898941,0.03623064607381821,-0.24108371954641272,1.253313508761022,0.20173434271295113
0.7264378070831299,-0.025561869144439697,-0.0027968138456344604,0.000668644905090332,-0.2846791744232178,0.10451706498861313,0.04602175951004028,-0.24176315552359035,1.2548346629954343,0.20436426028669716
0.7364158630371094,-0.025516033172607422,-0.003831535577774048,-0.001132875680923462,-0.3448679447174072,0.11229988187551498,0.05495666339993477,-0.24248321039490003,1.2565465643161544,0.20757439945950165
0.7465767860412598,-0.023663699626922607,-0.00611858069896698,-0.002193450927734375,-0.3943345546722412,0.13705556094646454,0.058056849986314774,-0.2432516704903162,1.2585422849327543,0.21138110678941666
0.7572498321533203,-0.022633790969848633,-0.007880359888076782,-0.003635227680206299,-0.3754892349243164,0.14449559152126312,0.06607664376497269,-0.24393496707824458,1.2607914619622849,0.21534130727120418
0.7667889595031738,-0.02017742395401001,-0.003564313054084778,-0.012296289205551147,-0.328633576631546,0.13633114099502563,0.06445956975221634,-0.24445617094693795,1.262906000131637,0.21896347287667775
0.7766509056091309,-0.015390455722808838,0.010498002171516418,-0.016121745109558105,-0.2797726094722748,0.13616754114627838,0.06969363987445831,-0.24477720331129754,1.2648390167405976,0.22211028483626508
0.786613941192627,-0.015025138854980469,0.018563807010650635,-0.021490395069122314,-0.23916898667812347,0.1421833485364914,0.0726497545838356,-0.24484634142852893,1.266677669399839,0.22481806773750282
0.7965939044952393,-0.01833951473236084,0.0255984365940094,-0.02904072403907776,-0.22312098741531372,0.15185067057609558,0.07516899704933167,-0.24479889059254875,1.2684416849784317,0.2272295904216153
0.806912899017334,-0.02510613203048706,0.024729713797569275,-0.026555627584457397,-0.23801924288272858,0.16945789754390717,0.07004320621490479,-0.24478201407852432,1.270306390058482,0.229618585096693
0.816572904586792,-0.030868232250213623,0.01660226285457611,-0.022375494241714478,-0.27125993371009827,0.192019522190094,0.0705564022064209,-0.24485504110235573,1.272425002687231,0.2322433356145543
0.8267207145690918,-0.03558462858200073,0.013240247964859009,-0.016624420881271362,-0.3215406835079193,0.21266168355941772,0.07193058729171753,-0.24503329356254247,1.2752091756460893,0.2353657105480079
0.8366918563842773,-0.03750056028366089,0.016114771366119385,-0.016148924827575684,-0.3945724368095398,0.23823672533035278,0.08072210848331451,-0.24534181047436274,1.278371433734136,0.23911378981104603
0.8466110229492188,-0.04355579614639282,0.018880397081375122,-0.015053987503051758,-0.4967443346977234,0.2679064869880676,0.08912438154220581,-0.24579413833370647,1.2820357398963034,0.2437506411267738
0.8568339347839355,-0.050730884075164795,0.01734292507171631,-0.015611767768859863,-0.6255854964256287,0.3035009205341339,0.10014219582080841,-0.24648255540940278,1.2863076822688,0.24957019617744608
0.8666996955871582,-0.05699789524078369,0.012045279145240784,-0.0161096453666687,-0.7642006278038025,0.3476787805557251,0.11436880379915237,-0.2473982134674785,1.2913298672714018,0.2567795083732387
0.8765449523925781,-0.05799192190170288,0.007650420069694519,-0.02129542827606201,-0.8965050578117371,0.3845563530921936,0.13044635951519012,-0.24850037077096424,1.2971058809499096,0.26536824772218687
0.8865818977355957,-0.05626589059829712,0.004652976989746094,-0.028607934713363647,-1.028226375579834,0.4253581166267395,0.15447819232940674,-0.24970392144306555,1.3036255812937603,0.27534937383490227
0.8966658115386963,-0.056425273418426514,0.006238102912902832,-0.04070305824279785,-1.149972915649414,0.463900625705719,0.18748381733894348,-0.2509027113334802,1.3108946000232362,0.28668479898658644
0.9069509506225586,-0.054962873458862305,0.009666815400123596,-0.05765758454799652,-1.2659506797790527,0.49832412600517273,0.2280067354440689,-0.25196291602770793,1.3188537770787043,0.299317566934321
0.916740894317627,-0.050395667552948,0.016653090715408325,-0.07253611087799072,-1.3725560903549194,0.5231202244758606,0.2747684419155121,-0.2527688906984923,1.3274333378619343,0.3131811872508794
0.9267849922180176,-0.04573976993560791,0.02707776427268982,-0.0794638842344284,-1.4688102006912231,0.5429136753082275,0.31944480538368225,-0.2532544060610232,1.3365354376387941,0.32819709427241156
0.9368100166320801,-0.0382307767868042,0.041895925998687744,-0.08188608288764954,-1.5597127676010132,0.5667151212692261,0.36853334307670593,-0.25334703590588215,1.3461240055901382,0.34426732596057136
0.9469218254089355,-0.029412686824798584,0.06136241555213928,-0.08327406644821167,-1.6376515626907349,0.5977625250816345,0.4207605719566345,-0.25298841319199844,1.3562050831935182,0.36129641214520436
0.9574117660522461,-0.02214592695236206,0.0838717371225357,-0.08830921351909637,-1.7156966924667358,0.6386140584945679,0.4728369414806366,-0.25210319383658747,1.3668699085265894,0.3792160076080569
0.9669618606567383,-0.019649982452392578,0.10550057888031006,-0.09817896783351898,-1.7812706232070923,0.6950386762619019,0.5163399577140808,-0.2506937301374235,1.3782201447864617,0.39797521533675456
0.9767758846282959,-0.01932668685913086,0.1212383359670639,-0.10695670545101166,-1.8066661357879639,0.7509623169898987,0.550121545791626,-0.24878219018740622,1.390223292432298,0.41723264169388813
0.9867539405822754,-0.0192297101020813,0.1305137574672699,-0.11336593329906464,-1.7942239046096802,0.7987636923789978,0.5712750554084778,-0.24639187839158794,1.402731544345754,0.43657324823578775
0.9969568252563477,-0.022230565547943115,0.14337657392024994,-0.121681809425354,-1.702943205833435,0.871821403503418,0.5909287929534912,-0.24349820127440147,1.4156618334279685,0.45545453413373294
1.0071496963500977,-0.027618825435638428,0.15823595225811005,-0.12836696207523346,-1.6630088090896606,0.9169787764549255,0.5876938700675964,-0.24010636004962507,1.4288831458710511,0.47339666741016423
1.0171279907226562,-0.03442811965942383,0.17337322235107422,-0.13240623474121094,-1.652907371520996,0.9614374041557312,0.5552662014961243,-0.23668254732525404,1.4424937748940592,0.4910936188725828
1.0271039009094238,-0.04664039611816406,0.19585807621479034,-0.12297415733337402,-1.6878101825714111,0.9522327184677124,0.5139344930648804,-0.23334734396541304,1.4561985571069027,0.5087826142693075
1.0370607376098633,-0.06050640344619751,0.18003645539283752,-0.12436605989933014,-1.8379122018814087,0.9487382173538208,0.4168933928012848,-0.23058607925247002,1.4699611851404597,0.527206683006036
1.047118902206421,-0.06538641452789307,0.13644112646579742,-0.1105005219578743,-2.097012758255005,0.996916651725769,0.325233519077301,-0.22876932443795592,1.4843444931293026,0.5476763752794709
1.0574569702148438,-0.07163649797439575,0.1031377911567688,-0.11576766520738602,-2.379790782928467,1.0346709489822388,0.26972898840904236,-0.22754071897094771,1.4997692575551926,0.5708615106208907
1.0670318603515625,-0.0683668851852417,0.11549025774002075,-0.15038549900054932,-2.6769189834594727,1.0719709396362305,0.15034879744052887,-0.22699982816915124,1.5161714596182791,0.596935370452479
1.0769538879394531,-0.04211682081222534,0.14779028296470642,-0.17820978164672852,-2.9358980655670166,1.0750693082809448,0.037287499755620956,-0.22734730429629002,1.5334839178405608,0.6258266154834188
1.086987018585205,0.004908740520477295,0.19728827476501465,-0.2298145890235901,-3.236360788345337,1.0397366285324097,-0.14350812137126923,-0.22875871752359409,1.55108827443175,0.6573656821408371
1.0970606803894043,0.060292601585388184,0.2603956460952759,-0.26954829692840576,-3.412181854248047,0.9458218812942505,-0.2903885245323181,-0.23136323581993892,1.5689328714251483,0.6916809795625025
1.1075499057769775,0.11292785406112671,0.3209564685821533,-0.2781940698623657,-3.483212471008301,0.7204316258430481,-0.4846307039260864,-0.2349089731939053,1.5855411130015473,0.7272115337395014
1.1171717643737793,0.167344331741333,0.3749379515647888,-0.2544361352920532,-3.5511021614074707,0.4797225296497345,-0.7701407670974731,-0.24040823348167334,1.6000967566894395,0.7635649235705405
1.1272008419036865,0.20126289129257202,0.408829927444458,-0.18883144855499268,-3.6705329418182373,0.25603166222572327,-1.0409785509109497,-0.24817443304760864,1.612825849350122,0.8010695335886142
1.1369657516479492,0.20908993482589722,0.4320839047431946,-0.14443492889404297,-3.95269775390625,0.11119196563959122,-1.3383774757385254,-0.258230639611194,1.6246818274832975,0.8410601986155549
1.147000789642334,0.21457087993621826,0.48602643609046936,-0.10365115851163864,-4.057966232299805,-0.0717855766415596,-1.6110239028930664,-0.27060576882025544,1.636002013902208,0.8835281012981414
1.157092809677124,0.24285876750946045,0.5582671165466309,-0.058232784271240234,-3.949251174926758,-0.27505993843078613,-1.9086230993270874,-0.28534133581459087,1.6460725437229033,0.9266135987151277
1.1670658588409424,0.29148244857788086,0.6239427328109741,-0.0008082315325737,-3.51948881149292,-0.5177935361862183,-2.2302398681640625,-0.3029893385491653,1.6539924393558707,0.9674478156235874
1.177001953125,0.3286436200141907,0.702260434627533,0.04155958443880081,-2.878063201904297,-0.8199856877326965,-2.6589674949645996,-0.3245884307340286,1.6583339993002646,1.003287007182039
1.1871209144592285,0.3699854612350464,0.7809404730796814,0.07745063304901123,-2.20841383934021,-1.0567809343338013,-3.1381022930145264,-0.3512856570891129,1.6586205088951627,1.0327793795357088
1.197279930114746,0.42184799909591675,0.8241324424743652,0.09453725814819336,-1.7282044887542725,-1.1976388692855835,-3.678269147872925,-0.3836998647553833,1.6558810691325454,1.0568368111417619
1.2088837623596191,0.49477076530456543,0.8429985642433167,0.0772167295217514,-1.4966753721237183,-1.1646623611450195,-4.265821933746338,-0.42212749657258053,1.6521049234119727,1.0776913773185606
1.217383861541748,0.5883797407150269,0.7953629493713379,0.049263715744018555,-1.5874407291412354,-0.9927299618721008,-4.86958646774292,-0.4666096623880532,1.6501458673909362,1.0985141142394028
1.2275538444519043,0.6970059275627136,0.6909232139587402,0.006925113499164581,-2.0117547512054443,-0.5985626578330994,-5.404624938964844,-0.5164364647035077,1.6537699997487185,1.1234250062996267
1.2372889518737793,0.8263861536979675,0.6571013331413269,-0.05209159851074219,-2.4748005867004395,-0.04276031628251076,-5.95143985748291,-0.5711037756791758,1.6671603216759816,1.1555794196631015
1.2494797706604004,0.9411348104476929,0.6815229058265686,-0.11464381217956543,-2.7286152839660645,0.4712281823158264,-6.445338249206543,-0.630009884528819,1.6918806767474006,1.1952990248690296
1.2602477073669434,1.0259296894073486,0.6966206431388855,-0.08824516832828522,-2.5236496925354004,0.9186403751373291,-6.731448650360107,-0.6918644447270753,1.72654292785223,1.2403547727760613
1.2671308517456055,1.0832247734069824,0.712602436542511,-0.014614582061767578,-1.827094316482544,1.268030047416687,-6.887253284454346,-0.755184528385548,1.7672556284721967,1.2852080852496077
1.2770838737487793,1.0919883251190186,0.7001619935035706,-0.00437675416469574,-0.9936807751655579,1.4804757833480835,-6.994495391845703,-0.8200628794655537,1.809872215073414,1.325877526302188
1.2871968746185303,1.030347466468811,0.6363457441329956,0.0034363120794296265,-0.1913299709558487,1.6252199411392212,-7.0586838722229,-0.8865711099283802,1.8528110644316635,1.3621742151190475
1.2972416877746582,0.9698531031608582,0.5544213056564331,0.04950666427612305,0.5527629852294922,1.6596137285232544,-7.018640041351318,-0.9544588836390822,1.8946580226077332,1.3940355280136634
1.3074698448181152,0.9091411828994751,0.4304254651069641,0.04607413709163666,1.307479739189148,1.6661291122436523,-6.935306072235107,-1.0233879038989644,1.9338506550961625,1.4210172198593087
1.3172428607940674,0.8314422369003296,0.2850399613380432,0.02774690091609955,2.0650389194488525,1.5836924314498901,-6.779128074645996,-1.0934968726727214,1.9673632605563203,1.4407609330016098
1.3274497985839844,0.764643132686615,0.14272558689117432,-0.0031468868255615234,2.6287624835968018,1.4578779935836792,-6.689868927001953,-1.1647150182417574,1.9935616593659622,1.4528718055600702
1.3371338844299316,0.7411752939224243,0.03316754102706909,0.017771363258361816,3.0669283866882324,1.3191033601760864,-6.576349258422852,-1.237026502450753,2.0125159985383196,1.4583206295372741
1.3473949432373047,0.7422325611114502,-0.08475643396377563,0.042393460869789124,3.5249929428100586,1.157615303993225,-6.384655952453613,-1.3098644848470897,2.018873540807082,1.4520126877706294
1.3574128150939941,0.7275180816650391,-0.2369823455810547,0.02909337729215622,3.8256208896636963,0.9867227077484131,-6.154109477996826,-1.3823574697515406,2.0001332692013647,1.4218083875188339
1.3673887252807617,0.6866538524627686,-0.34325075149536133,0.023303862661123276,4.06038761138916,0.8138853907585144,-5.92943000793457,-1.453448378141893,1.920899354104574,1.332572753471583
1.3773818016052246,0.6521493196487427,-0.3819653391838074,0.059536099433898926,3.9131877422332764,0.6324617266654968,-5.685333251953125,-1.5188178835847643,1.5849689692178872,0.9883810595222424
1.38740873336792,0.6545575261116028,-0.3921658992767334,0.1349814534187317,3.818626642227173,0.4708251953125,-5.508682727813721,-1.5329172624428429,-0.10578734282419747,-0.7088913109469459
1.3975298404693604,0.7035297155380249,-0.39450258016586304,0.2341824769973755,3.5377085208892822,0.2676377594470978,-5.2555365562438965,-1.4763826751844846,-0.6564159233028349,-1.2641748614838064
1.4076557159423828,0.7339596152305603,-0.4920181632041931,0.27734214067459106,3.2967112064361572,0.13508504629135132,-5.115243434906006,-1.4163489700518226,-0.7856712103121108,-1.396375408724307
1.4174017906188965,0.7256324887275696,-0.5450380444526672,0.32774150371551514,3.0854899883270264,0.01056668721139431,-4.957031726837158,-1.357699634008437,-0.8462071395067838,-1.4586551033995434
1.4276089668273926,0.6596003174781799,-0.7013925909996033,0.3308423161506653,2.8618204593658447,-0.06999260187149048,-4.645617961883545,-1.3016430586160426,-0.8811597236528085,-1.4943156062625684
1.438114881515503,0.6004285216331482,-0.8112566471099854,0.3339732885360718,2.4913971424102783,-0.12213046848773956,-4.462215900421143,-1.2494615486774234,-0.9072633656587482,-1.5205725621771764
1.4475438594818115,0.557335376739502,-0.768696129322052,0.3558724522590637,2.2550456523895264,-0.15893881022930145,-4.279880523681641,-1.2001752314777516,-0.930116153962541,-1.5434000293816372
1.4580469131469727,0.5141893625259399,-0.8044275641441345,0.3730071783065796,1.9782904386520386,-0.2171521782875061,-3.967633008956909,-1.1542816966784164,-0.9494675018582907,-1.5622860241755188
1.4676380157470703,0.48670491576194763,-0.9022243022918701,0.3867200016975403,1.6605225801467896,-0.21327966451644897,-3.6406447887420654,-1.1126380933322961,-0.9666050653400258,-1.5787950519868459
1.4774928092956543,0.44644153118133545,-0.9516847133636475,0.40378910303115845,1.37350594997406,-0.16575273871421814,-3.2748899459838867,-1.0754427905230701,-0.9820355364771528,-1.593998679106848
1.4874987602233887,0.3997768461704254,-0.9785623550415039,0.4110995829105377,1.024104356765747,-0.12201642990112305,-2.8318111896514893,-1.0432809447376339,-0.9953383026034969,-1.6076212528422162
1.497511863708496,0.3862058222293854,-0.9461878538131714,0.4128105640411377,0.7332507371902466,-0.07137034088373184,-2.4647741317749023,-1.0162685385620354,-1.0079529075195848,-1.6211932437885979
1.507643699645996,0.38937345147132874,-0.8923736810684204,0.42378538846969604,0.5224756598472595,-0.03419501334428787,-2.0289697647094727,-0.9938158697426211,-1.0188487978638792,-1.63348235555066
1.5174379348754883,0.3731391131877899,-0.923072874546051,0.41145244240760803,0.35320502519607544,0.030188681557774544,-1.5727031230926514,-0.9761767461638895,-1.0274733706143926,-1.6437740418991253
1.5276069641113281,0.3366447985172272,-0.9456371068954468,0.39859235286712646,0.23909203708171844,0.12230183184146881,-1.123544454574585,-0.9631664108958602,-1.0333119901738719,-1.6517352552589826
1.5374999046325684,0.2795005738735199,-0.9546632766723633,0.37995344400405884,0.16850513219833374,0.2110588103532791,-0.6666980385780334,-0.9544423600973536,-1.0357410364772173,-1.6567219993770077
1.5478448867797852,0.24217438697814941,-0.9496569037437439,0.3643225133419037,0.13680072128772736,0.3000379502773285,-0.19349873065948486,-0.9499664704052859,-1.0344672581151164,-1.6583131444749901
1.5579748153686523,0.22222712635993958,-0.9403362274169922,0.35219767689704895,0.12238101661205292,0.3798506557941437,0.28871384263038635,-0.9497087260818824,-1.0292010799257076,-1.656012876214444
1.5678539276123047,0.21215301752090454,-0.9245278239250183,0.34094083309173584,0.12671318650245667,0.4777367413043976,0.765473484992981,-0.9535729492230599,-1.0195864813589999,-1.6494605549431467
1.5777897834777832,0.2016797661781311,-0.9041658639907837,0.3292546570301056,0.14203554391860962,0.5964286923408508,1.2423110008239746,-0.9613820061793087,-1.0050540640833725,-1.638243493244591
1.5881037712097168,0.18034151196479797,-0.9009032249450684,0.3201481103897095,0.15698520839214325,0.733970046043396,1.720743179321289,-0.9729998899278766,-0.9848770833450646,-1.6218084592228839
1.597898006439209,0.1577552855014801,-0.907737672328949,0.31190624833106995,0.1527436524629593,0.8766090869903564,2.2028839588165283,-0.9883530483212893,-0.958333627567291,-1.599569352904342
1.608102798461914,0.13942250609397888,-0.9150452613830566,0.3081727623939514,0.1394004225730896,1.0141184329986572,2.670459032058716,-1.0072359781042453,-0.9247642277402199,-1.570903038857897
1.6179418563842773,0.1313490867614746,-0.9189773201942444,0.3102048337459564,0.13516585528850555,1.1344369649887085,3.1212265491485596,-1.0291755873683086,-0.883179047332047,-1.5346932291791648
1.6310057640075684,0.13043034076690674,-0.9283010363578796,0.31680577993392944,0.11558789759874344,1.2510405778884888,3.576237201690674,-1.0537134526385838,-0.8320944881378574,-1.489340663994668
1.6405189037322998,0.130382239818573,-0.9402337074279785,0.32467979192733765,0.0723767802119255,1.3837021589279175,4.029237270355225,-1.0803943972367354,-0.7695795302948394,-1.433008637490097
1.6478090286254883,0.1303660273551941,-0.9439262747764587,0.3345893919467926,0.0035290017258375883,1.5237101316452026,4.48561954498291,-1.108583365261065,-0.6929848519782029,-1.363214443211249
1.6576919555664062,0.1415235698223114,-0.9428970217704773,0.34503039717674255,-0.0980803370475769,1.6592717170715332,4.932215213775635,-1.1373583791331583,-0.5991760110771037,-1.2768463669623964
1.6677029132843018,0.1722240149974823,-0.9311198592185974,0.3517110347747803,-0.23378489911556244,1.8093616962432861,5.36501407623291,-1.165393206743233,-0.4846027521280729,-1.1704240085289297
1.677682876586914,0.20819278061389923,-0.9160201549530029,0.3540213704109192,-0.44238463044166565,1.9506155252456665,5.771051406860352,-1.19097491123756,-0.34559853148329395,-1.0404055494333575
1.6878159046173096,0.23162046074867249,-0.8982101082801819,0.35306984186172485,-0.6955090165138245,2.081299066543579,6.134017467498779,-1.2120620882389301,-0.18036145999273404,-0.8849496313632913
1.6977620124816895,0.2561953365802765,-0.8870682120323181,0.3466925323009491,-0.9264647960662842,2.1721394062042236,6.479898929595947,-1.2255526470867957,0.010775534194699541,-0.7040873386024633
1.7080259323120117,0.29107919335365295,-0.8825740218162537,0.34143224358558655,-1.173719048500061,2.2223989963531494,6.7508625984191895,-1.2283801812111304,0.22045511600737971,-0.5048441563146204
1.7178277969360352,0.3120984435081482,-0.8745360970497131,0.33263006806373596,-1.3792325258255005,2.2158286571502686,6.97503137588501,-1.2183513841413043,0.43421629831215125,-0.3012674683206993
1.7279410362243652,0.3381088376045227,-0.870826244354248,0.31571874022483826,-1.5384637117385864,2.124246120452881,7.178208827972412,-1.1947031191672681,0.6357491007181099,-0.10898323178832953
1.737684726715088,0.41541415452957153,-0.8557813167572021,0.2938659191131592,-1.6634857654571533,2.000002145767212,7.376822471618652,-1.1582794191573105,0.8133270207423059,0.0609120168567296
1.747859001159668,0.5207496285438538,-0.7857685685157776,0.25333452224731445,-1.8253934383392334,1.939170479774475,7.560983180999756,-1.1111207743424054,0.9633498658958373,0.20464616527887258
1.7582077980041504,0.6038304567337036,-0.68575519323349,0.194627583026886,-2.080458402633667,1.9588602781295776,7.820184707641602,-1.0553055857856073,1.0894868320696918,0.32532343683623516
1.767770767211914,0.6768787503242493,-0.595737636089325,0.11859232187271118,-2.3879587650299072,2.0438904762268066,8.154455184936523,-0.9917395216122905,1.1973779080891283,0.4281432300528117
1.778090000152588,0.8015441298484802,-0.5171332955360413,0.04357518255710602,-2.6015753746032715,2.125182867050171,8.535958290100098,-0.9206374880395689,1.2899894319981149,0.5158274073836402
1.7878618240356445,0.991712212562561,-0.43714678287506104,-0.014102518558502197,-2.6591508388519287,2.1460907459259033,8.926475524902344,-0.8420351651905262,1.3680098887822274,0.5891213077550522
1.7980518341064453,1.2134695053100586,-0.323452889919281,-0.04742305725812912,-2.5653679370880127,2.069003105163574,9.28345012664795,-0.756629822882507,1.4317885060578892,0.6484357458187583
1.8082919120788574,1.4263334274291992,-0.17856436967849731,-0.04422421008348465,-2.2630369663238525,1.9081889390945435,9.59626579284668,-0.6653648316947242,1.4818504156562347,0.6944266556756911
1.818037986755371,1.6308825016021729,-0.027826249599456787,-0.0047348178923130035,-1.8225411176681519,1.6801406145095825,9.760588645935059,-0.5700597790715662,1.5192682328666378,0.7278948234267092
1.8278799057006836,1.8453893661499023,0.09169483184814453,0.07273775339126587,-1.2192789316177368,1.4428199529647827,9.821695327758789,-0.47262594109042316,1.545877106448547,0.7498231894198377
1.837815761566162,2.074500560760498,0.22421738505363464,0.14970332384109497,-0.4850541353225708,1.275813102722168,9.799074172973633,-0.3745351509014621,1.5640914915851576,0.760976933595813
1.84800386428833,2.2732715606689453,0.38815706968307495,0.1770029067993164,0.2862388789653778,1.1361438035964966,9.65711498260498,-0.27699246339470907,1.576569871243009,0.7620253517295229
1.8581178188323975,2.3288164138793945,0.5816153883934021,0.13468194007873535,0.9147436618804932,0.8557881712913513,9.103622436523438,-0.1827826133136319,1.5851114778883306,0.7547060431474427
1.8678638935089111,2.1936821937561035,0.758999228477478,0.09847056865692139,1.157354712486267,0.22673004865646362,8.085782051086426,-0.09671171509805901,1.589096416398964,0.7424709896716915
1.8779797554016113,1.8865915536880493,0.7913029789924622,0.18115580081939697,0.8777010440826416,-0.7179979085922241,6.831003189086914,-0.02211430174845187,1.5860714843800008,0.7306280101806458
1.887876033782959,1.5386574268341064,0.7336850762367249,0.33682286739349365,0.2164088785648346,-1.4673289060592651,5.569822788238525,0.039832748640787514,1.5745986813831516,0.7244804935776954
1.8982629776000977,1.233235478401184,0.7212371230125427,0.44533902406692505,-0.43778231739997864,-0.9931176900863647,4.238033771514893,0.08909183169250547,1.5622214910687535,0.7254739338519178
1.9081759452819824,0.8286252021789551,0.6872826814651489,0.3237811326980591,-1.1844358444213867,-0.7005071043968201,3.002717971801758,0.12518574748965935,1.5524586892167733,0.7341991726024617
1.917928695678711,0.3128429651260376,0.4772418737411499,0.1239393949508667,-1.619681715965271,-0.2850969731807709,1.918847680091858,0.1493511365679156,1.5453874785091268,0.7490086283312966
1.9277698993682861,0.15075379610061646,0.23356622457504272,-0.05131465196609497,-1.8409560918807983,0.29990312457084656,1.0061448812484741,0.16350836690004436,1.542599360272264,0.7670814864364818
1.9378108978271484,0.1879558563232422,0.06375379860401154,-0.22086554765701294,-1.9034355878829956,0.8631186485290527,0.16667158901691437,0.16875601247549774,1.5453568307646677,0.7863159899334277
1.9478187561035156,0.22536146640777588,0.13031639158725739,-0.3242858648300171,-1.832944631576538,1.2098031044006348,-0.43741485476493835,0.16680981205165094,1.55266668153237,0.8053522132871299
1.9579639434814453,0.24535101652145386,0.3028203845024109,-0.33807873725891113,-1.7326654195785522,1.2192604541778564,-0.916123628616333,0.15979233364855747,1.5621463136789593,0.8232797608392919
1.9680500030517578,0.2935318350791931,0.40875008702278137,-0.2624509334564209,-1.761605978012085,1.109911322593689,-1.2470896244049072,0.1487697507881845,1.5711202784259548,0.840936922136101
1.9779648780822754,0.3432503342628479,0.5438238978385925,-0.14763784408569336,-1.853554368019104,0.9657449722290039,-1.2893692255020142,0.13599384902037048,1.578968244510548,0.859218680769118
1.9880800247192383,0.36010968685150146,0.6866036057472229,-0.060811638832092285,-1.926788091659546,0.8317522406578064,-1.1363099813461304,0.12399395931364733,1.5854719776175954,0.8785022885484088
1.9979357719421387,0.3498707413673401,0.7043600082397461,-0.008267998695373535,-1.924700379371643,0.7076510190963745,-0.8837765455245972,0.11421518803703944,1.590885021257152,0.8981535898654515
2.008692741394043,0.3141782283782959,0.6463014483451843,0.02445518970489502,-1.7710013389587402,0.5440767407417297,-0.6502905488014221,0.10698528121062831,1.595127881165179,0.9170281853025329
2.017974853515625,0.2735576033592224,0.6504762172698975,0.04443526268005371,-1.54556143283844,0.3470469117164612,-0.4252716302871704,0.10205413534312224,1.5978707610450882,0.9338395075761587
2.0282928943634033,0.19982671737670898,0.6544402837753296,0.052047248929739,-1.3864036798477173,0.1990388184785843,-0.2492222934961319,0.09912165401349075,1.5991228200554581,0.9486322624591425
2.0381979942321777,0.09322792291641235,0.6235005855560303,0.05035066604614258,-1.2905982732772827,0.091440849006176,-0.08665990829467773,0.09780815673536183,1.5993367515378147,0.9621111711538449
2.048205852508545,-0.015023946762084961,0.5677483677864075,0.025409812107682228,-1.2052834033966064,0.002819108311086893,0.07088577747344971,0.09810288281000326,1.5986399773694977,0.9746560035567572
2.0583620071411133,-0.1023714542388916,0.5251529216766357,0.004447460174560547,-1.1308238506317139,-0.05500761419534683,0.17045770585536957,0.09965875069792923,1.5972450784617231,0.9863568403711268
2.068042755126953,-0.18533724546432495,0.5044306516647339,-0.01177668571472168,-1.0478236675262451,-0.09628767520189285,0.25724586844444275,0.10205045421634455,1.595429608988402,0.9972656516636774
2.0784108638763428,-0.2586393356323242,0.4974430799484253,-0.02554488368332386,-0.9816330671310425,-0.12652303278446198,0.3511468172073364,0.1053497418359923,1.5932788344531037,1.0073744677143797
2.0898098945617676,-0.3126835823059082,0.5081743001937866,-0.026775481179356575,-0.9536610841751099,-0.12913639843463898,0.4149005115032196,0.10939036076960555,1.5909647417842911,1.0170155838073696
2.098268985748291,-0.3576369285583496,0.5234314799308777,-0.018797757104039192,-0.9263483285903931,-0.11462261527776718,0.4757224917411804,0.11401045485484826,1.5887043975324808,1.026400223308643
2.1082077026367188,-0.385878324508667,0.5439114570617676,-0.013576747849583626,-0.8751826286315918,-0.09808331727981567,0.5303233861923218,0.119190537239768,1.586591646915838,1.035422558350983
2.1182098388671875,-0.39104658365249634,0.5735302567481995,-0.011760951019823551,-0.789692759513855,-0.08595079183578491,0.5746247172355652,0.1248493447970388,1.5846801199584057,1.043746040039723
2.128567695617676,-0.38250732421875,0.6050657033920288,-0.0114670991897583,-0.6899662017822266,-0.09244384616613388,0.5811848640441895,0.13073696214450264,1.5828550997551805,1.051162998435196
2.138223886489868,-0.36568909883499146,0.630085289478302,-0.008071900345385075,-0.5849992036819458,-0.08552984148263931,0.5802851319313049,0.13662883098567796,1.5811162767852867,1.0575045215449783
2.148181915283203,-0.345231831073761,0.6441371440887451,-0.011298061348497868,-0.5166904330253601,-0.06908481568098068,0.5375461578369141,0.1422976056440697,1.5795741142282997,1.0630148735941791
2.15812087059021,-0.3254745602607727,0.654901385307312,-0.01489412784576416,-0.44950830936431885,-0.050756413489580154,0.4771069288253784,0.14742403171071727,1.5782798350545786,1.0678536120861974
2.1687369346618652,-0.2999745011329651,0.6560121178627014,-0.018021345138549805,-0.3698408901691437,-0.024711497128009796,0.3872052729129791,0.15178791100432473,1.5772804596918042,1.0719873743311976
2.1781508922576904,-0.27477461099624634,0.6557235717773438,-0.014600396156311035,-0.2654176950454712,0.005186569411307573,0.2794400453567505,0.15515526996228513,1.5766939261075996,1.0751999389289013
2.1880927085876465,-0.2564741373062134,0.6500884890556335,-0.008538246154785156,-0.1560581624507904,0.04226762428879738,0.13353930413722992,0.15725135821419234,1.5766142476579117,1.0773239974021427
2.1981639862060547,-0.2317568063735962,0.6423074007034302,-0.0022915606386959553,-0.045479170978069305,0.06415814161300659,-0.021932415664196014,0.15780848237558234,1.5769950742263443,1.0783473548875124
2.2081379890441895,-0.19390684366226196,0.6316403150558472,-6.555579602718353e-06,0.057546813040971756,0.08989360183477402,-0.18987321853637695,0.15675675087725177,1.5777703331370507,1.0782742032153774
2.2182040214538574,-0.14742183685302734,0.6268459558486938,-0.004212020896375179,0.1341208964586258,0.11981426179409027,-0.38285157084465027,0.15388090892651318,1.5789810116233374,1.0773301773177006
2.228315830230713,-0.10146826505661011,0.6262396574020386,-0.014978766441345215,0.19914783537387848,0.13584835827350616,-0.5673093199729919,0.14909995907488086,1.5805275742042546,1.0756579807257143
2.2396938800811768,-0.05637317895889282,0.6162494421005249,-0.020881056785583496,0.18545246124267578,0.14779041707515717,-0.7875451445579529,0.14228765599281915,1.5822260058524218,1.0737374396566586
2.249110698699951,-0.021388649940490723,0.5973315238952637,-0.02690291404724121,0.11654450744390488,0.17280788719654083,-0.9968453645706177,0.13332499994517566,1.5840078472111443,1.0722817492638237
2.2583627700805664,-0.002848207950592041,0.5639845132827759,-0.031736135482788086,-0.019457589834928513,0.22828060388565063,-1.1917414665222168,0.12233394291002478,1.5860456376158159,1.0719127102801076
2.2683768272399902,0.01241600513458252,0.5202409625053406,-0.03292357921600342,-0.1543688029050827,0.29044410586357117,-1.370294213294983,0.10949477285108605,1.5885226406550892,1.0730362629447647
2.2783708572387695,0.028662919998168945,0.47945404052734375,-0.029351353645324707,-0.2391202300786972,0.3315792679786682,-1.5275479555130005,0.09501454280258986,1.5914074279501242,1.0753262147007745
2.289787769317627,0.05537229776382446,0.4533300995826721,-0.01716947741806507,-0.275019109249115,0.3794029951095581,-1.6926088333129883,0.07896155927115182,1.594710872774845,1.0782984127456592
2.298480987548828,0.08991813659667969,0.4519522786140442,-0.013138651847839355,-0.2419135719537735,0.3826148211956024,-1.8459662199020386,0.06128946531540893,1.5983489155139448,1.0813951997384472
2.308612823486328,0.13456284999847412,0.452244371175766,-0.03080141171813011,-0.15553633868694305,0.34605148434638977,-1.9935599565505981,0.042131215712564646,1.601844049129092,1.0839728129421475
2.3184967041015625,0.17559581995010376,0.4333208203315735,-0.038062337785959244,-0.06756223738193512,0.34089457988739014,-2.1397435665130615,0.021457318557070153,1.6051961790405445,1.085763460616227
2.3288228511810303,0.18670505285263062,0.4001827836036682,-0.04976928234100342,0.029777098447084427,0.3455955982208252,-2.265186309814453,-0.0005892072088565871,1.6086271898482527,1.0867520084368356
2.3399100303649902,0.18405640125274658,0.3542206287384033,-0.06489264965057373,0.11953746527433395,0.33228641748428345,-2.3681135177612305,-0.02381803893540104,1.6120461231158878,1.0869100542136052
2.3484277725219727,0.20192891359329224,0.3062540888786316,-0.06493163108825684,0.1951155662536621,0.28678709268569946,-2.437084436416626,-0.04795118923952505,1.6151179171453511,1.0863425423016744
2.35850191116333,0.22102826833724976,0.272668719291687,-0.05320203676819801,0.21321651339530945,0.27229905128479004,-2.4824228286743164,-0.07268629323017017,1.6178228853004606,1.0853977475492353
2.368288993835449,0.22451502084732056,0.23953783512115479,-0.048296451568603516,0.20145785808563232,0.29361313581466675,-2.4766626358032227,-0.09762266690817852,1.6205710577809436,1.0845196776568096
2.378466844558716,0.22079747915267944,0.2059657871723175,-0.05599486827850342,0.20283235609531403,0.3218546211719513,-2.431703805923462,-0.12231126406052832,1.6235784385887062,1.0837761748343306
2.389418840408325,0.22191739082336426,0.18711590766906738,-0.06400942802429199,0.2486182302236557,0.3672250509262085,-2.342676877975464,-0.1463526612479185,1.6268898121998059,1.0828496618152263
2.3988308906555176,0.2335648536682129,0.17654122412204742,-0.07982265949249268,0.36061224341392517,0.4271458387374878,-2.2137718200683594,-0.1693444370158141,1.6305898217733412,1.081166043416805
2.4086828231811523,0.26370418071746826,0.17531760036945343,-0.09774089604616165,0.5582438111305237,0.47872114181518555,-2.052670955657959,-0.19096849744631786,1.6345520553968,1.0778706422459752
2.4184627532958984,0.31573307514190674,0.17919796705245972,-0.11750710755586624,0.8013665676116943,0.4927343428134918,-1.9192650318145752,-0.21125527362395688,1.6382948964012358,1.072312677889284
2.4283878803253174,0.3798261284828186,0.20253697037696838,-0.13190782070159912,1.0711373090744019,0.4749404489994049,-1.8042529821395874,-0.230513985659056,1.6413650440462348,1.0639997860985195
2.439542770385742,0.4351807236671448,0.21656177937984467,-0.14993810653686523,1.2825030088424683,0.40561628341674805,-1.7378640174865723,-0.2490321770270306,1.6431795626118335,1.053179911499442
2.448640823364258,0.46159249544143677,0.20991390943527222,-0.13750672340393066,1.4705517292022705,0.3729667365550995,-1.7084909677505493,-0.2672709736683938,1.643740446848956,1.0402320990032368
2.4586029052734375,0.448081910610199,0.17174425721168518,-0.1194521114230156,1.568301796913147,0.30905649065971375,-1.7144534587860107,-0.28543935740835297,1.6432055233938379,1.025688099955654
2.468742847442627,0.4333157539367676,0.14409294724464417,-0.09068286418914795,1.6128708124160767,0.20410557091236115,-1.8715733289718628,-0.30441947399753294,1.6413412581319298,1.0103811526147548
2.478606700897217,0.4516324996948242,0.14125525951385498,-0.035479068756103516,1.6040265560150146,0.03456869348883629,-2.09150767326355,-0.32539404994593507,1.637760546492309,0.9948821871862422
2.4895520210266113,0.493261456489563,0.10374760627746582,0.010538704693317413,1.5171384811401367,-0.14349745213985443,-2.3080050945281982,-0.34840280551821823,1.6321568135456284,0.9797459998894431
2.498610019683838,0.5399210453033447,0.07329270243644714,0.04107702523469925,1.3459585905075073,-0.2795814275741577,-2.6298768520355225,-0.3739614037592717,1.625095568101299,0.9659337239175566
2.508607864379883,0.564365804195404,0.07618337869644165,0.053022388368844986,1.1379203796386719,-0.37857112288475037,-2.970306873321533,-0.40285654311211344,1.6171583209280285,0.9539691169100759
2.518819808959961,0.5849779844284058,0.07903492450714111,0.04831623658537865,0.8626818060874939,-0.45547500252723694,-3.326591730117798,-0.4352828658055455,1.6088124614414339,0.944315318025336
2.52878999710083,0.6257487535476685,0.11545237898826599,0.039052486419677734,0.6248120069503784,-0.5732458233833313,-3.8372650146484375,-0.4714099966314876,1.6006299915099202,0.9373993096173783
2.5398519039154053,0.6837796568870544,0.15829607844352722,0.06158638000488281,0.32799461483955383,-0.7582430243492126,-4.400277614593506,-0.5127947537901083,1.5919143498635306,0.93303208858529
2.5487070083618164,0.7653563022613525,0.15419167280197144,0.09428083896636963,-0.08928169310092926,-0.8901938796043396,-5.104597568511963,-0.5603075837148052,1.5833738254035454,0.9325513002950298
2.5587728023529053,0.8652737736701965,0.17103874683380127,0.12768924236297607,-0.5669207572937012,-0.9532806873321533,-5.787999629974365,-0.6149672834843729,1.5765459452136474,0.9370495583668785
2.568971872329712,0.96451336145401,0.1638345718383789,0.1181936264038086,-1.0667988061904907,-0.8963257670402527,-6.312299728393555,-0.6755995030733802,1.5736136455176377,0.9476447290279544
2.578890800476074,1.0626426935195923,0.2082446813583374,0.06014227867126465,-1.3328582048416138,-0.7388110756874084,-6.700778961181641,-0.7408131947752162,1.5760802074949853,0.9640759961210021
2.591240882873535,1.1280019283294678,0.28982895612716675,0.024105191230773926,-1.288402795791626,-0.5778498649597168,-6.982175827026367,-0.8092896356481005,1.583097609632891,0.983494876212923
2.5989789962768555,1.185042381286621,0.35993945598602295,0.011839868500828743,-1.0466035604476929,-0.40418341755867004,-7.130835056304932,-0.8798054145483993,1.5928034040642747,1.0030903000167422
2.608978748321533,1.242424726486206,0.3928567171096802,-0.015272736549377441,-0.7351241707801819,-0.19330020248889923,-7.206799507141113,-0.9513849975655397,1.6039170570452062,1.0209220143539615
2.6189489364624023,1.2662534713745117,0.3358592391014099,-0.06043899059295654,-0.3746524453163147,-0.02787950448691845,-7.1875901222229,-1.02322680388131,1.6155354817520262,1.0361128450972592
2.628919839859009,1.2596391439437866,0.2347484827041626,-0.07890629768371582,-0.03906113654375076,0.06705392897129059,-7.1385722160339355,-1.094757620288511,1.6257712453992692,1.0476039541686861
2.640018939971924,1.2545702457427979,0.14865899085998535,-0.04593610763549805,0.16833360493183136,0.08852194249629974,-7.119053363800049,-1.166036196687194,1.63397697607528,1.055791389715165
2.648944854736328,1.2585475444793701,0.11500602960586548,0.01052546501159668,0.38613542914390564,0.04265005141496658,-7.094493389129639,-1.2372889740919035,1.6397530647794951,1.0612091805083457
2.658918857574463,1.2879728078842163,0.13312429189682007,0.07901334762573242,0.6062059998512268,-0.04480376094579697,-6.981046199798584,-1.3079180626439249,1.6392452142862075,1.0607390886257217
2.669034957885742,1.3048028945922852,0.14600425958633423,0.13100886344909668,0.869941771030426,-0.10809564590454102,-6.877950191497803,-1.3776585167332787,1.6251369080517322,1.0470390575454422
2.679022789001465,1.257659912109375,0.10809922218322754,0.1428821086883545,1.0026674270629883,-0.15747962892055511,-6.726739883422852,-1.4460343345108209,1.5777971927890753,1.0005071202421059
2.6899490356445312,1.1663696765899658,0.022368133068084717,0.1284525990486145,1.103708028793335,-0.15865513682365417,-6.630134582519531,-1.5120852777860359,1.4035216042068632,0.8272176997162756
2.6989917755126953,1.0830392837524414,-0.05442690849304199,0.13684099912643433,1.225780963897705,-0.16032366454601288,-6.497107982635498,-1.5479648724381174,-0.3528596954724085,-0.9282192566784425
2.7090067863464355,0.989154040813446,-0.19907617568969727,0.12511473894119263,1.3527697324752808,-0.1707153171300888,-6.2803168296813965,-1.4910384716677987,-1.1249795766612358,-1.6993283511377277
2.719104766845703,0.889687716960907,-0.3558444380760193,0.11207854747772217,1.1506507396697998,-0.13496877253055573,-6.110519886016846,-1.4289314004280573,-1.233997273579824,-1.8073767977233703
2.7289857864379883,0.8246292471885681,-0.3797149658203125,0.14317405223846436,1.0814626216888428,-0.0831843912601471,-6.005080223083496,-1.3676996390044838,-1.2815805070338366,-1.8545852563524245
2.7400779724121094,0.797484278678894,-0.40399348735809326,0.17759478092193604,1.0293848514556885,-0.08202867209911346,-5.784726142883301,-1.3080087007832348,-1.3077463094511976,-1.8806301972341941
2.749131679534912,0.7759368419647217,-0.5701253414154053,0.19399166107177734,1.0260285139083862,-0.06100114807486534,-5.508495330810547,-1.250682345786374,-1.3230314530086396,-1.8958130208312138
2.75919771194458,0.7313334941864014,-0.6876041293144226,0.20478308200836182,0.8651120066642761,-0.014595834538340569,-5.180285453796387,-1.1964672437913888,-1.3326198015575252,-1.9056149463519843
2.7695369720458984,0.7027488946914673,-0.6396678686141968,0.21435612440109253,0.7711710929870605,0.05153418332338333,-5.092428684234619,-1.1446672404950518,-1.3424913666910459,-1.9165345513013057
2.779181957244873,0.7396368980407715,-0.47552722692489624,0.27020812034606934,0.8323084115982056,0.02064741775393486,-4.8587141036987305,-1.0941798008194243,-1.3488536688856831,-1.9240588399937895
2.7901439666748047,0.7643008232116699,-0.585915744304657,0.24541157484054565,0.9117861986160278,0.04001818597316742,-4.599539279937744,-1.0461224764085324,-1.3519816287633588,-1.9278678874408086
2.7991390228271484,0.740756094455719,-0.749382734298706,0.2183922529220581,0.9806013703346252,0.11277108639478683,-4.387368202209473,-1.0001387403540167,-1.3520737565540768,-1.9288714887610376
2.809079885482788,0.6468707323074341,-0.8632186651229858,0.167497918009758,1.1074649095535278,0.16777202486991882,-4.12443208694458,-0.9562420948517638,-1.3493931883697883,-1.9273495782199366
2.8191168308258057,0.5849750638008118,-0.9030016660690308,0.13758540153503418,1.216164469718933,0.18829336762428284,-3.7694523334503174,-0.9150185981330795,-1.3440003823738076,-1.9228793271674085
2.8293468952178955,0.5658015608787537,-0.8893939852714539,0.13794690370559692,1.2387382984161377,0.22284601628780365,-3.452028512954712,-0.8770879137315495,-1.3374254665670529,-1.9170767430760427
2.840353012084961,0.564274787902832,-0.8159041404724121,0.16373687982559204,1.3115242719650269,0.2291344404220581,-3.071488618850708,-0.8422699652974992,-1.3296349238286713,-1.909829558645059
2.849500894546509,0.5484999418258667,-0.8104467391967773,0.17747175693511963,1.3676817417144775,0.19793471693992615,-2.6133501529693604,-0.8114077256390124,-1.3208904111650133,-1.900827464576564
2.859522819519043,0.5242955684661865,-0.8436424732208252,0.19125045835971832,1.3812131881713867,0.18233293294906616,-2.1435253620147705,-0.7849236993269435,-1.3115156015913039,-1.8903467794983608
2.869288921356201,0.4801269769668579,-0.8744605183601379,0.2003939151763916,1.3508026599884033,0.1709146499633789,-1.6660189628601074,-0.7629407474977579,-1.3017387822865911,-1.878841181561522
2.8794238567352295,0.43336981534957886,-0.8942251801490784,0.2052127718925476,1.2935436964035034,0.16289514303207397,-1.1683433055877686,-0.7456932978988992,-1.2917262575522268,-1.8666451633956525
2.890151023864746,0.4020746350288391,-0.8980383276939392,0.20828188955783844,1.2160528898239136,0.13509014248847961,-0.6526240706443787,-0.7334223678469771,-1.2815441413622557,-1.8537655438028262
2.8993618488311768,0.3831726908683777,-0.8941004872322083,0.20989030599594116,1.1246373653411865,0.1032448261976242,-0.135396346449852,-0.7262551764121594,-1.271348686408871,-1.8402568345266317
2.909425735473633,0.37120699882507324,-0.8848510384559631,0.2120203971862793,1.0186222791671753,0.06858937442302704,0.38157036900520325,-0.7242125988794691,-1.261089781630516,-1.8260791419777265
2.9195058345794678,0.35054510831832886,-0.885850727558136,0.21550752222537994,0.8855730295181274,0.029904788359999657,0.8930462002754211,-0.7273442646072423,-1.250840667288943,-1.8113023070350034
2.929588794708252,0.3220750689506531,-0.8989967107772827,0.21873396635055542,0.7285203337669373,0.03769906237721443,1.3964505195617676,-0.7356184861158652,-1.2403423262519822,-1.7960695115138836
2.9401419162750244,0.29068559408187866,-0.9220596551895142,0.21258091926574707,0.5694431066513062,0.034017596393823624,1.8955456018447876,-0.7490459989016818,-1.2293787367635465,-1.780388367822197
2.9497079849243164,0.2639387249946594,-0.9322150945663452,0.21613135933876038,0.42703643441200256,0.02213883399963379,2.3724513053894043,-0.7674472148329723,-1.2177591090842428,-1.763908602621279
2.959652900695801,0.2479892373085022,-0.9363621473312378,0.21420636773109436,0.2900727391242981,0.011264258995652199,2.831857442855835,-0.7905795580702802,-1.2052441385486479,-1.746313938120723
2.9695849418640137,0.23298048973083496,-0.9502238035202026,0.20883461833000183,0.17087899148464203,0.015490961261093616,3.308603048324585,-0.8183575069734166,-1.1912739904640977,-1.7270945551120727
2.97951078414917,0.2233789563179016,-0.9514069557189941,0.20401102304458618,0.05270091071724892,0.04275614023208618,3.7844009399414062,-0.8508212618450031,-1.1750530595648736,-1.70557828956461
2.9944589138031006,0.2251092791557312,-0.9185472130775452,0.19874420762062073,-0.0362396165728569,0.0704205259680748,4.253533840179443,-0.8877665073408935,-1.1556159177861443,-1.6808911469182501
3.0013267993927,0.24385696649551392,-0.8626041412353516,0.19623252749443054,-0.12701471149921417,0.07453355193138123,4.716619968414307,-0.9289969758278844,-1.1319880531553947,-1.651861692412491
3.0094869136810303,0.27593839168548584,-0.782329797744751,0.20260924100875854,-0.2288113683462143,0.054372090846300125,5.1217122077941895,-0.9740898442448814,-1.1032567637905915,-1.617396096503616
3.0197019577026367,0.29404592514038086,-0.6901314854621887,0.21584388613700867,-0.38853421807289124,0.029690846800804138,5.441654682159424,-1.0223577033970124,-1.0687696340032131,-1.5768618272078776
3.0297417640686035,0.2809298038482666,-0.6374067664146423,0.21100646257400513,-0.5514028072357178,0.019761517643928528,5.739626407623291,-1.073215764028079,-1.027172166545277,-1.529140451678082
3.0402348041534424,0.24764278531074524,-0.6518793702125549,0.19158267974853516,-0.6712934970855713,0.004705824889242649,6.043134689331055,-1.1262248288681,-0.9746594163031854,-1.470372986778747
3.0503029823303223,0.2184326946735382,-0.6945083141326904,0.1600792557001114,-0.761185884475708,0.005080265458673239,6.297833442687988,-1.180413712309255,-0.90554315333742,-1.3948157277881423
3.0597519874572754,0.19993464648723602,-0.7404035329818726,0.13573165237903595,-0.8535597324371338,0.06982530653476715,6.596107482910156,-1.2345090890358625,-0.8101725495655646,-1.2932121709199966
3.069856882095337,0.20600710809230804,-0.7658083438873291,0.1210000067949295,-0.995803713798523,0.13624322414398193,6.9273881912231445,-1.287245374541573,-0.6726624827848654,-1.1499719030145998
3.0797998905181885,0.2710079848766327,-0.6576195955276489,0.12685920298099518,-1.0651485919952393,0.1501973271369934,7.184202671051025,-1.3343629062475644,-0.4679217636890432,-0.9397912613209797
3.0905978679656982,0.36930808424949646,-0.4690549969673157,0.16750706732273102,-1.0457876920700073,0.07034217566251755,7.344310283660889,-1.3676978031774567,-0.17119383116561213,-0.6370579175832685
3.0997767448425293,0.45435598492622375,-0.3033987879753113,0.2328588366508484,-0.9631788730621338,-0.03835052251815796,7.4504899978637695,-1.376871170351638,0.20009801496640778,-0.2586598966458862
3.109790802001953,0.488637775182724,-0.2219233512878418,0.27048259973526,-0.8791532516479492,-0.14299757778644562,7.526531219482422,-1.3574366275235932,0.5553640862522707,0.10486417544103474
3.119729995727539,0.47779491543769836,-0.22092276811599731,0.27568650245666504,-0.8229962587356567,-0.17783842980861664,7.521151065826416,-1.3157737311670124,0.8212843029356861,0.37980831033577556
3.1301488876342773,0.460006445646286,-0.27157992124557495,0.2685199975967407,-0.750356137752533,-0.11486584693193436,7.538829326629639,-1.260803118107468,1.000592584673685,0.567956001372138
3.1409177780151367,0.4825286567211151,-0.33036231994628906,0.20876719057559967,-0.705589771270752,0.042860668152570724,7.559832572937012,-1.1982148798720742,1.1220991362862591,0.697295833203926
3.149874687194824,0.5601364374160767,-0.3040510416030884,0.1310519129037857,-0.6447051167488098,0.3162064552307129,7.541001796722412,-1.1313869756933355,1.2078268474539973,0.7886442142760511
3.1596639156341553,0.6307234764099121,-0.24439960718154907,0.05381286144256592,-0.6098368167877197,0.6769289374351501,7.590706825256348,-1.0617909334389075,1.272177627792926,0.8553844604030617
3.1697449684143066,0.6630797982215881,-0.20764178037643433,-0.03812326490879059,-0.6360058188438416,1.063227891921997,7.70999813079834,-0.9897003501018242,1.324808042764883,0.9067155617190764
3.179792881011963,0.6870443224906921,-0.168468177318573,-0.11415338516235352,-0.6522290706634521,1.4740254878997803,7.8604607582092285,-0.9151338701567645,1.3706751982899674,0.9473820253754802
3.1907787322998047,0.738196849822998,-0.12658894062042236,-0.1603345274925232,-0.5568389296531677,1.8471399545669556,8.03510570526123,-0.83794946178824,1.4117586291301132,0.9790828510857622
3.199716806411743,0.8294898271560669,-0.05877208709716797,-0.1974729299545288,-0.25180232524871826,2.1253788471221924,8.227323532104492,-0.757929078708827,1.447779087068131,1.001456297117166
3.2096710205078125,0.9581553936004639,0.012881278991699219,-0.1978965401649475,0.16696858406066895,2.2987513542175293,8.363704681396484,-0.6753428740157976,1.4782182449010937,1.0139246734138487
3.2196407318115234,1.1256611347198486,0.08061003684997559,-0.15611869096755981,0.7473724484443665,2.388489246368408,8.406713485717773,-0.591276043461167,1.5034674193857849,1.0167309368056234
3.229813814163208,1.3215668201446533,0.18118169903755188,-0.1093171238899231,1.4995859861373901,2.4385690689086914,8.465522766113281,-0.5063650939864045,1.523794529819637,1.0093638333030277
3.2401528358459473,1.5110867023468018,0.35152167081832886,-0.10151886940002441,2.3009109497070312,2.4598660469055176,8.479333877563477,-0.42076354827762275,1.540553453455416,0.9916888711476554
3.2494118213653564,1.6740813255310059,0.6409814357757568,-0.1480225920677185,2.866755962371826,2.302461624145508,8.218771934509277,-0.33633195334582255,1.5550000971521538,0.9657127258237654
3.2593698501586914,1.7356280088424683,0.9326135516166687,-0.13338840007781982,2.872870922088623,1.7373675107955933,7.468605041503906,-0.2571937125086882,1.5668953229184854,0.9358929677308486
3.269434928894043,1.6259760856628418,1.0032621622085571,0.020520925521850586,1.9847159385681152,0.6731725931167603,6.328014850616455,-0.18799827337755975,1.5735634948227313,0.9104804745325401
3.2793989181518555,1.3924278020858765,0.8061078190803528,0.35689258575439453,0.5398107767105103,-0.7173565030097961,5.1497416496276855,-0.13060341871163447,1.5714073354589293,0.8972849602256507
3.2900099754333496,1.1450364589691162,0.5450555682182312,0.735688328742981,-0.9976845979690552,-1.8717752695083618,4.043724060058594,-0.08468418806428232,1.5581000582098008,0.9000629162103069
3.299384832382202,0.9187013506889343,0.4088362455368042,0.8704502582550049,-1.9104108810424805,-1.6159429550170898,3.0522491931915283,-0.04940519841045264,1.5410037706243278,0.9157489928784895
3.3094828128814697,0.6441255807876587,0.33918002247810364,0.6671250462532043,-2.8188979625701904,-1.3950741291046143,2.018075466156006,-0.02503454621394432,1.5269805458703443,0.9403897089675206
3.319424867630005,0.29544597864151,0.18081262707710266,0.3597677946090698,-3.3261947631835938,-1.0064001083374023,1.0891551971435547,-0.011082053707376645,1.515455686591918,0.9721042459804409
3.329584836959839,0.2593303322792053,0.0881655365228653,0.12360399961471558,-3.4449262619018555,-0.5805723667144775,0.25888630747795105,-0.006454153238418915,1.507772656847097,1.0066289349990794
3.3400018215179443,0.4131617546081543,0.12275239825248718,-0.1411665678024292,-3.195359945297241,-0.12907887995243073,-0.40644335746765137,-0.00946504134800707,1.5044835599287305,1.0399116078933175
3.3498198986053467,0.42081063985824585,0.2358606606721878,-0.27692753076553345,-2.785259485244751,0.28253984451293945,-0.8929397463798523,-0.018046469464855254,1.5057486665289361,1.0693936426240849
3.360365867614746,0.33059197664260864,0.30722489953041077,-0.3464924097061157,-2.512946128845215,0.5736188292503357,-1.1870824098587036,-0.030120854474302135,1.5107772875229615,1.0950513042455143
3.3698978424072266,0.2893944978713989,0.3134979009628296,-0.3278261423110962,-2.4078376293182373,0.7758009433746338,-1.4023696184158325,-0.044533679564492896,1.5184198581237887,1.11887064752467
3.3797287940979004,0.2858768701553345,0.33984842896461487,-0.2737535238265991,-2.400150775909424,0.9460973739624023,-1.4558428525924683,-0.060059405072678256,1.5282985299444947,1.1421948899263117
3.3902640342712402,0.24263912439346313,0.39577022194862366,-0.24643748998641968,-2.3404273986816406,1.099741816520691,-1.3710390329360962,-0.0751561352378667,1.540195823312608,1.1655367768096354
3.3996357917785645,0.18973422050476074,0.46502813696861267,-0.18917030096054077,-2.1410958766937256,1.1520024538040161,-1.179206132888794,-0.0885082969557739,1.5533853455368796,1.187834784433633
3.4098587036132812,0.14087837934494019,0.526202380657196,-0.13262295722961426,-1.7693614959716797,1.0848604440689087,-0.9390422701835632,-0.09932698086976206,1.5665423667274274,1.2074566749289668
3.4197068214416504,0.10917460918426514,0.5631484389305115,-0.07129740715026855,-1.3296194076538086,0.9161519408226013,-0.6902543902397156,-0.10746837633609817,1.5781870171486259,1.2230781529827672
3.42989182472229,0.05644989013671875,0.5396490693092346,-0.00528276152908802,-0.9498007297515869,0.724068284034729,-0.4759517014026642,-0.11316481504269776,1.587708645239857,1.2345829994204582
3.4400548934936523,-0.030103027820587158,0.4691605269908905,0.03907895088195801,-0.6726425886154175,0.5691761374473572,-0.272025465965271,-0.11672127907653891,1.5951178583500052,1.2427789265913998
3.4499030113220215,-0.13364505767822266,0.38239264488220215,0.06464517116546631,-0.4880565106868744,0.43234238028526306,-0.10559280216693878,-0.11843323563868378,1.6008333629365707,1.2486256367618738
3.4597318172454834,-0.22541171312332153,0.3026112914085388,0.07413661479949951,-0.3580109179019928,0.31029394268989563,0.049422670155763626,-0.11857998076746365,1.6050614930218552,1.2528808401449687
3.469904899597168,-0.29161185026168823,0.24642644822597504,0.06767559051513672,-0.24191971123218536,0.20420610904693604,0.19446134567260742,-0.11724519958685432,1.6079837621431532,1.255850990094745
3.479844808578491,-0.3406103849411011,0.22245021164417267,0.049674030393362045,-0.15918730199337006,0.14123041927814484,0.3121964931488037,-0.11460766054849814,1.6099205461753407,1.257758742796512
3.4900197982788086,-0.37947458028793335,0.22689871490001678,0.023062463849782944,-0.1016148254275322,0.11483369767665863,0.4293563961982727,-0.11085246793773344,1.6113330836349238,1.2589183264538628
3.499786853790283,-0.40869712829589844,0.24429164826869965,-0.011640314012765884,-0.07228294014930725,0.11575054377317429,0.5665777325630188,-0.10585086634969579,1.6125593633638873,1.2595571861761412
3.5099949836730957,-0.423136830329895,0.2597552239894867,-0.04113268479704857,-0.06313364952802658,0.1484038233757019,0.7139735817909241,-0.09943248778007809,1.6139101502923094,1.259969094224457
3.519808769226074,-0.4258761405944824,0.2766374349594116,-0.06988275051116943,-0.060262180864810944,0.1904122233390808,0.862123429775238,-0.09150156207578161,1.615643739510809,1.2602153804513312
3.529967784881592,-0.41522347927093506,0.3005516827106476,-0.09748506546020508,-0.07612023502588272,0.23623722791671753,0.9704447984695435,-0.08229252954715083,1.6177986641606183,1.2604796021772593
3.539968967437744,-0.39661741256713867,0.3256279230117798,-0.1173480823636055,-0.09607288986444473,0.28895607590675354,1.086861491203308,-0.07197132578940242,1.620468214586735,1.2608310410236145
3.549989700317383,-0.3657609224319458,0.33828452229499817,-0.13127721846103668,-0.12157239764928818,0.3455474376678467,1.1832913160324097,-0.06054078840506558,1.623673432540381,1.2613608480356202
3.5598788261413574,-0.3263701796531677,0.3572939932346344,-0.13587331771850586,-0.10434581339359283,0.39031004905700684,1.2681894302368164,-0.04821161898540853,1.6274048189470702,1.261856653390263
3.569952964782715,-0.2780658006668091,0.386000394821167,-0.13980770111083984,-0.027575138956308365,0.39610937237739563,1.3216713666915894,-0.0351951091809381,1.6313634760969085,1.2617861257460004
3.5799498558044434,-0.21862268447875977,0.4280795454978943,-0.13374578952789307,0.08325618505477905,0.35864272713661194,1.324212908744812,-0.021964824318629693,1.6351289332835588,1.2606938043611073
3.590117931365967,-0.16089928150177002,0.47184619307518005,-0.12294173985719681,0.21725048124790192,0.29787418246269226,1.2857272624969482,-0.009019271274966776,1.6383877409924508,1.2583412560207303
3.6000328063964844,-0.10266566276550293,0.5109806060791016,-0.11172319948673248,0.32924148440361023,0.21604803204536438,1.2080399990081787,0.0032902919552929163,1.6409822639432958,1.2547154193817427
3.610262870788574,-0.04922497272491455,0.5443971753120422,-0.1032412052154541,0.39007633924484253,0.11753849685192108,1.048109769821167,0.014322726456663612,1.642689118346244,1.2502912889428146
3.620032787322998,-0.009580373764038086,0.5636915564537048,-0.09102487564086914,0.3907436728477478,0.017479632049798965,0.8645989894866943,0.023609035914985903,1.6434575997474727,1.245651164067807
3.6299667358398438,0.015607357025146484,0.5599353909492493,-0.07628726214170456,0.29553353786468506,-0.08134548366069794,0.6178104877471924,0.03076556767540113,1.6432446498646551,1.2416053402571452
3.640073776245117,0.030126869678497314,0.5436767339706421,-0.06474852561950684,0.1293450891971588,-0.11195732653141022,0.3284081220626831,0.035352909521829325,1.6423187177732503,1.2391278481703236
3.6499438285827637,0.036487698554992676,0.5191246867179871,-0.06729232519865036,-0.10862245410680771,-0.11613155901432037,0.02831381745636463,0.03712341428361238,1.6411708223891446,1.238849385242635
3.6600027084350586,0.021260380744934082,0.47456806898117065,-0.09094047546386719,-0.35264042019844055,-0.08911370486021042,-0.28911134600639343,0.03597731430395696,1.6400322352376588,1.2412541785066722
3.6698999404907227,0.016135096549987793,0.4338475167751312,-0.09602130204439163,-0.5719394683837891,-0.04059410095214844,-0.5999627113342285,0.031829701478702704,1.6392110521279537,1.2461858020472463
3.680072784423828,0.017441511154174805,0.3901861608028412,-0.10779369622468948,-0.7672187089920044,0.02519800513982773,-0.8989198803901672,0.024771331279871637,1.6389145921917645,1.2534206776198615
3.690039873123169,0.021692752838134766,0.36179253458976746,-0.12407351285219193,-0.9104882478713989,0.11351987719535828,-1.151620864868164,0.01505249009424642,1.639420173915184,1.262559317661885
3.7000536918640137,0.02849024534225464,0.34791114926338196,-0.1452343612909317,-0.9475918412208557,0.19183526933193207,-1.3390405178070068,0.0032152195597649922,1.6408626358176275,1.2727774782186632
3.7100508213043213,0.04761648178100586,0.3599223792552948,-0.1607069969177246,-0.8986863493919373,0.2444412261247635,-1.4866198301315308,-0.010255901345556998,1.6430845481858882,1.2830477377989487
3.720245838165283,0.06679236888885498,0.3897353410720825,-0.1630561351776123,-0.7717796564102173,0.2867204546928406,-1.5884076356887817,-0.02503157087975441,1.6459187900933205,1.2925659838147145
3.730210781097412,0.08658254146575928,0.4182646870613098,-0.15772604942321777,-0.6108022332191467,0.3083602488040924,-1.6509056091308594,-0.04070029883039702,1.6491693324263659,1.3007374430181227
3.7401528358459473,0.10591715574264526,0.4216457009315491,-0.14803063869476318,-0.4350837469100952,0.32599538564682007,-1.6884804964065552,-0.0569769072568752,1.6526449059808437,1.3073466273188725
3.750234842300415,0.11900186538696289,0.40326982736587524,-0.13379275798797607,-0.19906748831272125,0.3493012487888336,-1.6744866371154785,-0.07351135232610888,1.6563249067595074,1.311952282165008
3.760150909423828,0.13571840524673462,0.3863986134529114,-0.12986183166503906,0.06593739986419678,0.36082708835601807,-1.65113365650177,-0.09005655993419814,1.6600614292294913,1.3141077566592019
3.770103931427002,0.1634339690208435,0.3804854154586792,-0.12758779525756836,0.36634114384651184,0.3603881895542145,-1.5978437662124634,-0.10650158023295034,1.663611642169258,1.3134311731811912
3.7802908420562744,0.21034401655197144,0.3628579378128052,-0.12634074687957764,0.6788986325263977,0.3307618796825409,-1.520998477935791,-0.12255593488009828,1.666644896052504,1.3096689788489067
3.790733814239502,0.27156370878219604,0.34307965636253357,-0.12915872037410736,0.9653916358947754,0.27050837874412537,-1.4540503025054932,-0.13819466643086142,1.6687875805979515,1.302835890713387
3.800337791442871,0.3179801106452942,0.32944637537002563,-0.12719666957855225,1.2055168151855469,0.1903662383556366,-1.381121039390564,-0.15340855391894853,1.6696966209832318,1.2932519471930588
3.810384750366211,0.34019726514816284,0.31472665071487427,-0.11830519139766693,1.353052020072937,0.10956992208957672,-1.352070689201355,-0.16829003203717596,1.669318796044736,1.2816626426891629
3.820326805114746,0.3452898859977722,0.28290462493896484,-0.1083536148071289,1.4434081315994263,0.03967539221048355,-1.3135634660720825,-0.1829735513340634,1.6677962849779004,1.2688010021648468
3.8304200172424316,0.3318443298339844,0.23824310302734375,-0.09216059744358063,1.465451717376709,-0.016450991854071617,-1.3046280145645142,-0.19740840883615232,1.6653278223807908,1.2552544292909689
3.840672016143799,0.30979299545288086,0.20077301561832428,-0.07426321506500244,1.4268674850463867,-0.0681389570236206,-1.337440848350525,-0.21194289780114423,1.6621511019751996,1.2417546327123445
3.850303888320923,0.292047917842865,0.1567385196685791,-0.055755615234375,1.3307147026062012,-0.15258726477622986,-1.3853822946548462,-0.22676106327244858,1.6582262648006216,1.2288529953545053
3.8602678775787354,0.2841234803199768,0.11132599413394928,-0.03906489163637161,1.151511311531067,-0.20493485033512115,-1.4965866804122925,-0.2422006909025221,1.6536939229200511,1.2173263246111687
3.8703417778015137,0.2714875340461731,0.06657031178474426,-0.02313912659883499,0.9343210458755493,-0.24738085269927979,-1.6146272420883179,-0.2585982990723815,1.6490912404464408,1.2078785865333301
3.8803110122680664,0.2588862180709839,0.017609119415283203,-0.02324332296848297,0.7076689004898071,-0.31801754236221313,-1.7420982122421265,-0.2759808960451287,1.6443256107247366,1.200656465835882
3.8905129432678223,0.26035207509994507,-0.012744307518005371,-0.015009522438049316,0.4719604551792145,-0.35686907172203064,-1.9327843189239502,-0.29474931068047644,1.6395587062778365,1.1958902595538554
3.900345802307129,0.24991047382354736,-0.002883613109588623,-0.0015716552734375,0.2754419147968292,-0.39665940403938293,-2.0967423915863037,-0.31520611398984694,1.6349904681498548,1.1933353659363162
3.910360813140869,0.2409321665763855,0.02478465437889099,0.011384952813386917,0.08891517668962479,-0.4746497869491577,-2.319077730178833,-0.33733544430629453,1.63048155848204,1.192913242222456
3.9203598499298096,0.27331507205963135,0.08626732230186462,0.03779613971710205,-0.009205169044435024,-0.5687646269798279,-2.5967607498168945,-0.36198552833097664,1.6255807257409758,1.1939886070850145
3.930356025695801,0.3152652382850647,0.11587607860565186,0.0740365982055664,-0.0647997260093689,-0.6271640062332153,-2.895644426345825,-0.38943763340354703,1.620231053446365,1.1959396770771467
3.9406228065490723,0.35380929708480835,0.1258159577846527,0.08432269096374512,-0.030702555552124977,-0.6857805252075195,-3.293163776397705,-0.42042667588233457,1.6144654502209674,1.1980856854501332
3.9504618644714355,0.40980738401412964,0.11260741949081421,0.07953643798828125,0.05484723299741745,-0.7596355676651001,-3.6501474380493164,-0.45533225013770917,1.6076641698429543,1.1993966482841771
3.9604368209838867,0.4895904064178467,0.05237621068954468,0.0712202787399292,0.08865725994110107,-0.7827813029289246,-4.03992223739624,-0.4942682904663926,1.5997560409636244,1.199831141713876
3.9703898429870605,0.5511059761047363,0.03328514099121094,0.05037117004394531,0.129083514213562,-0.7199378609657288,-4.4168171882629395,-0.5369465501274071,1.5920341232249178,1.1997096067351707
3.9804940223693848,0.5790433883666992,0.015083611011505127,0.009678244590759277,0.05554410070180893,-0.6439287662506104,-4.661083698272705,-0.5825044793448684,1.5849528271319473,1.1994006869678846
3.9908337593078613,0.6316721439361572,0.010590553283691406,-0.021326303482055664,-0.057863153517246246,-0.5236212611198425,-4.937506198883057,-0.6305996588775202,1.5794803003840918,1.2001115025539533
4.0005388259887695,0.7215093970298767,0.051712870597839355,-0.02131807804107666,-0.1399119347333908,-0.3991867005825043,-5.11196756362915,-0.6810476930286182,1.5758461050118944,1.2017445054718279
4.010761737823486,0.8032774925231934,0.01619821786880493,-0.02423834800720215,-0.19705751538276672,-0.27385756373405457,-5.19630241394043,-0.7326747187385073,1.5741728048466865,1.2043486760632105
4.0207319259643555,0.8660217523574829,-0.035100698471069336,-0.014981389045715332,-0.07992226630449295,-0.23588824272155762,-5.26389217376709,-0.7851049009749967,1.5732304152511398,1.2065993044367531
4.031307697296143,0.9023452997207642,-0.08457273244857788,0.03208184242248535,0.16132763028144836,-0.30883195996284485,-5.263197422027588,-0.8378452468700217,1.5701919001565647,1.2061058723808091
4.040928840637207,0.9369251132011414,-0.09882628917694092,0.0889013409614563,0.317219078540802,-0.43748366832733154,-5.256992340087891,-0.8904973446893908,1.5633436121981397,1.202022873935564
4.050752878189087,0.9673374891281128,-0.06449383497238159,0.15116679668426514,0.5069407820701599,-0.590103030204773,-5.263235092163086,-0.9431512718788112,1.5519866587454614,1.1941575846783938
4.0604798793792725,1.0032387971878052,-0.04255551099777222,0.21102601289749146,0.6649028062820435,-0.7704591751098633,-5.147841930389404,-0.9951683730702244,1.5344665855043844,1.181205852618535
4.070590972900391,1.008563756942749,-0.09190130233764648,0.24192535877227783,0.7353433966636658,-0.9150147438049316,-5.062040328979492,-1.045795586566381,1.5104565472457814,1.1629816987327488
4.08099889755249,0.9718703627586365,-0.12185657024383545,0.27272987365722656,0.8613148331642151,-1.0395153760910034,-5.047080993652344,-1.0956734061359583,1.4791511506924002,1.1384701134673767
4.090979814529419,0.9182853102684021,-0.14749044179916382,0.29473716020584106,0.988709032535553,-1.156696081161499,-4.931836128234863,-1.1443959338431788,1.4372946443016497,1.104223370204665
4.10077691078186,0.8480664491653442,-0.22882342338562012,0.28023719787597656,0.8926025629043579,-1.1339844465255737,-4.817569732666016,-1.190969643134236,1.385710158297387,1.0606995364604639
4.110785007476807,0.7700927257537842,-0.24112015962600708,0.24397796392440796,0.8880967497825623,-1.0606346130371094,-4.786733627319336,-1.2361297476733408,1.32396857672797,1.0065241579089872
4.120880842208862,0.6919823288917542,-0.2749682664871216,0.18407553434371948,0.8305294513702393,-1.012511968612671,-4.5583176612854,-1.2786619874477883,1.247145279292748,0.9367109909609773
4.130654811859131,0.6181799173355103,-0.36508387327194214,0.1391533464193344,0.778924822807312,-0.9227345585823059,-4.427567958831787,-1.3176398424566773,1.1526338675683105,0.8486765150685585
4.141027927398682,0.5524657964706421,-0.36668068170547485,0.13559013605117798,0.7077562808990479,-0.8481386303901672,-4.309887886047363,-1.3530715674103622,1.0315605155757082,0.7332944687210231
4.150743007659912,0.4697222411632538,-0.45035767555236816,0.13633257150650024,0.5306581854820251,-0.752518355846405,-4.179877281188965,-1.3843036719684103,0.8792019803227502,0.5860153883619263
4.16069483757019,0.4125654399394989,-0.5314884185791016,0.1655687689781189,0.36012428998947144,-0.6326446533203125,-3.952500104904175,-1.4099086833728254,0.6886915473100855,0.3996272946573646
4.170722961425781,0.37495794892311096,-0.5768005847930908,0.17745636403560638,0.14756490290164948,-0.5536521077156067,-3.8957431316375732,-1.4293193180204253,0.4586996438157593,0.1730246725493836
4.180781841278076,0.3988591730594635,-0.46429938077926636,0.20738102495670319,0.25983452796936035,-0.5630614757537842,-3.8834662437438965,-1.4397788558627023,0.17709862608161248,-0.10562437018207882
4.1909499168396,0.4267086088657379,-0.44873201847076416,0.19900166988372803,0.42844805121421814,-0.6228808760643005,-3.6721832752227783,-1.4374383192798643,-0.11556359478353306,-0.39479709235679855
4.20081901550293,0.4265391230583191,-0.5588468313217163,0.17189350724220276,0.47621574997901917,-0.5839510560035706,-3.5136868953704834,-1.4244637276632777,-0.3623921667833327,-0.6378624703220201
4.210783958435059,0.3781856894493103,-0.5908886790275574,0.15707528591156006,0.5520921349525452,-0.5031992197036743,-3.3451342582702637,-1.404553884045488,-0.5497122774745518,-0.8220029759880475
4.220820903778076,0.33725106716156006,-0.5829322338104248,0.13713496923446655,0.4624737501144409,-0.5003916025161743,-3.1693148612976074,-1.3815592672968753,-0.6859947185971078,-0.9553586762179295
4.230783939361572,0.38530129194259644,-0.4929736256599426,0.14661908149719238,0.5474700927734375,-0.5230239033699036,-3.073018789291382,-1.3568288084290536,-0.7882579112261698,-1.0545278920421017
4.241103887557983,0.44421568512916565,-0.45684105157852173,0.156624436378479,0.676166296005249,-0.6030081510543823,-2.8300604820251465,-1.330920843250263,-0.8616125115334297,-1.124016482646509
4.250960826873779,0.4466242790222168,-0.5784069895744324,0.12929080426692963,0.7789230346679688,-0.6209354996681213,-2.5546796321868896,-1.3054581412662005,-0.9119578743575214,-1.1696028265321026
4.26096773147583,0.3954162299633026,-0.6470884084701538,0.12037606537342072,0.7141337394714355,-0.575834333896637,-2.2659711837768555,-1.2816577536226554,-0.9471951816769468,-1.2000068408350255
4.270869731903076,0.33615821599960327,-0.6207559108734131,0.11584837734699249,0.6027153134346008,-0.5767725706100464,-2.0956010818481445,-1.2601833415965862,-0.9763444600292779,-1.2244787989688772
4.280942916870117,0.34070149064064026,-0.49145323038101196,0.15677779912948608,0.6060746312141418,-0.66019207239151,-1.834995985031128,-1.2403753527213859,-1.0002041594348496,-1.243153936487097
4.291179895401001,0.36062613129615784,-0.5077629685401917,0.1695607304573059,0.5646960139274597,-0.7511890530586243,-1.475905418395996,-1.2232535831142328,-1.0181395664528001,-1.2546427768633237
4.3009467124938965,0.35495439171791077,-0.5640712380409241,0.17422276735305786,0.5414146780967712,-0.7789998054504395,-1.224578619003296,-1.2088973178553841,-1.0320367228130827,-1.2612352196894019
4.311013698577881,0.2902693450450897,-0.578029453754425,0.18363511562347412,0.5276448130607605,-0.8152515292167664,-0.9717015624046326,-1.1966720733758245,-1.0426411340358381,-1.2640803956411581
4.321023941040039,0.21781191229820251,-0.6293995380401611,0.1789184808731079,0.4945843517780304,-0.8468865752220154,-0.6578630805015564,-1.1870445158569338,-1.0500574844080892,-1.2630972997355556
4.330949783325195,0.1865001618862152,-0.6689781546592712,0.18264958262443542,0.4234079122543335,-0.8576948046684265,-0.35386988520622253,-1.1803682189296218,-1.0549524406624298,-1.2591604069875113
4.341203689575195,0.1600959599018097,-0.6883560419082642,0.183218851685524,0.3517206311225891,-0.8565335869789124,-0.021991858258843422,-1.1768128496019996,-1.057641655513806,-1.2527730689001568
4.35107684135437,0.13207727670669556,-0.6804284453392029,0.1815837025642395,0.2866188585758209,-0.8482714295387268,0.3192368447780609,-1.1765529185355956,-1.0577275753907502,-1.2436209433176215
4.361056804656982,0.11270466446876526,-0.6515073180198669,0.1833709180355072,0.23599958419799805,-0.8425153493881226,0.6508700847625732,-1.1795284966019117,-1.054990771099736,-1.2315088797130047
4.371132850646973,0.09238621592521667,-0.6459985375404358,0.18588829040527344,0.22867190837860107,-0.8288845419883728,0.9996414184570312,-1.1855325203320228,-1.0484618444245806,-1.2154020189475956
4.381150722503662,0.0671188235282898,-0.6917913556098938,0.18134158849716187,0.204286128282547,-0.7957558631896973,1.376922845840454,-1.194735455474828,-1.036947243893073,-1.1942197133959762
4.391142845153809,0.03924599289894104,-0.7333208322525024,0.17424912750720978,0.1808052957057953,-0.7305268049240112,1.7420517206192017,-1.2071318568470448,-1.0195334563618508,-1.167339894716894
4.401181697845459,0.01668432354927063,-0.7318392395973206,0.1700195074081421,0.1583564281463623,-0.6718322038650513,2.0886402130126953,-1.2224507830956253,-0.9951756164208239,-1.1338758847215946
4.411157846450806,0.010144323110580444,-0.716205894947052,0.16890396177768707,0.1999342292547226,-0.6090202331542969,2.4521608352661133,-1.2402997027568294,-0.9615451957970084,-1.0914030033286817
4.4212188720703125,0.01544460654258728,-0.7138999104499817,0.16649426519870758,0.19046151638031006,-0.5287969708442688,2.834041118621826,-1.2604971505908074,-0.9152622870454233,-1.0366254314127883
4.431151866912842,0.02172623574733734,-0.6894978880882263,0.16386611759662628,0.1576652228832245,-0.4500694274902344,3.169311285018921,-1.2826947856836877,-0.8540221442595208,-0.9674385262046367
4.441452980041504,0.03166207671165466,-0.6084373593330383,0.17553848028182983,0.18478301167488098,-0.3880694508552551,3.506884813308716,-1.3058112369991262,-0.7729937778849543,-0.8788623714593731
4.451235771179199,0.042810022830963135,-0.5477403998374939,0.18457812070846558,0.19767192006111145,-0.3451978862285614,3.8484091758728027,-1.3286944800845477,-0.6646312218242684,-0.7631426898935677
4.461273908615112,0.05781959742307663,-0.47317397594451904,0.19037282466888428,0.26184210181236267,-0.3152035176753998,4.0622639656066895,-1.3490912856687627,-0.5231805185223446,-0.614440556630153
4.471179962158203,0.06198969483375549,-0.4096822738647461,0.19760018587112427,0.37356090545654297,-0.30315056443214417,4.192772388458252,-1.3637230243228178,-0.34765731513993137,-0.4316776420469602
4.481220722198486,0.04715936258435249,-0.43485087156295776,0.19300997257232666,0.4990063011646271,-0.2969338595867157,4.310898303985596,-1.3699340213830655,-0.14556684400929737,-0.22225836769730342
4.49120569229126,0.030946936458349228,-0.5019165277481079,0.182531476020813,0.5638324022293091,-0.2560218572616577,4.45257568359375,-1.3662367644204034,0.0664417148894825,-0.003016935350596639
4.50118088722229,0.01873873546719551,-0.5494658946990967,0.16632330417633057,0.4900254011154175,-0.19511443376541138,4.528405666351318,-1.3534260740211692,0.2677286858511692,0.20513673696171106
4.51151180267334,0.02955179661512375,-0.5217850804328918,0.16082501411437988,0.34390440583229065,-0.11364035308361053,4.547924518585205,-1.3335794179284965,0.4442716127728618,0.38789540166494063
4.523416996002197,0.058008790016174316,-0.47676271200180054,0.16325455904006958,0.22225162386894226,-0.017293617129325867,4.660172939300537,-1.308243990106379,0.5947359627084531,0.5438601224401207
4.531718730926514,0.08562996983528137,-0.460806667804718,0.15143254399299622,-0.0344022661447525,0.1008058562874794,4.925285339355469,-1.277873998607576,0.7257219706253942,0.6796065345281783
4.541736841201782,0.11544767022132874,-0.37947386503219604,0.12545979022979736,-0.4946191906929016,0.2251976728439331,5.05464506149292,-1.2442688768510393,0.844059678645456,0.8021261847901818
4.551560878753662,0.17352837324142456,-0.14573311805725098,0.11721807718276978,-0.8244264125823975,0.3021790087223053,5.087613105773926,-1.208758852301181,0.9497771044342277,0.9115527401832297
4.561375856399536,0.23616018891334534,0.002877652645111084,0.10071602463722229,-1.0188195705413818,0.31926819682121277,5.210226058959961,-1.1705130547733709,1.0422396178901294,1.0077562562324913
4.5715038776397705,0.26349377632141113,-0.017807066440582275,0.08200453221797943,-1.093702793121338,0.3239726722240448,5.264725208282471,-1.1291230416833875,1.121695820208121,1.09126517766984
4.581593036651611,0.21515482664108276,-0.08936017751693726,0.09611676633358002,-1.031308650970459,0.27320462465286255,5.216362476348877,-1.0854122019636858,1.186850950140807,1.1606789169386076
4.591883897781372,0.1518796682357788,-0.18362218141555786,0.12572896480560303,-0.9048932194709778,0.1829516887664795,5.126672744750977,-1.0402816807336641,1.2380988467669487,1.216697970103113
4.601667881011963,0.13904237747192383,-0.2519466280937195,0.15665186941623688,-0.8049851059913635,0.12742166221141815,5.0652756690979,-0.9944022921004879,1.2781405974808175,1.2619696960776723
4.611682891845703,0.14337825775146484,-0.31142187118530273,0.17872172594070435,-0.7737603187561035,0.1051081046462059,5.124429225921631,-0.947521316149909,1.3107004776259872,1.2999988287245272
4.621471881866455,0.1632307767868042,-0.3405182361602783,0.17862915992736816,-0.8548852205276489,0.14828558266162872,5.233333587646484,-0.8991925617910168,1.3389857405290482,1.3339240231740968
4.631556034088135,0.2300359606742859,-0.3111211061477661,0.16364610195159912,-1.055407166481018,0.23091815412044525,5.4029741287231445,-0.8493233071848241,1.3657703497163947,1.366375162432991
4.641802787780762,0.3416980504989624,-0.26652634143829346,0.14317171275615692,-1.298496961593628,0.31569182872772217,5.696004867553711,-0.7970789164777081,1.3923727337715026,1.3988984485841598
4.651638031005859,0.4882766008377075,-0.233997642993927,0.1275324821472168,-1.5659228563308716,0.395203173160553,6.046140193939209,-0.7414501168225399,1.4189903220493,1.4320347307280574
4.661726951599121,0.6495072245597839,-0.18363302946090698,0.1273484081029892,-1.8335607051849365,0.4199717044830322,6.378355979919434,-0.6821800296366756,1.4451264381719722,1.4656912272480904
4.671581745147705,0.8101093769073486,-0.10252189636230469,0.14260989427566528,-2.0601470470428467,0.36776894330978394,6.696907043457031,-0.6193467738858373,1.4695034738849824,1.4993734437002033
4.681631803512573,0.973712146282196,-0.011472046375274658,0.1777161955833435,-2.26604962348938,0.2954063415527344,6.998790264129639,-0.5529738605633471,1.4912992621044039,1.5327080438894876
4.691820859909058,1.1324331760406494,0.08019581437110901,0.2107778787612915,-2.442746639251709,0.15722714364528656,7.236103534698486,-0.48348021945004804,1.5098958754269822,1.5655698746186184
4.701663017272949,1.2670540809631348,0.17165908217430115,0.2472914457321167,-2.5787670612335205,0.010190160945057869,7.394113540649414,-0.41161255657272217,1.5246697210833586,1.5977949296972973
4.7115538120269775,1.3693413734436035,0.261220782995224,0.2951533794403076,-2.673520565032959,-0.15992750227451324,7.4599175453186035,-0.3383045734068666,1.5355072511098025,1.6292680292315724
4.721547842025757,1.425678014755249,0.35593560338020325,0.3204880356788635,-2.7572407722473145,-0.3696601092815399,7.383065700531006,-0.2647930471354968,1.5420739163650452,1.6602286130164865
4.731607913970947,1.447830319404602,0.4695783257484436,0.34076452255249023,-2.8515427112579346,-0.6213128566741943,7.112314701080322,-0.19287003055732876,1.5441402643388633,1.691068663517032
4.742010831832886,1.4221347570419312,0.5995935201644897,0.3486243486404419,-2.959301710128784,-0.9314253926277161,6.645401954650879,-0.12469778862819157,1.541366867345299,1.722445746584692
4.751688003540039,1.3257304430007935,0.7096943855285645,0.3688920736312866,-3.0909008979797363,-1.2403364181518555,6.030494689941406,-0.06216560999165578,1.5335040141546992,1.7549166267315135
4.761676788330078,1.1798436641693115,0.7820098996162415,0.38420188426971436,-3.210015058517456,-1.4204492568969727,5.233492374420166,-0.00708302660597832,1.521198181512369,1.7889102764470377
4.771668910980225,0.9976400136947632,0.8280962109565735,0.3695443272590637,-3.3273870944976807,-1.3306905031204224,4.352232456207275,0.03908957121306901,1.5067471600985523,1.824329135146274
4.781678915023804,0.7749155163764954,0.8368883728981018,0.28851622343063354,-3.275599241256714,-1.0661125183105469,3.5258350372314453,0.07608238707538056,1.4924841031233729,1.8602264218068894
4.792011737823486,0.5536831617355347,0.7917606830596924,0.1493796706199646,-3.0287418365478516,-0.6177136898040771,2.7055752277374268,0.10452737276220773,1.4808485498570152,1.894607890021087
4.801610946655273,0.3890552520751953,0.697914183139801,-0.021541766822338104,-2.5435738563537598,-0.03696385771036148,1.907975673675537,0.12488974147928543,1.474110936564975,1.9248565032041138
4.811730861663818,0.25343257188796997,0.5685809850692749,-0.1478084921836853,-1.882232427597046,0.5433213710784912,1.1662715673446655,0.13804993605245072,1.4735862153300974,1.9486889638482554
4.8216588497161865,0.15276771783828735,0.48328685760498047,-0.20121407508850098,-1.184510588645935,1.0573023557662964,0.4904760718345642,0.14483407675853258,1.479408664425084,1.9648868878518024
4.832510948181152,0.07724422216415405,0.4660463333129883,-0.20250777900218964,-0.5302779078483582,1.4693410396575928,-0.09581723809242249,0.14600801615467798,1.4908755281331587,1.9736867520864063
4.8419647216796875,0.02860790491104126,0.4852445125579834,-0.17200946807861328,0.08499584347009659,1.7409192323684692,-0.4958754777908325,0.14278808166693796,1.5067747138170982,1.9756429726224067
4.851710796356201,0.021164894104003906,0.492698609828949,-0.15389806032180786,0.5754629969596863,1.8953945636749268,-0.7744626402854919,0.13663237123608413,1.5256038586133618,1.9718725308777776
4.861699819564819,0.031235575675964355,0.48210662603378296,-0.11230766773223877,0.8195490837097168,1.9713979959487915,-1.0330921411514282,0.1279019772285493,1.5461510009274653,1.9642380142155274
4.87174391746521,0.04092949628829956,0.4555451273918152,-0.06546026468276978,0.9242608547210693,1.8033781051635742,-1.302537441253662,0.11629919711264905,1.5663105491163296,1.9553237763840587
4.881804943084717,0.07084667682647705,0.5279158353805542,-0.05392742156982422,0.9342241883277893,1.5517034530639648,-1.4524188041687012,0.10238982670459218,1.5841140542861172,1.9458622578324167
4.89208984375,0.10637938976287842,0.6383036375045776,-0.03165256977081299,0.7507840394973755,1.2336722612380981,-1.4241421222686768,0.08771126498088111,1.5988832480854458,1.9375909273121055
4.901918888092041,0.1417585015296936,0.6690627336502075,-0.0028840303421020508,0.47903022170066833,0.9426549077033997,-1.2672297954559326,0.07402241198467267,1.6102365663314386,1.931864937279072
4.9119038581848145,0.1524708867073059,0.6420440673828125,0.024743907153606415,0.19910085201263428,0.6564191579818726,-1.1083272695541382,0.062021061035838154,1.6184736333797904,1.928983378803275
4.921990871429443,0.12118428945541382,0.5617461204528809,0.049788590520620346,-0.04770783707499504,0.40404415130615234,-0.9766693115234375,0.05157626601478459,1.6237640755237572,1.9287879162102706
4.933558940887451,0.04881042242050171,0.4326765537261963,0.07282543927431107,-0.2672439217567444,0.20918333530426025,-0.8360722064971924,0.04259862162243475,1.626728187917803,1.9308593977792698
4.944847822189331,-0.042638957500457764,0.2558003067970276,0.07790923863649368,-0.5010661482810974,0.07796197384595871,-0.686139702796936,0.035211395691979314,1.6279634502113502,1.9351138300968147
4.952511787414551,-0.13690048456192017,0.09274500608444214,0.06268560886383057,-0.7251935601234436,0.014626676216721535,-0.5625472068786621,0.0293490886415642,1.6281926209700464,1.941625501218995
4.9641828536987305,-0.2112290859222412,-0.0027171410620212555,0.03450298309326172,-0.8972040414810181,-0.022423796355724335,-0.4692593812942505,0.0246750185274278,1.6279404058908744,1.950065535004085
4.971811771392822,-0.2538028955459595,-0.03670378029346466,-0.00290524959564209,-0.988133430480957,-0.07100650668144226,-0.3936266601085663,0.020899807087503205,1.627271804023396,1.9597967931009566
4.981986999511719,-0.2632973790168762,-0.027312472462654114,-0.03735542297363281,-1.0164647102355957,-0.13261039555072784,-0.32924506068229675,0.017869892509584,1.626072051980193,1.9700549493896278
4.992257833480835,-0.2568463683128357,-0.004566912539303303,-0.06375563144683838,-1.007611632347107,-0.19856570661067963,-0.27308592200279236,0.015392327854253162,1.6242382898848053,1.9803724949488943
5.001999855041504,-0.2539757490158081,0.010045795701444149,-0.08187198638916016,-0.9949723482131958,-0.2514200508594513,-0.18492884933948517,0.013632170290489267,1.6218419688154433,1.9905018123431772
5.012008905410767,-0.25504130125045776,0.015404723584651947,-0.09051799774169922,-0.9592151641845703,-0.2759605646133423,-0.10253889858722687,0.012689136620540104,1.6190701862701948,2.000361141002022
5.022265911102295,-0.25609689950942993,0.027899909764528275,-0.07692348957061768,-0.9002268314361572,-0.28786852955818176,-0.03372105956077576,0.012458465001612606,1.616138001688197,2.009719216046194
5.032042980194092,-0.24775612354278564,0.045939333736896515,-0.05655217170715332,-0.7873708605766296,-0.29723432660102844,0.035008203238248825,0.012828246921565875,1.6131129318454416,2.0181820160877284
5.042114734649658,-0.22722232341766357,0.06003037467598915,-0.04341614246368408,-0.6420363783836365,-0.29341068863868713,0.09549616277217865,0.013812067231569596,1.6100607404478964,2.0253220841899466
5.051973819732666,-0.20152747631072998,0.0674857348203659,-0.03620124235749245,-0.4512682855129242,-0.27765703201293945,0.11270549893379211,0.015072490303263936,1.6071318357549595,2.0307676060200226
5.062091827392578,-0.17424190044403076,0.05343690514564514,-0.04066956043243408,-0.26885485649108887,-0.24618485569953918,0.12331601232290268,0.016389429990801684,1.604442562276283,2.0343230293344057
5.072098731994629,-0.1498427391052246,-0.004754787310957909,-0.05698203667998314,-0.10351542383432388,-0.1701659858226776,0.14863334596157074,0.01779877435925312,1.6023064091615182,2.036119247726596
5.082092761993408,-0.12708228826522827,-0.07948404550552368,-0.0790482759475708,0.027941932901740074,-0.06699565798044205,0.18196813762187958,0.019470562591969387,1.6011184445198845,2.0364247840619005
5.0922980308532715,-0.09958082437515259,-0.13183574378490448,-0.09815347194671631,0.1447516530752182,0.04546483978629112,0.19739742577075958,0.021348994173061818,1.6010292605459042,2.0354952501140193
5.102203845977783,-0.06320309638977051,-0.13644711673259735,-0.11295604705810547,0.2703458368778229,0.14737340807914734,0.2174309492111206,0.023360443777048847,1.6020704458956654,2.033373273694537
5.11221981048584,-0.01987588405609131,-0.12490803003311157,-0.1263066530227661,0.38249847292900085,0.20966580510139465,0.24103321135044098,0.02554654285342854,1.6039650143278783,2.030005748684738
5.12214994430542,0.014237642288208008,-0.12430162727832794,-0.12422263622283936,0.4271400570869446,0.25542253255844116,0.2549382150173187,0.027908542863411368,1.6064173932847168,2.025813940911113
5.132087707519531,0.021590113639831543,-0.14075367152690887,-0.1031031608581543,0.39989805221557617,0.312519907951355,0.2678532302379608,0.030347930623037242,1.6093822449651625,2.0215316097350624
5.14241886138916,0.0063803791999816895,-0.17782258987426758,-0.07737517356872559,0.31527087092399597,0.3889593183994293,0.301279217004776,0.03306002828442775,1.6130050906215412,2.017812026017814
5.152002811431885,-0.006976008415222168,-0.22154279053211212,-0.05582427605986595,0.23233577609062195,0.4683782458305359,0.329524964094162,0.03607930495494314,1.6174211126261302,2.0149488670522993
5.162002801895142,-0.0033960342407226562,-0.2526623010635376,-0.04392050951719284,0.18034064769744873,0.5075529217720032,0.38274049758911133,0.03952341906503765,1.6224247892178647,2.012729035087684
5.171903848648071,0.02584397792816162,-0.2670168876647949,-0.04269897937774658,0.1586388200521469,0.5115159749984741,0.4278810918331146,0.04349804210873968,1.627633055338243,2.0108217192149733
5.182124853134155,0.05964064598083496,-0.2529706358909607,-0.04964709281921387,0.15766409039497375,0.48992371559143066,0.465370237827301,0.04785952522860473,1.6327457746093197,2.008978608181679
5.1921210289001465,0.08178550004959106,-0.2358458787202835,-0.05718887597322464,0.15321767330169678,0.4608340263366699,0.5185069441795349,0.052676539589467816,1.6376033004123896,2.0070930648545535
5.201972007751465,0.08579730987548828,-0.21702975034713745,-0.06044638901948929,0.13169746100902557,0.4306727945804596,0.5614340305328369,0.05799678516040816,1.6421807264892159,2.0052797873904766
5.2120137214660645,0.08488690853118896,-0.19185557961463928,-0.06011092662811279,0.10005377233028412,0.3780977427959442,0.5721708536148071,0.06360431551158917,1.6463601752503332,2.0037195561586194
5.222272872924805,0.08820748329162598,-0.17405281960964203,-0.05044043809175491,0.08224724978208542,0.298863023519516,0.5953477025032043,0.06935005130923894,1.6498598709372219,2.0023465831677347
5.232033729553223,0.09120845794677734,-0.18885543942451477,-0.03230082988739014,0.021139953285455704,0.22390063107013702,0.6199028491973877,0.07540680437493126,1.6525383202215378,2.001312983559813
5.2420806884765625,0.086761474609375,-0.20777815580368042,-0.011546492576599121,-0.06121675670146942,0.16515204310417175,0.6197950839996338,0.08161922483825514,1.654526991258755,2.000980319816276
5.252136707305908,0.07436752319335938,-0.20560422539710999,0.003365032374858856,-0.1480318009853363,0.09290474653244019,0.6288685202598572,0.08792038947043966,1.6557826349664673,2.0014926123136707
5.262098789215088,0.06775772571563721,-0.2077096700668335,0.018994800746440887,-0.25581637024879456,0.03549032285809517,0.6478082537651062,0.09447869159391474,1.6562904128372016,2.0029566330538597
5.272059917449951,0.07029634714126587,-0.20168527960777283,0.03634965419769287,-0.3639622628688812,-0.01531932596117258,0.652084469795227,0.10123733513766305,1.656156948559981,2.005510380195754
5.28210186958313,0.07329928874969482,-0.17978110909461975,0.04671548306941986,-0.4392535090446472,-0.07074392586946487,0.6655559539794922,0.10814942356058618,1.6553666907722595,2.0090058978753116
5.292238712310791,0.07454186677932739,-0.15617096424102783,0.05873323231935501,-0.5020119547843933,-0.1134738102555275,0.6835314631462097,0.11529416558977398,1.6539765465022422,2.0131582923832347
5.302146911621094,0.06896859407424927,-0.13134855031967163,0.06897318363189697,-0.5432564616203308,-0.14751136302947998,0.6619990468025208,0.12248240064661232,1.6521185200151507,2.017906328468126
5.312114715576172,0.052542269229888916,-0.11491595208644867,0.07244063168764114,-0.5228268504142761,-0.1654738485813141,0.6975903511047363,0.12964877132874938,1.6499349785149895,2.0226987059473376
5.3221917152404785,0.021457135677337646,-0.14053410291671753,0.06593560427427292,-0.5276038646697998,-0.11636423319578171,0.7404906153678894,0.1372864052403982,1.6478425927130051,2.027426063738158
5.332197904586792,-0.010835528373718262,-0.13175995647907257,0.05750643461942673,-0.5068399906158447,-0.04440455511212349,0.7417321801185608,0.14508530854943924,1.6464189487987329,2.032108513863025
5.342244863510132,-0.025759339332580566,-0.08698844909667969,0.038776151835918427,-0.4585709869861603,-0.01013961248099804,0.7805466055870056,0.15304942520985831,1.6455265665890653,2.036397284387307
5.3521857261657715,-0.009518146514892578,-0.057932376861572266,0.023129820823669434,-0.41065195202827454,0.03757358342409134,0.8265799283981323,0.1614109310293758,1.6450739118755917,2.04017797673404
5.362152814865112,0.0064855217933654785,-0.030746936798095703,0.008463740348815918,-0.3683197498321533,0.09367737174034119,0.8614514470100403,0.17014621856464512,1.6452007769620978,2.0434777930233596
5.3735058307647705,0.0054381489753723145,-0.003966331481933594,-0.005417592823505402,-0.324779748916626,0.14611582458019257,0.8819820284843445,0.17911897951318506,1.6459210891998772,2.0463243444545243
5.382242679595947,-0.0023076534271240234,0.012982070446014404,-0.008199580013751984,-0.29791393876075745,0.19025824964046478,0.9013449549674988,0.1882715589462314,1.6471757228291544,2.048792057644677
5.392405986785889,-0.012136578559875488,0.01142488420009613,-0.0022552013397216797,-0.2753351032733917,0.2291204184293747,0.9166799783706665,0.19756803882923718,1.6488667876009493,2.0509754852964224
5.402291774749756,-0.021483898162841797,0.003328457474708557,0.004985801875591278,-0.26311802864074707,0.2685159742832184,0.9282068610191345,0.20699786652780566,1.65096481825026,2.0529609530013864
5.412339687347412,-0.02997058629989624,0.00929655134677887,0.012488484382629395,-0.2623712718486786,0.30393362045288086,0.9214642643928528,0.2164579218258643,1.6534529942945588,2.054876202988543
5.423512935638428,-0.030394375324249268,0.035521239042282104,0.012371301651000977,-0.24541625380516052,0.3140300512313843,0.9215466380119324,0.22585209397772268,1.6561842107942284,2.056679537590513
5.432327747344971,-0.02076852321624756,0.05335976183414459,0.007685177028179169,-0.23236329853534698,0.32102617621421814,0.9180169105529785,0.23525723588346475,1.6589896325181883,2.0583033499255627
5.442327976226807,-0.012972116470336914,0.07172290980815887,0.0031120777130126953,-0.20614588260650635,0.3262593746185303,0.8931236863136292,0.24450099431479974,1.661900998521285,2.0597294059272646
5.452389717102051,-0.013692080974578857,0.09177705645561218,-0.0063849762082099915,-0.1718105524778366,0.32139670848846436,0.8699515461921692,0.25347946720473774,1.664870632927903,2.0608315236378356
5.462331771850586,-0.017865002155303955,0.10334548354148865,-0.01486814022064209,-0.13160815834999084,0.3201858103275299,0.8371710181236267,0.2621452679408035,1.667910836339567,2.0615560420397374
5.473623752593994,-0.018810689449310303,0.11346796154975891,-0.02439427375793457,-0.09210816025733948,0.31156542897224426,0.7973676919937134,0.27040744177660214,1.67099949197518,2.061856207464516
5.4823899269104,-0.022407114505767822,0.11217769980430603,-0.033375486731529236,-0.07117047160863876,0.320835143327713,0.7628284692764282,0.278276905658526,1.6741671289808064,2.061858353033815
5.492448806762695,-0.026652753353118896,0.11559516191482544,-0.040589675307273865,-0.05369587242603302,0.3297165334224701,0.714809000492096,0.285711185533338,1.6774898553395323,2.061701662666223
5.5025248527526855,-0.02531564235687256,0.13016614317893982,-0.04838085174560547,-0.04082246497273445,0.3186086416244507,0.6691113710403442,0.2926509847689548,1.6808308294392604,2.0613953225110255
5.51263689994812,-0.01940387487411499,0.13380080461502075,-0.051822781562805176,-0.04621696472167969,0.310438871383667,0.618768572807312,0.29911474359731965,1.6840785888422427,2.0610771705978577
5.523604869842529,-0.018343031406402588,0.12972325086593628,-0.053931236267089844,-0.0659392699599266,0.30335181951522827,0.5612471103668213,0.30505660596624146,1.687207211387478,2.060952893863085
5.532346725463867,-0.021727561950683594,0.12610217928886414,-0.05653657019138336,-0.07747448235750198,0.28752171993255615,0.5121964812278748,0.3104633916018957,1.6901474987980853,2.0610311466944427
5.542467832565308,-0.030346572399139404,0.11322402954101562,-0.05834008753299713,-0.09816112369298935,0.2878338396549225,0.472838431596756,0.31546744343192246,1.6929319808583576,2.0613253326732215
5.552482843399048,-0.03945577144622803,0.10872003436088562,-0.06017196923494339,-0.10684036463499069,0.2893505096435547,0.4212284982204437,0.320042608258702,1.695677131811075,2.0618305090809845
5.562563896179199,-0.04134631156921387,0.11898821592330933,-0.0640549510717392,-0.0941806361079216,0.26889628171920776,0.38071104884147644,0.3241435715326303,1.6983231251451298,2.062366487791892
5.573539733886719,-0.03207653760910034,0.12459778785705566,-0.06698118150234222,-0.08087334781885147,0.24633771181106567,0.33801206946372986,0.3278422118145278,1.7007713339432857,2.06279155998312
5.582665920257568,-0.020439445972442627,0.12994384765625,-0.06970477104187012,-0.06642139703035355,0.22388452291488647,0.2796025574207306,0.3310086600236457,1.7030040949443948,2.063156453684625
5.5926737785339355,-0.014963626861572266,0.13101699948310852,-0.07134413719177246,-0.04697100818157196,0.18503326177597046,0.23149707913398743,0.3336289983175474,1.7049890093593396,2.063382188163972
5.602622032165527,-0.013949334621429443,0.11492916941642761,-0.06883622705936432,-0.03630358353257179,0.16230681538581848,0.18501442670822144,0.3357560927049825,1.7066814078633168,2.0635106092810847
5.61257791519165,-0.020532965660095215,0.09396770596504211,-0.0640794038772583,-0.04048661142587662,0.158999964594841,0.13909859955310822,0.33740939941355363,1.7082338201506009,2.063678218464397
5.623584747314453,-0.03169715404510498,0.08352431654930115,-0.06396496295928955,-0.04710467904806137,0.1554976850748062,0.10247299820184708,0.33864803812865873,1.709723252471503,2.063957310547652
5.632582902908325,-0.034143924713134766,0.07872074842453003,-0.06662380695343018,-0.05443929135799408,0.14645253121852875,0.07443523406982422,0.33960579690724546,1.711114635840793,2.0643554555518877
5.642606735229492,-0.025689423084259033,0.08100485801696777,-0.06208060681819916,-0.062388814985752106,0.13594329357147217,0.040283285081386566,0.34026443463337386,1.712361602852034,2.0648820227187827
5.65276575088501,-0.013992846012115479,0.08655911684036255,-0.05801665782928467,-0.06315899640321732,0.12111987173557281,0.006860082969069481,0.3405882111835388,1.713451714143135,2.0655118887761863
5.662644863128662,-0.00892418622970581,0.08303692936897278,-0.05574776232242584,-0.05203963443636894,0.10511942207813263,-0.020901132375001907,0.340590930472866,1.7143728836218957,2.0661368265229063
5.673645973205566,-0.006944775581359863,0.07001572847366333,-0.053356632590293884,-0.042121224105358124,0.0925770029425621,-0.05636138841509819,0.3402938105987229,1.7151802577471431,2.0666843402605894
5.682646751403809,-0.006939709186553955,0.05808568000793457,-0.049490198493003845,-0.030608313158154488,0.0804576650261879,-0.09363467246294022,0.3396003364197232,1.7158904282634304,2.0671792496314416
5.692684888839722,-0.008492052555084229,0.046231478452682495,-0.04664860665798187,-0.02748415805399418,0.06646914780139923,-0.12102368474006653,0.33858298782630697,1.7164719435998965,2.0676374876903054
5.7026777267456055,-0.005635619163513184,0.03286668658256531,-0.04086722433567047,-0.038294777274131775,0.05841623619198799,-0.14986109733581543,0.33729106001189246,1.7169139104302886,2.0681916819224475
5.712677955627441,-0.003262042999267578,0.022737950086593628,-0.034012213349342346,-0.05714063718914986,0.0537802055478096,-0.1693413108587265,0.3352253292844163,1.7163299921987036,2.069227815395566
5.723765850067139,-0.005865573883056641,0.00876954197883606,-0.028074264526367188,-0.07868614792823792,0.05057242512702942,-0.18477806448936462,0.332940964939156,1.7155423917733317,2.0705441446221813
5.732903003692627,-0.007009744644165039,-0.00598597526550293,-0.02430284023284912,-0.10431987047195435,0.047493547201156616,-0.1893288791179657,0.3304714698587123,1.7145517726611161,2.0721368658361365
5.74271297454834,-0.006217300891876221,-0.022033751010894775,-0.02307523787021637,-0.12213137000799179,0.04385846480727196,-0.19581621885299683,0.32791234898619437,1.713375837696674,2.0739923665355087
5.752793788909912,-0.005875289440155029,-0.027842551469802856,-0.017530933022499084,-0.1352948546409607,0.03171791136264801,-0.1985590010881424,0.32537196268640634,1.7120427533487406,2.0760145003754973
5.762915849685669,-0.005148768424987793,-0.03331536054611206,-0.015167951583862305,-0.13956063985824585,0.02566814236342907,-0.19446471333503723,0.3229145013971534,1.7105952273134497,2.078127285658899
5.773746967315674,-0.007813572883605957,-0.0391959547996521,-0.012637987732887268,-0.14411304891109467,0.02363481931388378,-0.18693143129348755,0.3207367508255166,1.7093272571612543,2.080201537431533
5.7827839851379395,-0.01139920949935913,-0.04205375909805298,-0.009366869926452637,-0.13484638929367065,0.01703590527176857,-0.18344828486442566,0.3188194067493714,1.7082917884576492,2.0821557902276893
5.792794704437256,-0.007860898971557617,-0.041257768869400024,-0.005722165107727051,-0.1109892725944519,-0.0038861543871462345,-0.17931613326072693,0.3170389567602846,1.7073537408529056,2.083870715039542
5.802798748016357,-8.022785186767578e-05,-0.04600974917411804,-0.0010764449834823608,-0.08726558834314346,-0.023051192983984947,-0.17135901749134064,0.31547482394905474,1.7064659821709045,2.0852620172761815
5.812839031219482,0.0026763081550598145,-0.05783620476722717,0.0020171254873275757,-0.06712942570447922,-0.02764088660478592,-0.15595875680446625,0.31420608080841333,1.7056527135618171,2.086358508701064
5.823720932006836,-0.0012500286102294922,-0.06654331088066101,0.001836046576499939,-0.05053180083632469,-0.025251762941479683,-0.14144480228424072,0.3133297169317411,1.7049645462592744,2.0872418149262555
5.832742691040039,-0.001114487648010254,-0.0637054443359375,-0.0016925185918807983,-0.03393151983618736,-0.033445779234170914,-0.1262357532978058,0.31278419939379043,1.7044592683685669,2.087876967887187
5.842753887176514,0.007062077522277832,-0.0575404167175293,0.0016156584024429321,-0.017831381410360336,-0.045301638543605804,-0.1139865517616272,0.31267243522953364,1.7039883301090906,2.088291188490169
5.8528618812561035,0.014480888843536377,-0.05086430907249451,0.004755496978759766,-0.02067270688712597,-0.046988751739263535,-0.10191497206687927,0.3132742371428101,1.7036459840616234,2.0885576858206
5.8627729415893555,0.013092339038848877,-0.0510404109954834,0.00834093987941742,-0.030878473073244095,-0.04255112633109093,-0.09651408344507217,0.314228011099251,1.7035096325220696,2.088846781777902
5.873625755310059,0.00997847318649292,-0.05504778027534485,0.010961294174194336,-0.029438234865665436,-0.04545876383781433,-0.08844044059515,0.3147475135423023,1.7033261616816169,2.0891770453920637
5.883014917373657,0.010079741477966309,-0.06348487734794617,0.015390992164611816,-0.04094850271940231,-0.04188937321305275,-0.08506590127944946,0.3150053333344399,1.7031381097360296,2.0895412668974127
5.893389701843262,0.008859455585479736,-0.06669279932975769,0.021169647574424744,-0.04825115576386452,-0.031934745609760284,-0.08295933902263641,0.31525833024044314,1.703008113251426,2.0899942062377206
5.902912855148315,0.009822070598602295,-0.06563103199005127,0.02388228476047516,-0.047082625329494476,-0.03005499579012394,-0.07313871383666992,0.3155566756907555,1.7028951515825674,2.090487141193268
5.912981033325195,0.013627350330352783,-0.06080332398414612,0.022872939705848694,-0.04127134010195732,-0.035927265882492065,-0.06292895972728729,0.31573950641090365,1.7026139929114057,2.0909719078164146
5.92384672164917,0.015348315238952637,-0.05352666974067688,0.022671952843666077,-0.04530426859855652,-0.03078913874924183,-0.05257336422801018,0.3158018229097658,1.702311785246951,2.0914332549270007
5.932882785797119,0.009371280670166016,-0.04802849888801575,0.0214996337890625,-0.05307670310139656,-0.022724822163581848,-0.039740122854709625,0.3158712765128784,1.7020529341750394,2.0919501435462715
5.942974805831909,0.005128800868988037,-0.044755756855010986,0.02009296417236328,-0.04601147025823593,-0.018855072557926178,-0.032528653740882874,0.3160234882180157,1.7019168875548518,2.092446669326376
5.95299768447876,0.0033549070358276367,-0.036503612995147705,0.020514830946922302,-0.03263334929943085,-0.019185570999979973,-0.031027697026729584,0.31622914473382274,1.7018667190301058,2.092803616783427
5.963059902191162,0.0017476081848144531,-0.026924461126327515,0.020737051963806152,-0.021464133635163307,-0.02075989916920662,-0.0379955917596817,0.31648253378258684,1.701933202682183,2.093010214966148
5.973708868026733,-0.000696718692779541,-0.026130884885787964,0.02242361009120941,-0.032817721366882324,-0.026692356914281845,-0.04466068372130394,0.31672346943424057,1.7020484079658798,2.093188920707291
5.983010768890381,-0.003046393394470215,-0.037740230560302734,0.0254366397857666,-0.0583982840180397,-0.015892527997493744,-0.03973788395524025,0.3169671048640995,1.7021810985175378,2.093545856469596
5.9930419921875,-0.00872129201889038,-0.049282968044281006,0.025501608848571777,-0.0873311311006546,0.0058633675798773766,-0.029753427952528,0.3172969004084101,1.7023532566191806,2.094225372656462
6.003155708312988,-0.009651422500610352,-0.044171661138534546,0.02295602858066559,-0.08993573486804962,0.012668099254369736,-0.017077846452593803,0.3176820000618164,1.7026264443353922,2.0950505822391436
6.013142824172974,-0.003914952278137207,-0.025248616933822632,0.019749298691749573,-0.07815497368574142,0.008085597306489944,-0.003258436918258667,0.31819829665055943,1.7029270341393645,2.0958006904718403
6.023692846298218,0.0040514469146728516,-0.010050058364868164,0.015625610947608948,-0.06924083828926086,0.006860189139842987,0.011067185550928116,0.3188579004348947,1.7032517432013872,2.0964085790448532
6.033141851425171,0.006575644016265869,-0.005463123321533203,0.011832505464553833,-0.051399264484643936,0.007888701744377613,0.014172697439789772,0.3195105615691821,1.7036305343500082,2.0968806564143443
6.043166875839233,0.0036635398864746094,-0.006228148937225342,0.009266018867492676,-0.039815258234739304,0.004824069328606129,0.021353324875235558,0.3201190787264155,1.7040822840629293,2.0971600205692855
6.053077697753906,0.002336859703063965,-0.008395195007324219,0.0078667551279068,-0.03174002096056938,0.008995911106467247,0.01613832265138626,0.3207618864029219,1.704673913805172,2.0973015059001043
6.0632829666137695,0.0031978487968444824,-0.0032356083393096924,0.00823664665222168,-0.03343842178583145,0.005670332815498114,0.010548828169703484,0.3216163897002162,1.7055034659171922,2.097348330795865
6.073890686035156,0.004170536994934082,0.0024422109127044678,0.007667675614356995,-0.03704087808728218,0.007731352932751179,0.0035481764934957027,0.3227602181908269,1.706485554225906,2.0973734516395566
6.083255767822266,0.0032538175582885742,0.0008232295513153076,0.006600275635719299,-0.05488347262144089,0.014370657503604889,-0.004617980681359768,0.3239011467020103,1.7074792500815192,2.0975254268781884
6.093274831771851,-0.00019592046737670898,-0.0010014772415161133,0.0035445839166641235,-0.05918874219059944,0.016871631145477295,-0.012917722575366497,0.32445515037795336,1.7082404093982435,2.0978898129752666
6.103289842605591,-0.0007142424583435059,-0.0008501410484313965,-4.76837158203125e-05,-0.061263978481292725,0.014492187649011612,-0.015657955780625343,0.32448598149422325,1.7086386611981808,2.09839886241893
6.113274812698364,0.0005901455879211426,-0.0005162060260772705,-0.0032266229391098022,-0.05886233597993851,0.011306247673928738,-0.021792814135551453,0.32433926048738987,1.7088161579934964,2.0989781973753363
