timestamp,accel_x,accel_y,accel_z,rotation_x,rotation_y,rotation_z, pitch,roll,yaw
0.04635787010192871,-0.0011261552572250366,0.02042388916015625,0.0006328225135803223,0.1344398856163025,0.17111387848854065,0.06250183284282684,-0.10516675802431957,0.032039875089916965,0.0016864634962608285
0.05390286445617676,0.0010221228003501892,0.024195298552513123,0.003118455410003662,0.16354307532310486,0.16509301960468292,0.0577029213309288,-0.10378344649742512,0.03369622005248119,0.0022279077981412873
0.0550539493560791,0.010016392916440964,0.029881194233894348,0.008358597755432129,0.18809688091278076,0.17894811928272247,0.06542715430259705,-0.10225508917686939,0.03541834239529335,0.0027701591971365292
0.061258792877197266,0.012752838432788849,0.030957981944084167,0.00796133279800415,0.22765766084194183,0.17029331624507904,0.07702548801898956,-0.10042122287531673,0.03718673749959126,0.003406121866716433
0.0696268081665039,0.013946391642093658,0.030717715620994568,0.00780409574508667,0.2528114914894104,0.14858776330947876,0.07910914719104767,-0.09819384569118111,0.038709466938804324,0.004087848116163154
0.07964396476745605,0.025091446936130524,0.029002182185649872,0.010883808135986328,0.268567830324173,0.12757103145122528,0.09143334627151489,-0.0957934844825413,0.040028912783225255,0.004825076610701868
0.08964109420776367,0.03716251626610756,0.025651715695858,0.007895171642303467,0.26474887132644653,0.10281641781330109,0.11391442269086838,-0.09334994130920347,0.041153276659173475,0.00573900238788485
0.0997159481048584,0.0381200797855854,0.015593789517879486,0.008699655532836914,0.2342986762523651,0.08752010017633438,0.1366259753704071,-0.09114569591146035,0.0420994558975838,0.006877303922856172
0.1098170280456543,0.043280888348817825,0.0029007792472839355,0.012303352355957031,0.2030523419380188,0.061117254197597504,0.16829201579093933,-0.08922824102907208,0.042870804116694375,0.00829649366614305
0.11976003646850586,0.046249426901340485,-0.007988326251506805,0.013266444206237793,0.152446910738945,0.047538332641124725,0.2025814950466156,-0.08769069012945734,0.04350052926174881,0.010080630911766546
0.12974882125854492,0.04840074107050896,-0.014687269926071167,0.018564820289611816,0.10842913389205933,0.04190894216299057,0.2443145513534546,-0.08661883365906085,0.04415585927111548,0.012271886451046321
0.1399679183959961,0.04619358107447624,-0.02102605253458023,0.02287459373474121,0.0715060830116272,0.012274660170078278,0.2761155962944031,-0.08590540652642359,0.04469964125285304,0.014853607954740779
0.15001893043518066,0.04458657279610634,-0.014404132962226868,0.02486717700958252,0.045863036066293716,-0.016143400222063065,0.29360508918762207,-0.08547698616803494,0.04497879172384887,0.01770357459877958
0.16008901596069336,0.04699402302503586,-0.0034042522311210632,0.027972638607025146,0.01175503246486187,-0.04120685160160065,0.2957909107208252,-0.08532555284485249,0.04508897441339884,0.020676740379228377
0.17014694213867188,0.04308991879224777,-0.0016261637210845947,0.03088277578353882,-0.029429156333208084,-0.042687300592660904,0.29393282532691956,-0.08528682177580559,0.04491803922761103,0.02364558140575304
0.18000292778015137,0.03047463670372963,-0.0003751218318939209,0.029338479042053223,-0.05775095522403717,-0.049496427178382874,0.28387725353240967,-0.08560860741259983,0.04471622872035088,0.02657714591899197
0.1901240348815918,0.017897892743349075,0.005271300673484802,0.028941750526428223,-0.0666901245713234,-0.05621078982949257,0.26761573553085327,-0.08611333733699833,0.04443040636387254,0.029367017828274198
0.19995784759521484,0.010218571871519089,0.011589348316192627,0.025506138801574707,-0.06353343278169632,-0.05410143360495567,0.2535344660282135,-0.08666380268482267,0.04409941138694436,0.03201333850674287
0.20998477935791016,0.007259376347064972,0.014589875936508179,0.021393179893493652,-0.045979470014572144,-0.05642370879650116,0.24771812558174133,-0.08709813680727335,0.0437781021953901,0.03455587285134729
0.21977686882019043,0.00029064714908599854,0.017205864191055298,0.01906663179397583,-0.028612812981009483,-0.053785182535648346,0.23541726171970367,-0.08735175932542921,0.04343721266814268,0.036996226804622744
0.2300269603729248,-0.0027211979031562805,0.017254747450351715,0.01749485731124878,-0.010317163541913033,-0.02866997756063938,0.2336752861738205,-0.08745586612017092,0.043228861014946975,0.03935835115222357
0.2399730682373047,-0.0033097416162490845,0.010531090199947357,0.01036989688873291,0.025625957176089287,-0.019131865352392197,0.24657222628593445,-0.08728188292288488,0.043206289018921734,0.04176815950948923
0.2500767707824707,-0.005732502788305283,0.01130659133195877,0.0031592249870300293,0.08358380198478699,-0.010452356189489365,0.26047393679618835,-0.08664129223731186,0.04327712848527254,0.04428399479227359
0.2600407600402832,-0.0032002702355384827,0.01509898155927658,-0.0020084381103515625,0.1666327714920044,-0.016977811232209206,0.2929028868675232,-0.08528530282548996,0.04338009869066477,0.046999893769022145
0.2702469825744629,0.00037851184606552124,0.01875317096710205,-0.006013631820678711,0.2608005702495575,-0.037664979696273804,0.31826016306877136,-0.08301162398115268,0.04337883858178669,0.0499782869006659
0.280148983001709,0.0026364512741565704,0.023896142840385437,-0.006803393363952637,0.32550564408302307,-0.05765369161963463,0.3378356099128723,-0.07990300796220501,0.043138358259241914,0.05313458606724464
0.28995704650878906,0.0016518160700798035,0.019434474408626556,-0.00266420841217041,0.3542909622192383,-0.06637128442525864,0.35488784313201904,-0.0763276588959083,0.04278208376647549,0.056478048218785167
0.3001229763031006,0.003378927707672119,0.005749635398387909,0.0007676482200622559,0.33926254510879517,-0.06945029646158218,0.3589339852333069,-0.07268366416522433,0.04236942523085359,0.05991840215281296
0.31026291847229004,0.0009899772703647614,-0.006306059658527374,0.0036624670028686523,0.29411691427230835,-0.06022936850786209,0.3508126735687256,-0.06935009128823012,0.041924015843001684,0.06333357421242021
0.3201138973236084,-0.005168214440345764,-0.018501639366149902,0.01029205322265625,0.2405727356672287,-0.05615135654807091,0.3511875867843628,-0.06652450872039965,0.041588146791653284,0.06675005548259368
0.33063197135925293,-0.005501247942447662,-0.025971412658691406,0.012101233005523682,0.18503649532794952,-0.049506768584251404,0.34043559432029724,-0.06425430878231225,0.041273222669264885,0.07013833453220009
0.34018492698669434,-0.005418669432401657,-0.02310764789581299,0.013192534446716309,0.1135265976190567,-0.0448763333261013,0.32453247904777527,-0.06260794398481197,0.041017778016640506,0.07340486693926804
0.35023975372314453,-0.00447247177362442,-0.023027800023555756,0.010720551013946533,0.0319846011698246,-0.030483543872833252,0.30556225776672363,-0.06174823872654477,0.040831820991305494,0.07653744897219861
0.3605690002441406,-0.0032057911157608032,-0.02427617833018303,0.009152531623840332,-0.052063509821891785,-0.020216481760144234,0.27811741828918457,-0.06173009954674671,0.04077036729243808,0.07947983974149048
0.37027406692504883,-0.00330391526222229,-0.02480476349592209,0.007714569568634033,-0.1338241547346115,-0.018473709002137184,0.24059215188026428,-0.06255018346091498,0.04073313942181645,0.08212248207244834
0.3801729679107666,-0.004592821002006531,-0.018592536449432373,0.013429880142211914,-0.19358167052268982,-0.010999191552400589,0.2103365659713745,-0.06410779457490842,0.04072904878857681,0.08444107782050435
0.39024996757507324,-0.002857491374015808,-0.011607900261878967,0.0125352144241333,-0.21576818823814392,-0.005389775615185499,0.19115594029426575,-0.06609955439327736,0.04078444137063621,0.08653281656843423
0.4002528190612793,-0.001619625836610794,-0.004148274660110474,0.009588062763214111,-0.19201713800430298,0.003742069937288761,0.18322744965553284,-0.0681048904254205,0.040910489271215045,0.08848001027652846
0.41041994094848633,-0.002651754766702652,0.011222489178180695,0.006596744060516357,-0.12231902033090591,-0.01344890147447586,0.17723800241947174,-0.0696139224008346,0.041001114453420084,0.09035754184263528
0.4202280044555664,0.0006720311939716339,0.029825448989868164,0.004224896430969238,-0.054529882967472076,-0.02365315705537796,0.1721455603837967,-0.07040683141855404,0.0409294887022516,0.09215039164599609
0.4302048683166504,0.003369908779859543,0.03935279697179794,0.0002904534339904785,-0.0030981157906353474,-0.009583943523466587,0.17661914229393005,-0.07061510768081623,0.04088710000762243,0.09390516030198648
0.44030284881591797,-0.00024686381220817566,0.03214636445045471,-0.005449831485748291,0.02528735250234604,-0.001251446083188057,0.1763361394405365,-0.07040524733433848,0.04094817097008961,0.09567745393249093
0.4503750801086426,-0.006856586784124374,0.022734083235263824,-0.007750451564788818,0.024415433406829834,0.0007978565990924835,0.16688857972621918,-0.07006632227759264,0.041072346246042474,0.09739118586198865
0.4610557556152344,-0.00576256588101387,0.012085460126399994,-0.002581775188446045,0.017142774537205696,0.013382180593907833,0.15854878723621368,-0.06980426900332787,0.04124461886361857,0.09901571370085341
0.47032785415649414,-0.003563724458217621,0.00035715848207473755,0.0005399584770202637,0.026753323152661324,0.011634880676865578,0.15177370607852936,-0.06952322132620237,0.041502472175280594,0.10055949718355134
0.48050689697265625,-0.00667114183306694,0.0009779483079910278,0.0018326044082641602,0.0531148724257946,0.005641924683004618,0.1481810063123703,-0.06903859961035641,0.04167938968096475,0.1020452723866691
0.4902529716491699,-0.003947153687477112,0.006999753415584564,0.003661513328552246,0.08586536347866058,-0.010033974424004555,0.14808300137519836,-0.06837105689198236,0.0417307581030852,0.10350095476829754
0.5003609657287598,0.00023489072918891907,0.006299152970314026,0.0016712546348571777,0.11233025789260864,-0.01482420228421688,0.15005852282047272,-0.06758975091761057,0.041696783885066854,0.1049511194419099
0.5107228755950928,-0.0032681822776794434,0.003049500286579132,0.0008107423782348633,0.11869441717863083,-0.017789365723729134,0.15032164752483368,-0.0667940256587106,0.041657469764191914,0.10641903342649496
0.5204019546508789,-0.005814824253320694,-0.00226786732673645,-0.0005915164947509766,0.11448733508586884,-0.02169271558523178,0.13668635487556458,-0.06592967135686455,0.04153104663115353,0.10781446782928014
0.5305848121643066,-0.011129502207040787,-0.008859239518642426,0.003998517990112305,0.08035945892333984,-0.017682528123259544,0.11617975682020187,-0.06516467272458956,0.04133463697794927,0.10903557018483367
0.5405158996582031,-0.013741377741098404,-0.018371574580669403,0.00441133975982666,0.027532048523426056,-0.00761422561481595,0.09620386362075806,-0.0647579328813054,0.041213741830109396,0.11008447121028875
0.5509748458862305,-0.014607325196266174,-0.02152334898710251,0.004652738571166992,-0.03500829637050629,-0.0004609753377735615,0.06999489665031433,-0.06481228535476677,0.0411947676162211,0.11091557647141773
0.5606050491333008,-0.01617516204714775,-0.028458110988140106,0.005628645420074463,-0.09436481446027756,0.011390047147870064,0.04527522623538971,-0.06550768971278571,0.04122342123057688,0.11150642743907396
0.5704507827758789,-0.01602821797132492,-0.03181474655866623,0.0051760077476501465,-0.1293448954820633,0.01889137364923954,0.02734283171594143,-0.06671547324088466,0.041385442228764634,0.11190623343138573
0.5804648399353027,-0.012116815894842148,-0.02566472440958023,0.002998828887939453,-0.12857568264007568,0.024698927998542786,0.019287195056676865,-0.06809115341836988,0.04161372617434362,0.11217561141688553
0.5905218124389648,-0.008560243993997574,-0.015334829688072205,0.0002893805503845215,-0.0907963439822197,0.01768416166305542,0.02797842025756836,-0.06920798229526783,0.041814660348117046,0.11245603830025148
0.6006948947906494,-0.004144914448261261,0.0005248263478279114,-0.007198810577392578,-0.03564848378300667,0.004045004956424236,0.0309473667293787,-0.06976814012111113,0.04188728348521964,0.11279044376470243
0.610508918762207,0.0008168108761310577,0.015245817601680756,-0.008398175239562988,0.00453302264213562,-0.008244950324296951,0.03348482772707939,-0.0697565830099262,0.04176214410969142,0.11310685188612989
0.6204299926757812,0.0013638287782669067,0.015948109328746796,-0.006289482116699219,0.008418192155659199,-0.010251333005726337,0.024177132174372673,-0.06941969705007162,0.041518529456693876,0.11338292695143724
0.6305079460144043,-0.002167005091905594,0.004794605076313019,-0.003058493137359619,-0.009184770286083221,-0.0013270792551338673,0.012461354024708271,-0.06915900029313073,0.0413095310461701,0.113559936771662
0.6405510902404785,-0.005772098898887634,-0.00671001523733139,0.0007890462875366211,-0.026381351053714752,-0.005979222245514393,0.0035824812948703766,-0.06902083542572421,0.04111416288584916,0.11364098098729987
0.6506648063659668,-0.008637432008981705,-0.01001199334859848,0.005072295665740967,-0.038546137511730194,-0.01062324270606041,-0.008354338817298412,-0.06901163109891058,0.04086587625653497,0.11361749694425892
0.6605958938598633,-0.005611307919025421,-0.006377130746841431,0.00764918327331543,-0.045131832361221313,-0.011313622817397118,-0.015298531390726566,-0.06917659679685817,0.040631819958429356,0.11350875752618922
0.6707019805908203,-0.0031858980655670166,-0.004649333655834198,0.00800091028213501,-0.051643796265125275,-0.012561313807964325,-0.01998489536345005,-0.06950954359996114,0.0404191881344394,0.11335084726107196
0.680840015411377,-0.005576424300670624,-0.005897738039493561,0.007857799530029297,-0.06718697398900986,-0.0033784680999815464,-0.025468183681368828,-0.07010326489087809,0.04029327455296755,0.11314322888502207
0.6905338764190674,-0.005378551781177521,-0.009292170405387878,0.007514595985412598,-0.09821412712335587,0.003915663808584213,-0.034845177084207535,-0.07107396799942155,0.04029653687917888,0.11288325692577064
0.700563907623291,-0.007279526442289352,-0.014150157570838928,0.009217977523803711,-0.13288214802742004,0.016241349279880524,-0.04999057203531265,-0.07238001189158821,0.04038579175997146,0.11249956339897303
0.7105598449707031,-0.008400753140449524,-0.01891200989484787,0.011264622211456299,-0.17029716074466705,0.02933930978178978,-0.06480760127305984,-0.07394169681621529,0.04053559499663894,0.1119805254565079
0.7205319404602051,-0.008896742016077042,-0.022213660180568695,0.010118186473846436,-0.19023451209068298,0.033291928470134735,-0.07054857164621353,-0.0756765428705212,0.0407783353323181,0.11136012467361008
0.7306327819824219,-0.007539954036474228,-0.022290900349617004,0.0071294307708740234,-0.20777009427547455,0.03078828938305378,-0.08645670115947723,-0.07754454332714301,0.040969244866609696,0.11065540953784643
0.7408819198608398,-0.00497329980134964,-0.01615508645772934,0.005311846733093262,-0.2218477576971054,0.036493003368377686,-0.08968418836593628,-0.07959375614246343,0.041187150129676664,0.10985296364277845
0.751107931137085,-0.0011836960911750793,-0.01995125412940979,0.0002244114875793457,-0.2375311255455017,0.03960543870925903,-0.09419665485620499,-0.0817949202849878,0.04148017696149206,0.10902809483381211
0.7609400749206543,-0.0011275261640548706,-0.02144864946603775,-0.0031656622886657715,-0.24828122556209564,0.03294944763183594,-0.10145711898803711,-0.0841089883505591,0.0417076177767813,0.10815253593031866
0.7708449363708496,0.002293255180120468,-0.019526757299900055,-0.004128634929656982,-0.2737745940685272,0.0342104509472847,-0.10773765295743942,-0.08654470952965275,0.04189744088317247,0.1072039402041173
0.780768871307373,0.002280205488204956,-0.020379766821861267,-0.004935801029205322,-0.2684507369995117,0.03249826282262802,-0.1019398421049118,-0.08905534105015876,0.042073150666375715,0.1062439635944017
0.7908449172973633,0.00048121437430381775,-0.0201018825173378,-0.00734710693359375,-0.27463671565055847,0.03748476505279541,-0.09830675274133682,-0.09151881058910996,0.04224968717949076,0.10536266032513363
0.8007159233093262,0.0028325431048870087,-0.016024775803089142,-0.011116623878479004,-0.23850946128368378,0.013293365016579628,-0.09680819511413574,-0.0937838205943068,0.04236448085451223,0.104476362112982
0.8107528686523438,0.0038563907146453857,-0.01412869244813919,-0.011726140975952148,-0.2168015092611313,0.0018111455719918013,-0.09527954459190369,-0.09575706873079526,0.04226351541605592,0.10361019694436786
0.820702075958252,0.005190301686525345,-0.01706526428461075,-0.007661879062652588,-0.21712639927864075,-0.005983483511954546,-0.08649089932441711,-0.09766495374382866,0.042111456841278455,0.10278707500592457
0.8307759761810303,0.004601635038852692,-0.011028461158275604,-0.008836448192596436,-0.22450202703475952,-0.009319625794887543,-0.08283012360334396,-0.09958731576618986,0.041959521229368316,0.10201643906401593
0.840939998626709,0.008525218814611435,-0.01476731151342392,-0.0048653483390808105,-0.24089957773685455,-0.015165796503424644,-0.0756826177239418,-0.10161217382595446,0.04175109971066343,0.1013204495223773
0.8508310317993164,0.008212573826313019,-0.019716434180736542,-0.0012902617454528809,-0.2710169851779938,-0.018192479386925697,-0.07647677510976791,-0.10388775045527515,0.04153809817448717,0.10066668777738409
0.8608207702636719,0.007909584790468216,-0.02447296679019928,0.0003857612609863281,-0.3052041828632355,-0.016299504786729813,-0.07350026816129684,-0.10647658198065767,0.041301515824368494,0.10002812164263129
0.8708889484405518,0.008587263524532318,-0.025135040283203125,0.005662798881530762,-0.3284229338169098,-0.01621295139193535,-0.07013269513845444,-0.10941404893456227,0.04109324701487936,0.0994337806183898
0.8807897567749023,0.008742399513721466,-0.02059466391801834,0.00351870059967041,-0.35696905851364136,-0.017426997423171997,-0.06085376441478729,-0.1128753740373206,0.040860652692534465,0.09890689930143594
0.8925180435180664,0.010183598846197128,-0.018542520701885223,0.002900362014770508,-0.3560611605644226,-0.015984095633029938,-0.05090472847223282,-0.11649275539347707,0.04064013564634846,0.0984936596257916
0.9009928703308105,0.01706087589263916,-0.008895181119441986,0.0010625720024108887,-0.3377518653869629,-0.02489268034696579,-0.03576061129570007,-0.11999240993445347,0.04041540544023047,0.0981980816881877
0.9114859104156494,0.019212670624256134,0.0016265511512756348,0.00029098987579345703,-0.30359017848968506,-0.04732128977775574,-0.026440346613526344,-0.12321210905910475,0.04003092604375845,0.0980218974245402
0.9211108684539795,0.02129422128200531,0.011425763368606567,0.004353344440460205,-0.2634338140487671,-0.06618516892194748,-0.02055438607931137,-0.1260693243258385,0.03945392038239323,0.0979037268580789
0.930980920791626,0.021449796855449677,0.008640363812446594,0.007690370082855225,-0.22776131331920624,-0.0868971049785614,-0.018727989867329597,-0.12850824126659877,0.038677960933783576,0.09781679596389056
0.9440429210662842,0.017003841698169708,0.008190512657165527,0.015286386013031006,-0.2486441731452942,-0.11626187711954117,-0.033118221908807755,-0.1308392490053254,0.03764812298897785,0.09766051789186568
0.9510660171508789,0.012978322803974152,0.002417534589767456,0.022197067737579346,-0.41417109966278076,-0.11291774362325668,-0.09635525196790695,-0.13409251339238284,0.03638279714470054,0.09713494015366822
0.9609708786010742,0.00864110141992569,-0.026939526200294495,0.03263765573501587,-0.6621079444885254,-0.06328672170639038,-0.13083258271217346,-0.13948260630669135,0.03536512639691081,0.09616463609878352
0.9711089134216309,-0.001848854124546051,-0.07676313817501068,0.030875027179718018,-0.9356511235237122,-0.05143379047513008,-0.18744632601737976,-0.14750327784326844,0.03465705121705317,0.09487851476434522
0.9810190200805664,-0.008699428290128708,-0.09435895085334778,0.033928096294403076,-1.2358509302139282,-0.016440918669104576,-0.27904921770095825,-0.15846756195244177,0.03397292956415895,0.09287041895103501
0.9929327964782715,-0.004544317722320557,-0.10442739725112915,0.046625614166259766,-1.4750794172286987,0.01592234894633293,-0.3076275885105133,-0.172171455658474,0.03358103195214772,0.09034202840652882
1.000978946685791,-0.0006626807153224945,-0.11023253202438354,0.031102478504180908,-1.6543995141983032,-0.0017195409163832664,-0.36289894580841064,-0.18796723433147022,0.03312781967516215,0.08749127041378009
1.0110559463500977,-0.0009500980377197266,-0.08825644850730896,0.032348453998565674,-1.7285007238388062,0.025822071358561516,-0.3783838748931885,-0.20512480025207866,0.03259932693998361,0.08423144757990737
1.020951747894287,0.004924654960632324,-0.07656435668468475,0.03356599807739258,-1.6197772026062012,0.013005653396248817,-0.3374846875667572,-0.22204615371169442,0.03224958107696968,0.08113068369582264
1.031059980392456,0.003364425152540207,-0.036990031599998474,0.024847030639648438,-1.4005053043365479,-0.027066132053732872,-0.3368915915489197,-0.23741056041391936,0.031380103176847786,0.0781442399285323
1.042996883392334,0.007841000333428383,0.01789870858192444,0.04187345504760742,-1.0135406255722046,-0.13675880432128906,-0.2457597553730011,-0.24954544329856984,0.030114088115177188,0.0755114729158243
1.051042079925537,0.016744203865528107,0.04822021722793579,0.04391902685165405,-0.7651284337043762,-0.3269210159778595,-0.3442074954509735,-0.2584501072498972,0.0270025418554471,0.07283562748823352
1.061048984527588,0.0062780436128377914,0.09122303128242493,0.11734163761138916,-0.6639582514762878,-0.3183020353317261,-0.3934811055660248,-0.265571320556678,0.02276605432757576,0.0691182222052117
1.0710549354553223,-0.009034283459186554,0.012711256742477417,0.15107488632202148,-0.7004744410514832,-0.28839102387428284,-0.4462122321128845,-0.2724461758433511,0.018586277381505093,0.0649479914809257
1.081084966659546,-0.03390497714281082,-0.018827706575393677,0.12141221761703491,-0.7816364169120789,-0.1870526522397995,-0.4961874485015869,-0.2798834695463692,0.014876922363441835,0.06013956016598941
1.092878818511963,-0.03237064182758331,-0.02867680788040161,0.09032660722732544,-0.885335385799408,-0.020273517817258835,-0.5486903190612793,-0.2883476429877986,0.012246719228254868,0.054807509507885946
1.102348804473877,-0.024805113673210144,-0.04999300837516785,0.05159318447113037,-0.6610415577888489,0.34833142161369324,-0.5151927471160889,-0.296522159023798,0.012247947702316249,0.04924129080369616
1.1112449169158936,-0.04831067472696304,-0.04001349210739136,-0.021447956562042236,0.09017258137464523,0.4632446765899658,-0.381986528635025,-0.2997623711586605,0.015110604984527596,0.04463301507835824
1.1211109161376953,-0.05891885980963707,0.09843477606773376,-0.09980738162994385,1.414352536201477,0.5470905900001526,-0.2549063265323639,-0.29259374283377293,0.019256929434602322,0.04106835254306616
1.13114595413208,-0.019018450751900673,0.2832253575325012,-0.09731292724609375,3.24165940284729,0.5253621339797974,-0.022438200190663338,-0.26963651488047957,0.024229768829077267,0.03906268586951864
1.1425628662109375,-0.00412435457110405,0.4579823911190033,-0.13905054330825806,5.113258361816406,0.254896342754364,0.09966038167476654,-0.22752369542732598,0.027887421651462713,0.03848270050192113
1.1511530876159668,0.03226073086261749,0.6436006426811218,-0.12969070672988892,6.6036152839660645,0.30599284172058105,0.2282428741455078,-0.16858301472717893,0.030648020354305028,0.03823906730552193
1.1612029075622559,0.04515961930155754,0.6169442534446716,-0.1072540283203125,7.779303073883057,0.32433995604515076,0.34289875626564026,-0.09644695428511946,0.03387700922907391,0.038882580833604706
1.1711130142211914,0.009595464915037155,0.5638419985771179,-0.10212194919586182,8.50839900970459,0.12841227650642395,0.3643262982368469,-0.0143904749806407,0.036177340675539585,0.03959566390610712
1.18119478225708,0.005612477660179138,0.553475022315979,0.01984989643096924,8.600122451782227,0.02095177210867405,0.26303568482398987,0.0716024443666007,0.03677217383842034,0.03968242405700351
1.1925678253173828,0.02072788029909134,0.46445780992507935,0.18961727619171143,8.299814224243164,0.13070356845855713,0.145423024892807,0.15634748195084983,0.037647269331034086,0.03856274252066975
1.2015018463134766,-0.00900677964091301,0.2846922278404236,0.17377078533172607,7.715949535369873,0.26766738295555115,-0.039092812687158585,0.23672594352340962,0.04002546648965473,0.03607932921040663
1.2112679481506348,-0.02284584566950798,0.18043461441993713,0.11174428462982178,6.855042457580566,0.6043156385421753,-0.39925605058670044,0.30960950667805354,0.04587049411340715,0.030499859727798416
1.221200942993164,-0.04775365814566612,0.08714967966079712,0.12369781732559204,6.026463508605957,0.8795434236526489,-0.653913676738739,0.3736621219666816,0.05643666004730613,0.021371167200068927
1.231410026550293,-0.08595796674489975,0.024316787719726562,0.08433490991592407,5.371429443359375,1.060654878616333,-0.9303132891654968,0.4299255400708401,0.07098795778032996,0.008941748539253619
1.242966890335083,-0.046605877578258514,0.07610771059989929,0.11842423677444458,4.999502658843994,1.1883690357208252,-1.181941270828247,0.48078498988410423,0.08963460998408246,-0.007533626491445866
1.2515110969543457,-0.025389008224010468,0.0868346095085144,0.16385692358016968,4.6853227615356445,1.2070026397705078,-1.3655472993850708,0.5276696914168819,0.1113155463228477,-0.02756236429973507
1.261612892150879,-0.010001420974731445,0.11419558525085449,0.2298436164855957,4.419018745422363,1.198346495628357,-1.5468288660049438,0.5710620999305435,0.135741668905448,-0.05115408552440667
1.2715039253234863,0.02214379608631134,0.11715918779373169,0.3148522973060608,4.228155612945557,1.1854872703552246,-1.649781584739685,0.6115028861628052,0.16260137028504615,-0.0779863657234828
1.2815227508544922,0.03805719316005707,0.07733732461929321,0.363677442073822,4.260048866271973,1.2060377597808838,-1.8221616744995117,0.6500358644441842,0.19281113738398156,-0.10831231257522779
1.293632984161377,0.04260963201522827,0.05538100004196167,0.37076008319854736,4.1776556968688965,1.2882962226867676,-1.973839282989502,0.6871412750500546,0.22678637893487724,-0.14317075406371674
1.3014428615570068,0.10662028193473816,0.07945197820663452,0.35425060987472534,4.268202781677246,1.385450005531311,-2.0704736709594727,0.7233032944179572,0.2655618170703351,-0.18256333083422238
1.3114590644836426,0.18800657987594604,0.0816451907157898,0.30825716257095337,4.211324691772461,1.5404210090637207,-2.1917717456817627,0.7581182742235913,0.3096857122423721,-0.22658364965079147
1.321396827697754,0.14993007481098175,0.0638883113861084,0.2688518762588501,3.955552101135254,1.7392024993896484,-2.265446901321411,0.7893771334050648,0.3598737557968078,-0.2747883189223175
1.3315188884735107,0.1458686888217926,-0.039840877056121826,0.21055680513381958,3.687490224838257,1.7872246503829956,-2.2804484367370605,0.8162188402265836,0.4144107129888505,-0.32591874959591716
1.3425498008728027,0.15500664710998535,-0.0978848934173584,0.22913825511932373,3.497868776321411,1.776950716972351,-2.328646183013916,0.8388135914133544,0.4717868393098048,-0.3795581460421915
1.3514118194580078,0.15654751658439636,-0.12844598293304443,0.22599798440933228,3.335505485534668,1.7209635972976685,-2.2830207347869873,0.8576453672587367,0.5309133287499173,-0.43498862950313066
1.3614308834075928,0.15515723824501038,-0.1760534644126892,0.16279125213623047,3.1662425994873047,1.6333471536636353,-2.145998954772949,0.873464062182914,0.5902528143609362,-0.49080482712810325
1.3717260360717773,0.1382448375225067,-0.2123151421546936,0.10178029537200928,2.9173662662506104,1.53464937210083,-1.9358597993850708,0.8864085643945625,0.6476384823098956,-0.5447263972970575
1.3816969394683838,0.1128128170967102,-0.3036286234855652,0.027332216501235962,2.637439727783203,1.5187162160873413,-1.630476713180542,0.8968951916498271,0.7017634263311315,-0.5946039801590606
1.3925080299377441,0.07459390163421631,-0.36848288774490356,-0.09584754705429077,2.314502477645874,1.4429290294647217,-1.2792209386825562,0.9058387646206377,0.7513432031038444,-0.6388999545585193
1.4014499187469482,0.02031773328781128,-0.3759186863899231,-0.1564679741859436,1.9105567932128906,1.3526289463043213,-0.9309716820716858,0.9133103070879761,0.7945918534169112,-0.6759071385871319
1.4117450714111328,-0.009371191263198853,-0.4445052742958069,-0.1694309115409851,1.4930236339569092,1.2556473016738892,-0.5708028674125671,0.9195553963610689,0.8304454823122991,-0.7046896556120124
1.421510934829712,-0.0383073091506958,-0.4983859658241272,-0.2092469036579132,1.1503130197525024,1.178170084953308,-0.16931851208209991,0.9255415730239311,0.8589623550656487,-0.7251257609768217
1.4316010475158691,-0.06920790672302246,-0.4708753824234009,-0.2557908892631531,0.8391900658607483,1.1088067293167114,0.1991889476776123,0.932088959800444,0.8803611037291538,-0.7376095469629628
1.4425930976867676,-0.08864310383796692,-0.4200962781906128,-0.26608723402023315,0.617363452911377,1.0238434076309204,0.5264410972595215,0.9395198236986776,0.8955613852091947,-0.7431687983531959
1.4515490531921387,-0.10121524333953857,-0.33094871044158936,-0.2754329442977905,0.4417370557785034,0.9127653241157532,0.7521528005599976,0.9478766969246085,0.9054166319244457,-0.7433916443206255
1.4615440368652344,-0.08512440323829651,-0.21943312883377075,-0.25289833545684814,0.2946546971797943,0.7883254289627075,0.8982442617416382,0.9567002919427231,0.9108015456319632,-0.7395386133823372
1.4716930389404297,-0.06331050395965576,-0.13007700443267822,-0.22229298949241638,0.16625145077705383,0.6578497290611267,0.9313545227050781,0.9653877096820435,0.9126020099982908,-0.7328832751856863
1.486365795135498,-0.04734078049659729,-0.027744531631469727,-0.18958652019500732,0.031605035066604614,0.5111767053604126,0.8819316029548645,0.9732200593828376,0.9114592261554295,-0.7244206578817997
1.4949979782104492,-0.014954417943954468,0.049175381660461426,-0.1561310589313507,-0.06992078572511673,0.39654865860939026,0.779456615447998,0.9796513841299658,0.9081830299641954,-0.7149749963328468
1.5014967918395996,0.015692085027694702,0.12184643745422363,-0.14549055695533752,-0.17563019692897797,0.2763601839542389,0.669947624206543,0.9846135272022147,0.9033903631364796,-0.7051710845515909
1.5116090774536133,0.04027608036994934,0.1880907416343689,-0.1340937316417694,-0.22395272552967072,0.13233084976673126,0.5866894721984863,0.9882197971002774,0.897127987750564,-0.6951631688333838
1.521677017211914,0.05532214045524597,0.23164963722229004,-0.10920318961143494,-0.12128465622663498,0.041165389120578766,0.41412320733070374,0.9909901807348219,0.8910587933972368,-0.686849895847978
1.531846046447754,0.058653831481933594,0.3161299228668213,-0.10054910182952881,-0.018805155530571938,-0.1074078381061554,0.27294450998306274,0.9932920469874006,0.886574969002376,-0.681928914777662
1.5425548553466797,0.05978792905807495,0.3368304371833801,-0.08213907480239868,-0.07570935785770416,-0.19254110753536224,0.0995132252573967,0.9944846051707944,0.8827051152962643,-0.6791730464852707
1.551692008972168,0.04615786671638489,0.2704774737358093,-0.04812204837799072,-0.18629524111747742,-0.16934017837047577,-0.04098024591803551,0.9938267071340817,0.8790281803475145,-0.6770300887912297
1.5617008209228516,0.01477476954460144,0.16603338718414307,-0.06328243017196655,-0.25018107891082764,-0.1340636909008026,-0.0897633358836174,0.9918478930176735,0.8755410148237306,-0.6746488425983802
1.5717267990112305,0.006402820348739624,0.14815425872802734,-0.08886730670928955,-0.24911503493785858,-0.12183978408575058,-0.14143425226211548,0.9893503241381848,0.8724045266118309,-0.6724552076023481
1.5817670822143555,0.013032346963882446,0.16336721181869507,-0.07596331834793091,-0.26156365871429443,-0.11078716814517975,-0.17689307034015656,0.9864672464876136,0.8699008787362509,-0.6708284217394274
1.5929679870605469,0.0034171342849731445,0.106955885887146,-0.06395316123962402,-0.26515331864356995,-0.12358365952968597,-0.15130780637264252,0.9834598246714521,0.8673695470521885,-0.6691370660611797
1.6017460823059082,-0.003171205520629883,0.050262272357940674,-0.0480879545211792,-0.21476688981056213,-0.16699592769145966,-0.13660578429698944,0.9808086946685504,0.8645152351171493,-0.6674908411756765
1.6117887496948242,0.0033798813819885254,0.041258811950683594,-0.03239703178405762,-0.17289000749588013,-0.18832172453403473,-0.11039122939109802,0.9786167779430832,0.8618204637860073,-0.6663612569170424
1.6217269897460938,-0.013228237628936768,0.018567562103271484,-0.029743731021881104,-0.16356872022151947,-0.18063639104366302,-0.07681361585855484,0.9768123770520819,0.8589776680458955,-0.665198107096256
1.6318168640136719,-0.02817419171333313,-0.008412301540374756,-0.02423110604286194,-0.173502579331398,-0.186915323138237,-0.0657937154173851,0.9752017367618926,0.8559143469356394,-0.6637184391670602
1.6429028511047363,-0.03183382749557495,-0.029126107692718506,-0.012975633144378662,-0.20039814710617065,-0.18397961556911469,-0.06813836097717285,0.9734766065507914,0.852700654118901,-0.6620280674859712
1.6517930030822754,-0.029931485652923584,-0.05367016792297363,0.006727248430252075,-0.26070037484169006,-0.21309888362884521,-0.07764478027820587,0.9714036896667693,0.8488367353821438,-0.6598056554237482
1.661911964416504,-0.017910122871398926,-0.08192414045333862,0.029210686683654785,-0.2743234634399414,-0.20894259214401245,-0.06250817328691483,0.969063805011454,0.8444512709795629,-0.6570310119837629
1.671773910522461,-0.019438743591308594,-0.09134799242019653,0.026816487312316895,-0.23996256291866302,-0.19171246886253357,-0.026998117566108704,0.9670023676567608,0.8400505416110166,-0.6541541738186651
1.6819648742675781,-0.027808785438537598,-0.06395924091339111,0.012924790382385254,-0.19852377474308014,-0.17342595756053925,0.011610208079218864,0.9654975146787708,0.8358859174938427,-0.6513214809137607
1.6933748722076416,-0.0261385440826416,-0.0495220422744751,0.013627886772155762,-0.16353781521320343,-0.13093335926532745,0.03584017977118492,0.9644566577190506,0.8322171347624816,-0.6487050000344817
1.7019119262695312,-0.03145819902420044,-0.05825912952423096,0.01570749282836914,-0.1614791601896286,-0.08600250631570816,0.05850229784846306,0.9637181617122603,0.8289740835553017,-0.6460737070719079
1.71197509765625,-0.03350234031677246,-0.06543231010437012,0.017567425966262817,-0.16812613606452942,-0.05400968715548515,0.07299575209617615,0.9631004507735152,0.8258727952838129,-0.6431466031380358
1.7219839096069336,-0.021647602319717407,-0.07425194978713989,0.02104547619819641,-0.1880580186843872,-0.03753684088587761,0.0700770914554596,0.9624326107273904,0.8228327702322611,-0.6399935767295833
1.7341349124908447,-0.01748552918434143,-0.08464807271957397,0.02341294288635254,-0.21475034952163696,-0.028791816905140877,0.061588261276483536,0.9615169196184461,0.8197854308486856,-0.6366431783691151
1.7444078922271729,-0.004784345626831055,-0.1018722653388977,0.022677958011627197,-0.19876734912395477,-0.09048882871866226,0.08660119771957397,0.9606161470023873,0.8162893810716811,-0.6330628046626421
1.7520239353179932,0.02342185378074646,-0.09301376342773438,0.023561090230941772,-0.1334032565355301,-0.16635961830615997,0.11007563024759293,0.960178202820096,0.8123092357807616,-0.6297715594353945
1.7622029781341553,0.0420132577419281,-0.07006591558456421,0.019639551639556885,-0.08050106465816498,-0.2296200692653656,0.1475139707326889,0.9605219229248375,0.8079832599409592,-0.6269048060511415
1.772040843963623,0.04409843683242798,-0.0625106692314148,0.0031537115573883057,-0.04283997043967247,-0.23612751066684723,0.16327403485774994,0.9613247930513351,0.8034235639548926,-0.624251919224723
1.7822048664093018,0.04097092151641846,-0.05104440450668335,-0.025674819946289062,-0.053850725293159485,-0.1994398534297943,0.1833144873380661,0.9623772232283891,0.7990758874098957,-0.6216108155200849
1.792665958404541,0.020898669958114624,-0.03793555498123169,-0.06235399842262268,-0.142411470413208,-0.1398356407880783,0.17469756305217743,0.9631011751113713,0.7945784341374447,-0.6182028491493625
1.8019189834594727,0.002843230962753296,-0.055895864963531494,-0.05280938744544983,-0.21104353666305542,-0.07499619573354721,0.15871380269527435,0.9630731271928669,0.7900195417823642,-0.6139313185578733
1.811892032623291,-0.007965236902236938,-0.06893754005432129,-0.04243338108062744,-0.2038239687681198,-0.09594861418008804,0.1500268429517746,0.9627606390140673,0.7854909495455931,-0.6093953115154608
1.8217899799346924,0.01338893175125122,-0.019771218299865723,-0.024824827909469604,-0.17885416746139526,-0.13037024438381195,0.12168120592832565,0.9624711893219599,0.7811021368885643,-0.6054145273008648
1.8319668769836426,0.03078976273536682,0.01577281951904297,0.002666652202606201,-0.24050475656986237,-0.15506519377231598,0.09811649471521378,0.9618418916020469,0.7765965947707998,-0.6016294823873024
1.843019962310791,0.023341238498687744,-0.016566336154937744,0.01709812879562378,-0.35847774147987366,-0.14864298701286316,0.07438879460096359,0.9603661521630725,0.7713324945761094,-0.5970461721470729
1.8520278930664062,0.016421079635620117,-0.0540199875831604,0.02360755205154419,-0.5371221899986267,-0.07966262847185135,0.05694573372602463,0.9576147600683858,0.7651978984485609,-0.590954189714636
1.862048864364624,-0.00877717137336731,-0.08800762891769409,0.018231332302093506,-0.6710116267204285,0.012030981481075287,0.07269497215747833,0.953611488633105,0.7582018680050241,-0.5827970957556428
1.872032880783081,-0.037284284830093384,-0.08317089080810547,0.021852433681488037,-0.5860602259635925,0.07422404736280441,0.1241842657327652,0.9495359771978905,0.7515680176266804,-0.5740270639889825
1.8821098804473877,-0.034439146518707275,-0.004550814628601074,0.04144710302352905,-0.29927748441696167,-0.009632235392928123,0.16241873800754547,0.9472442930191288,0.746117564559738,-0.5668935035954555
1.8933498859405518,0.008596152067184448,0.14428222179412842,0.07624953985214233,-0.005055971909314394,-0.08712702244520187,0.16884121298789978,0.9472945660035975,0.7426160803498179,-0.5631666453007496
1.9021589756011963,0.04277971386909485,0.22285473346710205,0.08630567789077759,0.09164290875196457,-0.1393606811761856,0.1369618922472,0.9487942616455939,0.740333987723234,-0.561820037559372
1.9126789569854736,0.04321041703224182,0.18248069286346436,0.07908636331558228,-0.018492119386792183,-0.1018814742565155,0.03799137473106384,0.9497389326862344,0.7386205507460314,-0.5612468440746105
1.9223508834838867,0.03081408143043518,0.07875019311904907,0.05523616075515747,-0.2565021812915802,-0.031341880559921265,-0.06304752081632614,0.9486624369711658,0.7368086735510825,-0.5598579880128667
1.9333178997039795,0.011566966772079468,0.0022066235542297363,0.022676289081573486,-0.473717600107193,0.03680255264043808,-0.1527332067489624,0.9451791292197882,0.7345201794675115,-0.556981559678776
1.94307279586792,0.00786590576171875,-0.018635332584381104,0.014488637447357178,-0.5996192693710327,0.05691017210483551,-0.20541195571422577,0.9399114788478714,0.73188672593335,-0.5530826674769195
1.9521660804748535,0.014155089855194092,0.010552585124969482,0.02025449275970459,-0.664374828338623,0.008236376568675041,-0.23492591083049774,0.9337254605866492,0.728737977727089,-0.5487276005849175
1.9621567726135254,0.03368252515792847,0.04428797960281372,0.037932753562927246,-0.727568507194519,-0.03343885391950607,-0.2504166066646576,0.9268285715717425,0.7247901860054785,-0.54401565379862
1.9721639156341553,0.03964754939079285,0.024586081504821777,0.05751800537109375,-0.7170442342758179,-0.17765407264232635,-0.1860344260931015,0.9199172676840449,0.7196064152927008,-0.5387260563423178
1.9822509288787842,0.04286831617355347,0.021633267402648926,0.07244670391082764,-0.6395801305770874,-0.3782985508441925,-0.15285614132881165,0.9136840010968847,0.7126602717186808,-0.5334608512993791
1.9929747581481934,0.06808656454086304,0.05903249979019165,0.09093749523162842,-0.6358434557914734,-0.5701833367347717,-0.13425368070602417,0.9079596513561086,0.7040244761546505,-0.5285711713893052
2.0021328926086426,0.06757771968841553,0.02523273229598999,0.07792559266090393,-0.7976297736167908,-0.7044297456741333,-0.12303926795721054,0.9017330486302273,0.6930583466624468,-0.5228037751432333
2.0122880935668945,0.05746942758560181,-0.05665367841720581,0.05758315324783325,-1.1546218395233154,-0.7707901000976562,-0.13482189178466797,0.8934732018424941,0.6792137978158047,-0.5145830733803433
2.0222549438476562,0.037870317697525024,-0.15778899192810059,0.028176188468933105,-1.7618135213851929,-0.7781400680541992,-0.17852038145065308,0.8811980163094901,0.6619060778263356,-0.5023233911113915
2.032399892807007,0.005639940500259399,-0.2795479893684387,0.013854384422302246,-2.549961805343628,-0.7072115540504456,-0.21591009199619293,0.8628711938387315,0.6408101373770989,-0.4845345225918784
2.043048858642578,-0.03458186984062195,-0.42411649227142334,0.02184218168258667,-3.3065757751464844,-0.5766085982322693,-0.2091088593006134,0.8377887475965714,0.6166022856498417,-0.46093455047857007
2.0524487495422363,-0.0685482919216156,-0.49072474241256714,0.029660582542419434,-3.862637758255005,-0.4702874720096588,-0.13363993167877197,0.8071267392529741,0.5909121081948147,-0.43301071068899777
2.0629477500915527,-0.07142141461372375,-0.44227564334869385,0.011478245258331299,-4.0924072265625,-0.3999521732330322,-0.0013455915031954646,0.7731310320091045,0.5650380196101776,-0.4027088554408611
2.0722928047180176,-0.027497529983520508,-0.3134598731994629,-0.0028294920921325684,-4.066371440887451,-0.45681971311569214,0.23746351897716522,0.7389249691422097,0.5397209147835484,-0.3718756865508287
2.0823540687561035,0.030480533838272095,-0.18619674444198608,-0.011743307113647461,-3.9961507320404053,-0.6509950160980225,0.44440364837646484,0.7057786755576926,0.5136839029322626,-0.3408193717768859
2.092482089996338,0.08910766243934631,-0.0905802845954895,0.03418964147567749,-4.033759117126465,-0.8834900259971619,0.5564092993736267,0.673016762573664,0.48650378093552854,-0.3101584802305247
2.102362871170044,0.11643874645233154,-0.14413321018218994,0.08252310752868652,-4.318314075469971,-1.0751821994781494,0.6037691831588745,0.6386172082418522,0.45807997855745397,-0.27972078839929854
2.112351894378662,0.11738738417625427,-0.26042431592941284,0.1361493468284607,-4.950991630554199,-1.2009811401367188,0.5235440731048584,0.599305175504211,0.4288412003891364,-0.24897765589278312
2.1226909160614014,0.09998607635498047,-0.38101983070373535,0.199072003364563,-5.808643817901611,-1.2890825271606445,0.36678773164749146,0.5519277448976971,0.3996471336487108,-0.2183842361432871
2.132441997528076,0.07970768213272095,-0.5104805827140808,0.260287344455719,-6.647823333740234,-1.4511440992355347,0.3541073501110077,0.495458834754905,0.37069249981826,-0.1874199169672634
2.1429169178009033,0.09668430685997009,-0.45331427454948425,0.31165289878845215,-7.189382553100586,-1.545612096786499,0.3666188418865204,0.43152038598208226,0.34186721726118696,-0.15660827418616888
2.152534008026123,0.17200994491577148,-0.27808237075805664,0.3003915548324585,-7.3890581130981445,-1.6705864667892456,0.4259346127510071,0.3635066340764391,0.3143267227576151,-0.12691514382077884
2.1633169651031494,0.2032964825630188,-0.13347327709197998,0.2528919577598572,-7.288860321044922,-1.808007001876831,0.512363076210022,0.2945655098142086,0.28793333560045736,-0.09915537781716416
2.1724328994750977,0.19389528036117554,-0.0002614259719848633,0.24861443042755127,-7.112084865570068,-1.9238923788070679,0.6113466620445251,0.2267277776185231,0.26256175689154204,-0.07319738892872203
2.182436943054199,0.18937459588050842,0.07470542192459106,0.2218964695930481,-7.01735782623291,-2.003117322921753,0.6230964064598083,0.15996604927657126,0.23828120043667753,-0.04920691397615405
2.1926259994506836,0.15789277851581573,0.06425925344228745,0.2089616060256958,-7.201179504394531,-2.0020015239715576,0.5291893482208252,0.09200722674349338,0.21541636023445554,-0.027403438078024873
2.2024097442626953,0.10810725390911102,-0.018493803218007088,0.22290706634521484,-7.445221900939941,-1.9117817878723145,0.4028407633304596,0.021165184144361474,0.19469270375461392,-0.007877435549062157
2.212446928024292,0.06926101446151733,-0.11906200647354126,0.22482484579086304,-7.794060230255127,-1.887022852897644,0.21643200516700745,-0.05310814586262424,0.17595672195011303,0.0092253120845315
2.2225139141082764,0.06586509943008423,-0.12429241836071014,0.2708408832550049,-8.180325508117676,-1.8419235944747925,0.1230456531047821,-0.1317535084035419,0.15857950241108246,0.02413710621114846
2.2327609062194824,0.06376190483570099,-0.031173914670944214,0.3487994074821472,-8.386480331420898,-1.8162317276000977,0.10557664930820465,-0.21367398080749075,0.1426681504347263,0.03799134716263535
2.2436747550964355,0.05575425922870636,0.061991602182388306,0.35567259788513184,-8.478528022766113,-1.7588328123092651,-0.07909929752349854,-0.29743135920441705,0.12768929022876363,0.049953187750262
2.252634048461914,0.03353169560432434,0.025362849235534668,0.36166977882385254,-8.376226425170898,-1.7280231714248657,-0.23325183987617493,-0.38140006603642523,0.11322588885884934,0.0590034804112102
2.2628769874572754,0.01288846880197525,-0.08015310764312744,0.34161800146102905,-8.505658149719238,-1.716301441192627,-0.22536563873291016,-0.46568443116309377,0.09889069000981236,0.0661176013281981
2.2726099491119385,0.034490324556827545,0.009754955768585205,0.3776381015777588,-7.655196666717529,-1.8427342176437378,-0.2515011131763458,-0.546350619637657,0.08343616170434884,0.0717960633429856
2.28277587890625,0.03733070567250252,0.15894222259521484,0.3752574324607849,-7.08895206451416,-1.7387381792068481,-0.3023280203342438,-0.6204284047041276,0.06742471253356157,0.0752610923647771
2.2929539680480957,0.056324709206819534,0.043684959411621094,0.2554299235343933,-6.438835620880127,-1.6516921520233154,-0.3484656810760498,-0.6885362176405692,0.05090011098897387,0.0762345790504339
2.3025949001312256,-0.013358451426029205,0.02289944887161255,0.23428285121917725,-5.612460136413574,-1.491012454032898,-0.3837040960788727,-0.7489450461797258,0.034225336381464966,0.07483473234465607
2.312605857849121,-0.02590593509376049,0.01764124631881714,0.16510844230651855,-4.803502559661865,-1.2901816368103027,-0.4321504533290863,-0.8011005349216683,0.01760270048190383,0.07098001096451356
2.3225817680358887,-0.049409423023462296,0.026912271976470947,0.10500013828277588,-4.103426456451416,-1.1034044027328491,-0.4764486253261566,-0.8456726521092526,0.0011526569703701652,0.06490683022062636
2.3327789306640625,-0.07120120525360107,0.0010055303573608398,0.07609796524047852,-3.5430197715759277,-0.9279876351356506,-0.4979728162288666,-0.8838638601577533,-0.015056875852214492,0.05693313739618512
2.3437538146972656,-0.0674593523144722,-0.04409569501876831,0.07233667373657227,-3.1408441066741943,-0.8209622502326965,-0.48286139965057373,-0.9169913409082198,-0.030937897652014792,0.047765276027798516
2.352789878845215,-0.04688004031777382,-0.048386216163635254,0.0972604751586914,-2.972493886947632,-0.7537770867347717,-0.4458850026130676,-0.9473043012673196,-0.04668302858248321,0.037933436260761684
2.3628220558166504,-0.01956605538725853,-0.02147012948989868,0.15120500326156616,-2.9287164211273193,-0.7178249955177307,-0.366870254278183,-0.9765732500021649,-0.062199618152948714,0.028008981968039692
2.372666835784912,-0.009297411888837814,-0.013303637504577637,0.18127238750457764,-2.8779420852661133,-0.6790463924407959,-0.24612972140312195,-1.0053665427968175,-0.07696187847174807,0.018707145233735387
2.38280987739563,0.0025368109345436096,-0.020215868949890137,0.18127238750457764,-2.785599708557129,-0.6281200051307678,-0.14122967422008514,-1.0335053694434733,-0.09046518577433978,0.0105588590010186
2.393112897872925,0.0006605498492717743,-0.01441502571105957,0.15357619524002075,-2.5910725593566895,-0.539933443069458,-0.07935830950737,-1.0602815090648279,-0.10274206389727716,0.003163377202079921
2.4027318954467773,-0.021372411400079727,-0.014995813369750977,0.10230159759521484,-2.273272752761841,-0.4256744086742401,-0.021711155772209167,-1.0845118821269812,-0.11332018132097449,-0.0033626935819985023
2.4133529663085938,-0.03643305227160454,0.0005855560302734375,0.04159003496170044,-1.8476555347442627,-0.3079432547092438,0.01527748815715313,-1.1050528607661887,-0.12171219657590204,-0.008689463125923466
2.4228079319000244,-0.043522752821445465,0.04803204536437988,-0.003782033920288086,-1.3624356985092163,-0.21216727793216705,0.04228859767317772,-1.1210584849586485,-0.1277828635716087,-0.01256305303005056
2.432776927947998,-0.04755400866270065,0.08006733655929565,-0.04122677445411682,-0.8838803172111511,-0.12219984829425812,0.08292178064584732,-1.1322638111711572,-0.1312005990833113,-0.014496771640655716
2.4435739517211914,-0.03183528408408165,0.10354197025299072,-0.06256517767906189,-0.4316678047180176,-0.06604548543691635,0.12482859194278717,-1.1389439730992517,-0.13171829074296096,-0.014065207620578177
2.4528470039367676,-0.011825129389762878,0.13113486766815186,-0.05864471197128296,0.022206224501132965,-0.046509336680173874,0.15018108487129211,-1.141124637919195,-0.1298503097005981,-0.011417354065420134
2.462899923324585,0.00830531120300293,0.15328574180603027,-0.028302490711212158,0.41285035014152527,-0.05568805709481239,0.16750499606132507,-1.1391263729998125,-0.1262783128966985,-0.006924964759919593
2.47291898727417,0.026841849088668823,0.17208361625671387,-0.01029658317565918,0.7007037401199341,-0.04019058868288994,0.16163192689418793,-1.1337259644429234,-0.12175101866819238,-0.001364996281416678
2.482973098754883,0.018181059509515762,0.16737234592437744,-0.01061016321182251,0.8606134057044983,0.02326907590031624,0.16291466355323792,-1.1260656591470237,-0.11643816830633656,0.004617572996214846
2.493699073791504,-0.000560373067855835,0.13097375631332397,-0.031187087297439575,0.8858181238174438,0.1168200671672821,0.14359024167060852,-1.1175029602667828,-0.11047760264419502,0.010475174640985307
2.5028269290924072,-0.01274864748120308,0.09926122426986694,-0.04926490783691406,0.814050555229187,0.22255945205688477,0.11493712663650513,-1.1091192477616805,-0.1043063270043302,0.015457128047973355
2.5131149291992188,-0.021293580532073975,0.06371861696243286,-0.0629548728466034,0.6900468468666077,0.31190770864486694,0.09006933122873306,-1.1017175411140954,-0.0980592338271283,0.019449176177169927
2.522878885269165,-0.018311437219381332,0.045480549335479736,-0.07034420967102051,0.5739229917526245,0.373424768447876,0.07505154609680176,-1.0955195523358647,-0.09182942565756032,0.0225593247250261
2.5330729484558105,-0.010597430169582367,0.051699280738830566,-0.07683545351028442,0.5093634128570557,0.40706929564476013,0.07465260475873947,-1.090226237049673,-0.08554321493366003,0.025228033204939035
2.543224811553955,-0.0014106184244155884,0.06689411401748657,-0.07656803727149963,0.5096025466918945,0.4138233959674835,0.08014820516109467,-1.0852391568768858,-0.07912426551650291,0.027798387205646105
2.552999973297119,0.009116984903812408,0.07518965005874634,-0.07404917478561401,0.5649017691612244,0.37968698143959045,0.07365355640649796,-1.079980120024787,-0.07288669867698959,0.030325076055357635
2.5629758834838867,0.009463999420404434,0.07422763109207153,-0.06628292798995972,0.6704596877098083,0.32212746143341064,0.05565974488854408,-1.073865766750321,-0.06736941700758013,0.03258796431453427
2.5730037689208984,0.005895044654607773,0.06286495923995972,-0.05273348093032837,0.7979263067245483,0.2517728805541992,0.051038891077041626,-1.0665742524263087,-0.06264986294371709,0.03468316917751113
2.5829899311065674,0.013009006157517433,0.07200455665588379,-0.04563641548156738,0.8930896520614624,0.18245656788349152,0.03788197040557861,-1.0581124429597035,-0.05871973413630158,0.03669779712492622
2.5937390327453613,0.013996394351124763,0.08337217569351196,-0.04245805740356445,0.9240212440490723,0.1479174941778183,0.018994567915797234,-1.0490094060317274,-0.055692562298613094,0.038297213065301705
2.6031298637390137,0.011515522375702858,0.0654485821723938,-0.042798399925231934,0.8941283822059631,0.12862887978553772,0.015551845543086529,-1.0398866057201814,-0.05317655033993804,0.03961765323958664
2.6133248805999756,0.005017854273319244,0.037345826625823975,-0.04805201292037964,0.8034988641738892,0.12759023904800415,0.007943195290863514,-1.0313816372197508,-0.05093610045127213,0.04073410269494779
2.6229710578918457,-0.0019393302500247955,0.027418076992034912,-0.0488625168800354,0.6414010524749756,0.12222485989332199,-0.004978036507964134,-1.0241067284701266,-0.049033876386679956,0.04148736411356538
2.6330809593200684,-0.0032933857291936874,0.012970805168151855,-0.03897988796234131,0.4150616526603699,0.12442862242460251,-0.018037913367152214,-1.0187824654689224,-0.04756780208002159,0.04175662937509602
2.6435508728027344,-0.007371895015239716,-0.014004945755004883,-0.023248374462127686,0.14748133718967438,0.13655205070972443,-0.01712423376739025,-1.0159628417089803,-0.04635678794400259,0.04165292947100474
2.653096914291382,-0.009744947776198387,-0.03513091802597046,-0.01344311237335205,-0.09310996532440186,0.1538468897342682,-0.011165677569806576,-1.0157171772685258,-0.045135000593104824,0.04138192859486276
2.6630918979644775,-0.006963683292269707,-0.04043889045715332,-0.008471488952636719,-0.24581730365753174,0.16123756766319275,-0.005677542649209499,-1.0174819053931508,-0.04378958442902704,0.041084342576358575
2.6732168197631836,-0.0086573027074337,-0.037445008754730225,-0.005465388298034668,-0.27040839195251465,0.13937167823314667,0.0030187435913830996,-1.020152961839152,-0.04249159044733369,0.0408414435145027
2.6831650733947754,-0.014789935201406479,-0.022399425506591797,-0.007044732570648193,-0.17424680292606354,0.11665898561477661,0.003723309375345707,-1.0224310902710063,-0.04130507399623133,0.040725133807677165
2.693466901779175,-0.017582863569259644,0.0010890960693359375,-0.0199282169342041,-0.02546585537493229,0.08677725493907928,0.005302830599248409,-1.0234463114609318,-0.040287061685640044,0.040724895697960374
2.7033138275146484,-0.017971618101000786,0.019754409790039062,-0.031892359256744385,0.11978290230035782,0.06162844970822334,0.016403790563344955,-1.022970102313508,-0.0393326783352997,0.040979945252839954
2.7136459350585938,-0.018047457560896873,0.026447057723999023,-0.03038465976715088,0.24637866020202637,0.05320700258016586,0.034454695880413055,-1.0211385110856082,-0.038221963138668894,0.04161521815208811
2.723282814025879,-0.01917867176234722,0.02559506893157959,-0.027399420738220215,0.3427528142929077,0.03466048091650009,0.03163590282201767,-1.018161736583547,-0.03701518981633024,0.04249186989583861
2.733339786529541,-0.015352379530668259,0.016309678554534912,-0.016450107097625732,0.37266942858695984,0.024758584797382355,0.03198637440800667,-1.0145828988183772,-0.0359850745615209,0.04335857266621043
2.7435760498046875,-0.015528691932559013,0.0011385083198547363,0.004767715930938721,0.35877925157546997,0.011431636288762093,0.0214519202709198,-1.0109019042123242,-0.035153722362418205,0.04411952159381522
2.753324031829834,-0.012207763269543648,-0.014851152896881104,0.02605915069580078,0.316559374332428,0.008661949075758457,0.022926246747374535,-1.0075180056436523,-0.0345259018218085,0.044758582710868446
2.7638587951660156,-0.008692160248756409,-0.0170862078666687,0.033283233642578125,0.2578737437725067,0.02518424578011036,0.02755764126777649,-1.0046517939136528,-0.033812051702223955,0.04541650965064581
2.773420810699463,-0.005986867472529411,-0.01491701602935791,0.03257840871810913,0.20172230899333954,0.04385380446910858,0.028026623651385307,-1.0023755730303254,-0.03290562347365991,0.04608706477959881
2.7838869094848633,-0.002127349376678467,-0.019173383712768555,0.030483543872833252,0.16288484632968903,0.06478194147348404,0.02734895795583725,-1.0005906977080827,-0.03182231977812523,0.04671397931573105
2.796146869659424,0.0009218305349349976,-0.021054983139038086,0.0339168906211853,0.15720592439174652,0.07608599960803986,0.031108276918530464,-0.999018676468275,-0.030583056951178342,0.04734424249840195
2.8037688732147217,-0.00028567761182785034,-0.011702120304107666,0.0360337495803833,0.1816452145576477,0.08365336805582047,0.027740709483623505,-0.997442757615107,-0.0296884331924982,0.047613123066675256
2.8135969638824463,-0.001051565632224083,-0.0031405091285705566,0.03591090440750122,0.22051244974136353,0.07913212478160858,0.008297767490148544,-0.9955862211384396,-0.02886834330447057,0.04770322350943363
2.8234598636627197,0.0003872085362672806,-0.0001493692398071289,0.03704148530960083,0.24613013863563538,0.08544496446847916,0.02698005549609661,-0.9934852253954376,-0.028195936548381432,0.04769321172464939
2.8333239555358887,0.004663167521357536,-0.004272878170013428,0.041552841663360596,0.1980518251657486,0.07961291074752808,0.031401969492435455,-0.9916491925299364,-0.027258483731605825,0.04804385230551016
2.8435330390930176,0.0010096756741404533,-0.0190621018409729,0.044363200664520264,0.1949140578508377,0.11187803745269775,0.031661469489336014,-0.9901517913360772,-0.026098923740953822,0.04837221926789541
2.853311061859131,0.00027987826615571976,-0.008779942989349365,0.029500246047973633,0.22185300290584564,0.10392770171165466,0.045751720666885376,-0.9884614402192401,-0.024565713008631036,0.049005572452056195
2.863460063934326,0.01852615922689438,0.012268304824829102,0.02499234676361084,0.2257310450077057,0.10236384719610214,0.03714582324028015,-0.9864828805871684,-0.022964497001835654,0.04974757173926351
2.8734169006347656,0.016960762441158295,0.007028460502624512,0.028979361057281494,0.2184065580368042,0.10638256371021271,0.036257922649383545,-0.9845050664058497,-0.021362570691118802,0.05043678488570549
2.883476972579956,0.008391503244638443,0.006033897399902344,0.025409221649169922,0.2112129032611847,0.10549892485141754,0.023465003818273544,-0.9825822313116728,-0.01982679571390814,0.05103077034742427
2.8937110900878906,0.01800950989127159,0.009258091449737549,0.024090349674224854,0.19131216406822205,0.10456416010856628,0.005278808530420065,-0.9807890571730306,-0.018575639366693684,0.05129498735897667
2.9033498764038086,0.01522738765925169,0.006738066673278809,0.022685229778289795,0.14690332114696503,0.09648718684911728,-0.011351301334798336,-0.9793137573912338,-0.017622577254755366,0.05125808331198155
2.913558006286621,0.0143800750374794,0.006374955177307129,0.022400856018066406,0.08951567113399506,0.10975851863622665,-0.02047662064433098,-0.9783785451348357,-0.01681834153582028,0.050987151222842655
2.923387050628662,0.017270544543862343,0.0020801424980163574,0.01600128412246704,0.03501186892390251,0.12175468355417252,-0.016167307272553444,-0.9780090121307848,-0.01597404130404042,0.05061538933108198
2.9334869384765625,0.01344937551766634,-0.0012443065643310547,0.0036072731018066406,0.0013007770758122206,0.12540800869464874,-0.018511688336730003,-0.9780599710922412,-0.01506218945483013,0.05024933031424989
2.9437379837036133,0.01422838307917118,0.002619504928588867,-3.790855407714844e-05,-0.004507943522185087,0.12257156521081924,-0.021417303010821342,-0.978381792684373,-0.013922959627748088,0.05004793899020577
2.9534730911254883,0.0136624276638031,0.0008615851402282715,-0.001275479793548584,0.0005374152678996325,0.11210933327674866,-0.02182077243924141,-0.9787427283257512,-0.012861500423929449,0.04983514463302938
2.9634900093078613,0.01107635349035263,-0.00572580099105835,0.0011649727821350098,0.01128753088414669,0.09876663237810135,-0.02123221382498741,-0.979008256054716,-0.012032787493160479,0.04952548871072329
2.973496913909912,0.010398609563708305,-0.00840151309967041,0.004047751426696777,0.03060104325413704,0.08723753690719604,-0.014170575886964798,-0.9791274895991117,-0.011065930291685155,0.04945799301926184
2.98351788520813,0.009121565148234367,-0.0044081807136535645,0.006227672100067139,0.05914706736803055,0.07351977378129959,-0.0018250669818371534,-0.9789713682402483,-0.010114407728150301,0.04952983519566303
2.9936938285827637,0.006484671961516142,-0.005757689476013184,0.0051590800285339355,0.08798643946647644,0.06997430324554443,0.010267814621329308,-0.9785187253474806,-0.009101375977246789,0.04979552125712215
3.003664970397949,0.004034845158457756,-0.004505455493927002,0.003998875617980957,0.134623184800148,0.06559909135103226,0.021402010694146156,-0.9775881190886399,-0.00787272240395939,0.05034192021265185
3.013537883758545,0.0025645606219768524,0.0014565587043762207,0.0015779733657836914,0.1684514433145523,0.054754696786403656,0.021203072741627693,-0.9760960283010193,-0.00670171816812985,0.050937294652236176
3.0236377716064453,0.002620745450258255,0.0025280117988586426,-0.0002224445343017578,0.18575114011764526,0.054493796080350876,0.0146578224375844,-0.9743492570856442,-0.005643529753716831,0.051464937528921305
3.033723831176758,0.00450003519654274,-0.0055457353591918945,0.00510329008102417,0.18004292249679565,0.04765453189611435,0.01276271790266037,-0.9725619933844027,-0.0046848135360881785,0.05191384063781674
3.0451817512512207,0.005076897330582142,-0.0026059746742248535,0.002794981002807617,0.11498619616031647,0.04475443810224533,0.0019842120818793774,-0.9711096938933226,-0.0039666203397744695,0.05220609673805188
3.0537400245666504,0.004990213550627232,-0.003315567970275879,0.002444922924041748,0.008984129875898361,0.06270494312047958,0.001632674946449697,-0.9705557797881956,-0.003269669730054419,0.05233798365054293
3.063809871673584,0.005401914473623037,-0.021340787410736084,0.0014371275901794434,-0.09298095107078552,0.07879585027694702,0.0015934199327602983,-0.9711313335003964,-0.0024067130326830004,0.0524750661959949
3.073625087738037,0.007951932027935982,-0.03190875053405762,0.0018699169158935547,-0.13495849072933197,0.0763673186302185,0.004710915964096785,-0.9724191260524411,-0.0015205454074294085,0.05256256569259918
3.083646774291992,0.010221642442047596,-0.020852744579315186,0.0005120635032653809,-0.1304553747177124,0.06075626611709595,0.007486036047339439,-0.9738409169299717,-0.0007296807070607538,0.0526857237200835
3.093863010406494,0.012703156098723412,-0.004113435745239258,-0.0030478239059448242,-0.08922218531370163,0.04646094888448715,0.009181404486298561,-0.975008462620877,-9.54388672041338e-05,0.05280440245019703
3.103609085083008,0.01620561070740223,0.001420438289642334,-0.003512263298034668,-0.036947958171367645,0.038547366857528687,0.018120039254426956,-0.9756430773830567,0.0005158651215623677,0.05303729380227371
3.1136698722839355,0.015115747228264809,0.0004413127899169922,-0.005735576152801514,0.014556778594851494,0.029813528060913086,0.02463999018073082,-0.975729482297385,0.0012080132944873494,0.05345014343440443
