timestamp,accel_x,accel_y,accel_z,rotation_x,rotation_y,rotation_z, pitch,roll,yaw
0.046624183654785156,-0.01827278733253479,-0.02124038338661194,-0.0021833181381225586,-0.008074474520981312,0.004679506178945303,-0.012476518750190735,-0.0799039272250047,0.1588025930099449,0.006361204365168765
0.06077098846435547,-0.018056586384773254,-0.022580496966838837,-0.0012947320938110352,-0.012836739420890808,-0.0001413477584719658,-0.009376599453389645,-0.08002371639451543,0.1588170071279002,0.006263140185105147
0.062419891357421875,-0.020093917846679688,-0.021612204611301422,-0.0020366311073303223,-0.017358170822262764,-0.0018388018943369389,-0.006418679840862751,-0.08018509806524249,0.15879610902050545,0.006210684214410298
0.0636911392211914,-0.021591946482658386,-0.021277233958244324,-0.001896977424621582,-0.017236998304724693,0.0009756265208125114,-0.0030809403397142887,-0.08036951483523418,0.158785692764825,0.00619032133904865
0.0712440013885498,-0.022928521037101746,-0.021991446614265442,-0.003329753875732422,-0.011685138568282127,0.0028859120793640614,-0.00037042825715616345,-0.08051963942246518,0.15879683970669473,0.0062063257788913095
0.07947587966918945,-0.02537892758846283,-0.018073342740535736,-0.00431668758392334,-0.004071427509188652,0.0026755223516374826,0.0019851375836879015,-0.0805995988185977,0.15882251377485568,0.006227287746523833
0.09002113342285156,-0.024796292185783386,-0.016430020332336426,-0.0008388161659240723,0.004376668483018875,0.0027576808352023363,0.0014278977178037167,-0.08058893284767504,0.15883503800629062,0.0062457266841748705
0.09943699836730957,-0.025688529014587402,-0.019513912498950958,0.00029158592224121094,0.004041110165417194,0.003232522401958704,0.0022287103347480297,-0.08052931502146278,0.15885710671664177,0.006250287394658038
0.10975098609924316,-0.02675488591194153,-0.01824105530977249,0.0007325410842895508,0.0022934775333851576,0.00272652180865407,0.003968713339418173,-0.08049229732513945,0.15888584765223293,0.006279704198319887
0.11951017379760742,-0.026721715927124023,-0.0199708491563797,0.000624537467956543,0.0033496872056275606,0.0027486260514706373,0.00476233521476388,-0.08045194071782986,0.15891363022184202,0.00631702952069272
0.1296520233154297,-0.02509722113609314,-0.01963438093662262,-0.000705420970916748,-0.001148358453065157,0.0018032039515674114,0.005524052307009697,-0.08043585190444487,0.15893725312574125,0.006365612256713225
0.13969707489013672,-0.023533061146736145,-0.016332313418388367,0.0004839897155761719,-0.004730310291051865,-0.002602197229862213,0.006452963687479496,-0.08046028337332162,0.15892970712549132,0.006429982886582802
0.14999794960021973,-0.021459683775901794,-0.015774860978126526,-9.191036224365234e-05,-0.005184728652238846,-0.006553041283041239,0.006466598715633154,-0.08049804988799672,0.15888551510613333,0.006504820945808864
0.15973806381225586,-0.022835418581962585,-0.01647050678730011,0.003028273582458496,-0.009909708984196186,-0.007958125323057175,0.006658346392214298,-0.08055300274348272,0.15881121009616872,0.006579255755299036
0.16999292373657227,-0.024598151445388794,-0.013282909989356995,0.004755854606628418,-0.01173405721783638,-0.006229245103895664,0.007683716714382172,-0.08064634835354963,0.15874298115095065,0.006664362314229553
0.17982101440429688,-0.025968194007873535,-0.011172153055667877,0.004161417484283447,-0.013227025046944618,-0.008164564147591591,0.006491419393569231,-0.08076375896731401,0.1586791989950729,0.006762965416992762
0.19020414352416992,-0.024623513221740723,-0.012131206691265106,0.004841983318328857,-0.008770724758505821,-0.010041915811598301,0.0038434378802776337,-0.08065434512423551,0.1582882776293755,0.006803323200173254
0.1998460292816162,-0.024140462279319763,-0.0112762451171875,0.003468632698059082,-0.004817262291908264,-0.012668058276176453,0.005135337356477976,-0.08048546648584108,0.15788835332001647,0.006832146346031038
0.20981311798095703,-0.024194911122322083,-0.009220771491527557,0.004384160041809082,-0.0012662867084145546,-0.00983094796538353,0.00613120011985302,-0.08027564310031605,0.15750696992012345,0.006873933349413901
0.21963906288146973,-0.024169325828552246,-0.010153084993362427,0.003408968448638916,-0.0003373760264366865,-0.0032039382494986057,0.0074989995919167995,-0.08009348014393255,0.15719966277692982,0.0069234846411576146
0.2297358512878418,-0.02390366792678833,-0.01004798710346222,0.00201261043548584,0.0036303179804235697,-0.0036774934269487858,0.010700065642595291,-0.07989619401103518,0.15695833189549976,0.0069949534704854665
0.2397019863128662,-0.022476449608802795,-0.008217230439186096,0.004120528697967529,0.011240567080676556,-0.008332166820764542,0.011934440582990646,-0.07963626782633798,0.1566833025332007,0.0070713692096566125
0.2496929168701172,-0.0207299143075943,-0.00722426176071167,0.005785048007965088,0.01814912259578705,-0.01578604243695736,0.010928991250693798,-0.07934427434691922,0.15633155712096317,0.0071369386907790796
0.2596750259399414,-0.021717995405197144,-0.004660487174987793,0.010067522525787354,0.017157360911369324,-0.018336020410060883,0.008068756200373173,-0.07905315243146929,0.1559212464141017,0.007181455993219416
0.26966285705566406,-0.021689489483833313,-0.005936414003372192,0.007494449615478516,0.004442831501364708,-0.020414438098669052,0.008306843228638172,-0.07883303520200827,0.15550223972792337,0.007232997332249383
0.2797389030456543,-0.022048473358154297,-0.010896913707256317,0.00637584924697876,-0.011087658815085888,-0.02214176580309868,0.004091058857738972,-0.07875789988231215,0.15507565561789186,0.0072796444049935995
0.29137516021728516,-0.0228283554315567,-0.01686820387840271,0.007041335105895996,-0.0251496322453022,-0.017385849729180336,0.0007420271867886186,-0.07887016334366034,0.154660478524704,0.007315597857844588
0.2998969554901123,-0.02428540587425232,-0.01581089198589325,0.005785882472991943,-0.02942773513495922,-0.01488061249256134,0.00390719436109066,-0.07904937459144562,0.15429847791424245,0.007366370606372107
0.30992698669433594,-0.022467315196990967,-0.011891812086105347,0.004730820655822754,-0.02566416934132576,-0.01954207569360733,0.006387502886354923,-0.07922018055753062,0.1539264832472142,0.0074429909235029495
0.3199000358581543,-0.01980094611644745,-0.011012285947799683,0.004120528697967529,-0.021908581256866455,-0.01930319145321846,0.007073532789945602,-0.07937874866608824,0.15354517947745794,0.00753062381704571
0.3299398422241211,-0.019458100199699402,-0.011564403772354126,0.0035530924797058105,-0.019048629328608513,-0.01572323776781559,0.008787916041910648,-0.07950401458332085,0.153198719835219,0.007626923726257778
0.34061098098754883,-0.021591782569885254,-0.013383753597736359,0.0028228163719177246,-0.01813436672091484,-0.008838964626193047,0.011384498327970505,-0.0796300336482009,0.1529188647806924,0.007740470523798211
0.3499729633331299,-0.023455604910850525,-0.014275141060352325,0.004090428352355957,-0.017295336350798607,-0.010120389983057976,0.008927572518587112,-0.07972828239125716,0.1526590820490071,0.007859217496524065
0.3599560260772705,-0.02272859215736389,-0.01558927446603775,0.007183432579040527,-0.00693777110427618,-0.009398140013217926,0.008959264494478703,-0.07973016711820315,0.15238582744029427,0.007955605646699032
0.3699350357055664,-0.02065873146057129,-0.011291518807411194,0.007754206657409668,-0.002556954510509968,-0.009800765663385391,0.012501108460128307,-0.0795976402512711,0.15211085284578446,0.008051880329670236
0.38004112243652344,-0.020198866724967957,-0.0065124183893203735,0.0067751407623291016,0.0006180661730468273,-0.011440208181738853,0.010314919985830784,-0.07942615113538536,0.15181241782652077,0.00814994343779008
0.391049861907959,-0.01994079351425171,-0.013073377311229706,0.003926336765289307,-0.004668824374675751,-0.007688035722821951,0.006834274623543024,-0.07931868270226555,0.1515337213423767,0.008226836974087309
0.40000486373901367,-0.020327940583229065,-0.017996184527873993,0.0024033784866333008,-0.011753898113965988,-0.0032147238962352276,0.006391657050698996,-0.07929757524395498,0.15132245941636466,0.008288452710202196
0.4100370407104492,-0.020640671253204346,-0.017512604594230652,0.0034180283546447754,-0.013647904619574547,-0.00037623895332217216,0.005640486255288124,-0.07931760115098387,0.15116004811698003,0.00836277070497921
0.42005395889282227,-0.020460665225982666,-0.012860380113124847,0.0017833113670349121,-0.010506972670555115,-0.0025773411616683006,0.007303630001842976,-0.07930399892573331,0.1509772277340127,0.008432822526230638
0.432340145111084,-0.01918002963066101,-0.013008207082748413,0.0015918612480163574,-0.009252157993614674,-0.0062448689714074135,0.0018847364699468017,-0.07926861369913173,0.15074566217731777,0.008484601878154946
0.4400639533996582,-0.01770058274269104,-0.016635283827781677,0.00028765201568603516,-0.012070847675204277,-0.007121048867702484,-0.0019504816737025976,-0.07924877711638269,0.1504983821213402,0.008487113726856763
0.45003294944763184,-0.017830267548561096,-0.015682220458984375,-7.390975952148438e-05,-0.008320084773004055,-0.009473241865634918,0.0027644322253763676,-0.07925704520262128,0.1502585028150597,0.008495468217304977
0.4601140022277832,-0.018637552857398987,-0.013798780739307404,0.002894580364227295,-0.004029998555779457,-0.012287138029932976,0.002019545529037714,-0.07926571215012922,0.14999396520463776,0.008516620617935832
0.47011399269104004,-0.020989134907722473,-0.016286499798297882,0.005626320838928223,-0.0014418723294511437,-0.010866431519389153,0.00234051002189517,-0.07917441858404883,0.14973147870942766,0.008529501586383518
0.48020005226135254,-0.021553009748458862,-0.015090510249137878,0.004074811935424805,-0.0028392330277711153,-0.010455770418047905,0.005536569282412529,-0.07903083770687148,0.14946590085051706,0.008558035093294768
0.4908318519592285,-0.02066776156425476,-0.013795346021652222,0.002289116382598877,0.00047011091373860836,-0.005626837722957134,0.009893820621073246,-0.0788949105636972,0.14923185227256933,0.008630996457115011
0.5003230571746826,-0.02140180766582489,-0.014241278171539307,0.0023272037506103516,0.007842273451387882,0.0009469087235629559,0.012353249825537205,-0.07872998720867136,0.1490612885433984,0.008725429004157353
0.5102701187133789,-0.020830750465393066,-0.010396778583526611,0.0014491081237792969,0.012183043174445629,-0.0014181113801896572,0.013908269815146923,-0.07850111365689319,0.14892816975207673,0.008836203508229853
0.5203919410705566,-0.019029557704925537,-0.009548448026180267,0.0027000904083251953,0.011564657092094421,-0.005132421851158142,0.009402201510965824,-0.07821648657936257,0.14876939484556145,0.008926282537322531
0.5310101509094238,-0.017411842942237854,-0.011800028383731842,0.005248546600341797,0.0031855700071901083,-0.00891424436122179,0.005175924394279718,-0.07801076308298627,0.14856550087681117,0.008979026116425776
0.5411591529846191,-0.017331108450889587,-0.010954231023788452,0.005669116973876953,-0.006223910488188267,-0.008757916279137135,0.0026856022886931896,-0.07792766504146317,0.14834337635118788,0.009015097722882795
0.5505130290985107,-0.01777780055999756,-0.011548168957233429,0.006955206394195557,-0.013447901234030724,-0.006122452672570944,-0.0004939456703141332,-0.07791119602911167,0.14811530166407497,0.009025122043471742
0.5623078346252441,-0.019007503986358643,-0.010417163372039795,0.007430672645568848,-0.006752980872988701,-0.006140562240034342,-0.003792536910623312,-0.07790933153619704,0.14789227556343054,0.009003240382685724
0.570253849029541,-0.01744900643825531,-0.004666708409786224,0.0060343146324157715,0.0038812540005892515,-0.005256126634776592,-0.004383386112749577,-0.07783492040411441,0.14767264823167278,0.008947161410094393
0.5803830623626709,-0.01728007197380066,-0.00231112539768219,0.005449771881103516,0.010152998380362988,0.0009652841836214066,-0.005901920609176159,-0.07766081856364423,0.14748384614204033,0.008877415341252639
0.5909528732299805,-0.019179895520210266,-0.003634117543697357,0.005847632884979248,0.013911901041865349,0.008863198570907116,-0.004130012821406126,-0.07747262688523492,0.14736576993596304,0.008792214633889616
0.6002509593963623,-0.02168145775794983,-0.008722364902496338,0.00551527738571167,0.016665076836943626,0.01544520165771246,-0.00537344254553318,-0.07726545708809118,0.14734701011395426,0.008710628390094744
0.6103899478912354,-0.020273789763450623,-0.009486764669418335,0.0071617960929870605,0.014586377888917923,0.015531666576862335,-0.0021239069756120443,-0.07703735947123937,0.14737142521958413,0.008646058644868317
0.6202969551086426,-0.017435163259506226,-0.011147849261760712,0.010623753070831299,0.012089932337403297,0.013161718845367432,-0.004642724525183439,-0.07683626263599178,0.14738408436081393,0.008579776477497277
0.6303110122680664,-0.01581895351409912,-0.012946657836437225,0.011998176574707031,0.01257144846022129,0.01109381765127182,-0.006221606396138668,-0.07665089720795555,0.14736773911302573,0.00849485318865331
0.6405200958251953,-0.01635943353176117,-0.0142158642411232,0.009739875793457031,0.0061740027740597725,0.011629646643996239,-0.002485990058630705,-0.07650058573165665,0.14734159631486562,0.008437272316716225
0.6504049301147461,-0.014527454972267151,-0.01376817375421524,0.0062988996505737305,0.00328951608389616,0.007725230418145657,-0.00016509857960045338,-0.07643417507155419,0.14732443893611102,0.008410582914891798
0.6604549884796143,-0.011090025305747986,-0.014947757124900818,0.005778789520263672,-0.0001803163904696703,-0.00024348031729459763,0.00015634496230632067,-0.07640824213215204,0.14724252398867296,0.008399541544087554
0.6704301834106445,-0.010480731725692749,-0.01346605271100998,0.00716167688369751,-0.0033124431502074003,-0.006454459857195616,0.0036622367333620787,-0.07640663207916627,0.1470734052521107,0.008404788482120224
0.6804840564727783,-0.014266133308410645,-0.011760979890823364,0.007633030414581299,-0.01089952327311039,-0.004058946389704943,0.007504912093281746,-0.07641056101174441,0.14687358095159975,0.00846281880923471
0.6910181045532227,-0.01826167106628418,-0.013384029269218445,0.004553258419036865,-0.016162412241101265,0.00026979949325323105,0.007438492029905319,-0.07647740292548369,0.1467173438135397,0.008537916814704984
0.7005009651184082,-0.01892802119255066,-0.011528201401233673,0.0038604140281677246,-0.012841450050473213,0.0006735348142683506,0.005856840871274471,-0.07654437807714856,0.14662016900889643,0.008615114508481984
0.7104449272155762,-0.01741810142993927,-0.008327953517436981,0.0022267699241638184,-0.005197944585233927,-7.285969331860542e-05,0.006992679089307785,-0.07653319229357725,0.14652794973278102,0.008686112324160186
0.7204289436340332,-0.017893686890602112,-0.004367247223854065,0.0021432042121887207,0.008975931443274021,0.0012824228033423424,0.008530122227966785,-0.07640205129168831,0.14643625287157847,0.00875313441610739
0.7303838729858398,-0.0179843008518219,-0.00248110294342041,0.0021085143089294434,0.013909103348851204,0.0036641759797930717,0.007952162995934486,-0.07617846567954505,0.14637089231045508,0.00881050207381238
0.7406978607177734,-0.018825426697731018,-0.0028531253337860107,0.0012590885162353516,0.011871786788105965,0.003883354365825653,0.003801360260695219,-0.07593944599220583,0.14635466809569464,0.00884779848522941
0.7504358291625977,-0.014073178172111511,-0.0021346434950828552,0.0018173456192016602,0.005716139450669289,-0.005910020787268877,-0.0004646509769372642,-0.07575449562866107,0.14628386477468913,0.0088505500570357
0.7604489326477051,-0.010169580578804016,-0.003159627318382263,0.002139449119567871,-0.006109095178544521,-0.012895492836833,-0.0016356429550796747,-0.0756806312566375,0.14610011408462678,0.008836708976323403
0.770684003829956,-0.011660262942314148,-0.0056273117661476135,0.0037750601768493652,-0.01838565245270729,-0.01194390095770359,-0.0024074800312519073,-0.07572227757715656,0.14584834583376374,0.00881786686208011
0.7805938720703125,-0.013867497444152832,-0.009777314960956573,0.0027917027473449707,-0.02807316742837429,-0.014089077711105347,-0.0026724645867943764,-0.07589022637543105,0.14559740671739013,0.008823647513104176
0.7914800643920898,-0.013875991106033325,-0.00958196073770523,0.0029196739196777344,-0.028595561161637306,-0.018708107993006706,-0.0016597179928794503,-0.07612279380921494,0.1453302271838694,0.008839538774021547
0.800631046295166,-0.011727169156074524,-0.009020403027534485,0.004717051982879639,-0.026594197377562523,-0.021783793345093727,0.002613057615235448,-0.07637066733000701,0.1450108981510563,0.008872115487203599
0.8119111061096191,-0.015043213963508606,-0.009494103491306305,0.006345272064208984,-0.02365797944366932,-0.018433403223752975,0.007424591109156609,-0.07660090446418884,0.1447091157489943,0.008946217881090875
0.820587158203125,-0.018466100096702576,-0.010848380625247955,0.00793766975402832,-0.027045520022511482,-0.012231964617967606,0.01165102794766426,-0.07681139141818961,0.14445354906523197,0.009063974214512351
0.8307039737701416,-0.018555283546447754,-0.013069048523902893,0.009683430194854736,-0.029544712975621223,-0.010151371359825134,0.015363740734755993,-0.0770491203553525,0.14428370462469214,0.009230977785025673
0.8409581184387207,-0.015398547053337097,-0.015473097562789917,0.01113516092300415,-0.03234422951936722,-0.010737266391515732,0.01651236042380333,-0.07730243694643754,0.1441337594596397,0.009440194228517272
0.8508150577545166,-0.013498649001121521,-0.01624668389558792,0.011459946632385254,-0.03616400063037872,-0.014863746240735054,0.018477028235793114,-0.07757328978989057,0.14395877888588024,0.00965195346875612
0.8614630699157715,-0.011832967400550842,-0.013820461928844452,0.011436700820922852,-0.046697068959474564,-0.015655238181352615,0.02217749133706093,-0.07787931381688794,0.14374322544118612,0.009909402111576045
0.871330976486206,-0.011012464761734009,-0.017264612019062042,0.014669537544250488,-0.06266819685697556,-0.017443861812353134,0.02218356356024742,-0.07831882703955377,0.14351973127046275,0.010198452094748492
0.8806600570678711,-0.010297402739524841,-0.018322259187698364,0.015479445457458496,-0.0856587290763855,-0.024072201922535896,0.023592375218868256,-0.07893587135923483,0.14328145875836057,0.010523924529869373
0.8912169933319092,-0.01043015718460083,-0.01919925957918167,0.02138340473175049,-0.1735983043909073,-0.04717041924595833,0.008273234590888023,-0.08010648577070031,0.1428572386549571,0.010880249605998642
0.9008350372314453,-0.011705979704856873,-0.0321856364607811,0.03765225410461426,-0.2830561101436615,-0.04527584835886955,-0.003687554970383644,-0.08226623898884941,0.14236607747129193,0.011215680402760423
0.9108281135559082,-0.01859334111213684,-0.05747649818658829,0.03969830274581909,-0.4554450213909149,-0.04549719765782356,-0.039729710668325424,-0.08584119822684377,0.14187346710480223,0.011528089857632469
0.9206750392913818,-0.02412642538547516,-0.07045625150203705,0.05227923393249512,-0.6776498556137085,-0.05076732859015465,-0.08322765678167343,-0.09144243998406314,0.1413659780394355,0.011717819074638898
0.9306809902191162,-0.022154510021209717,-0.08538606762886047,0.060901105403900146,-0.8989790081977844,-0.06481270492076874,-0.1292881965637207,-0.09934337981578771,0.14083499176403735,0.0117628637598692
0.9410860538482666,-0.019563749432563782,-0.08609451353549957,0.07141906023025513,-1.051572322845459,-0.10620381683111191,-0.14814896881580353,-0.10915359667905404,0.14000721137284206,0.011736347693704076
0.9512910842895508,-0.010112673044204712,-0.06767198443412781,0.055552899837493896,-1.2341816425323486,-0.1765914261341095,-0.1964593529701233,-0.12072999993100504,0.1385289181922141,0.011646202512279399
0.9607138633728027,0.0026755332946777344,-0.06874363124370575,0.03887242078781128,-1.3831900358200073,-0.1835462749004364,-0.21723653376102448,-0.13404033405662558,0.13666701546840299,0.01134594756304655
0.9706249237060547,0.0024541765451431274,-0.0694044828414917,0.006828188896179199,-1.4897658824920654,-0.173661470413208,-0.20271623134613037,-0.14856371154080136,0.1348726428008226,0.01120257597819339
0.9807579517364502,-0.004114076495170593,-0.028460636734962463,-0.004495501518249512,-1.5720503330230713,-0.20522552728652954,-0.1887703239917755,-0.16399088656958422,0.13304072816179915,0.01130603405571899
0.991584062576294,-0.0006618797779083252,-0.021993443369865417,-0.0038521885871887207,-1.673864722251892,-0.2587721049785614,-0.20948976278305054,-0.18039525833505954,0.13071241848397422,0.01148098274578718
1.0007100105285645,0.007634013891220093,-0.0659349113702774,-0.0055204033851623535,-1.7267588376998901,-0.25308331847190857,-0.22233979403972626,-0.19757368675572728,0.12813701568665617,0.011523018459868842
1.0107731819152832,-0.0014055371284484863,-0.06576494872570038,-0.0313149094581604,-1.7706589698791504,-0.25910505652427673,-0.22877106070518494,-0.21521925913445436,0.12559723873905554,0.011497683014735954
1.0208029747009277,-0.010356195271015167,-0.025093257427215576,-0.031908273696899414,-1.7551794052124023,-0.2626233696937561,-0.21371594071388245,-0.23305360485004578,0.12295995252676162,0.01147012291952747
1.031592845916748,-0.0032073259353637695,-0.020494848489761353,-0.03308075666427612,-1.6734442710876465,-0.2621159255504608,-0.17551839351654053,-0.2503825283354798,0.12037094787184363,0.01163541702682954
1.0412578582763672,-0.004718206822872162,-0.002675652503967285,-0.03882986307144165,-1.5504934787750244,-0.27296537160873413,-0.15446050465106964,-0.2665635372781153,0.11779925229005067,0.011927646129106071
1.0507211685180664,-0.013040557503700256,0.01244702935218811,-0.030536770820617676,-1.4644982814788818,-0.3097675144672394,-0.1471823900938034,-0.2817474508743241,0.11492166978170154,0.01219001041905735
1.0616300106048584,-0.012063421308994293,-0.00994420051574707,-0.013651609420776367,-1.3739314079284668,-0.29560190439224243,-0.13272196054458618,-0.296017323848362,0.11192744852720123,0.012403709498658932
1.0707359313964844,-0.018582262098789215,-0.028204619884490967,-0.024393677711486816,-1.2755377292633057,-0.2580828368663788,-0.12532487511634827,-0.3093447321570371,0.10920838851012511,0.012594888437096854
1.0808939933776855,-0.029043152928352356,-0.002835005521774292,-0.02701038122177124,-1.1600862741470337,-0.24235527217388153,-0.11190947145223618,-0.32161379588815703,0.10674543012402166,0.012713821678452631
1.0910868644714355,-0.02412749081850052,0.010277032852172852,-0.025841236114501953,-1.0121136903762817,-0.23590514063835144,-0.08369935303926468,-0.332533441072971,0.10441336345856632,0.012899209443553822
1.1008820533752441,-0.014373235404491425,0.011275917291641235,-0.025754272937774658,-0.8963242173194885,-0.24225038290023804,-0.07168556749820709,-0.3420824688529915,0.10210640479934927,0.013131928884367046
1.1115851402282715,-0.012340761721134186,0.011565864086151123,-0.014932751655578613,-0.7900474071502686,-0.2350160777568817,-0.06471778452396393,-0.3505502897078897,0.09975489477816267,0.01330270693982359
1.1209189891815186,-0.014534562826156616,0.0013097822666168213,-0.006721615791320801,-0.7077666521072388,-0.22482097148895264,-0.04848022013902664,-0.35803649501411067,0.09752384584522301,0.013489545546077215
1.1310839653015137,-0.017740048468112946,0.00855863094329834,0.0035300850868225098,-0.6541817784309387,-0.23263388872146606,-0.047755949199199677,-0.3648542716636302,0.0952996045510031,0.013678778791774525
1.1409659385681152,-0.016249798238277435,0.00945901870727539,0.013575911521911621,-0.6178029775619507,-0.23496602475643158,-0.04296278953552246,-0.3712321951993352,0.09302406984569211,0.013837902516743505
1.1510059833526611,-0.014966994524002075,-0.00393715500831604,0.01879221200942993,-0.5891067981719971,-0.24336852133274078,-0.050825558602809906,-0.3772802816064282,0.09067348817964546,0.013951366241885076
1.161180019378662,-0.016779743134975433,-0.010150372982025146,0.02247941493988037,-0.553320050239563,-0.2426457405090332,-0.06776726245880127,-0.3830510583034019,0.08820433510099426,0.013859468557581167
1.1711368560791016,-0.017902366816997528,-0.0012088119983673096,0.01769810914993286,-0.4850108027458191,-0.23406356573104858,-0.06890378892421722,-0.3883210955508506,0.08572230658920447,0.013612249796163175
1.1829171180725098,-0.016374759376049042,0.016052812337875366,0.013316690921783447,-0.3822343349456787,-0.24210897088050842,-0.07638993859291077,-0.39270608911042615,0.0832070589434568,0.013240808166435936
1.1943211555480957,-0.01294584572315216,0.023422449827194214,0.013102471828460693,-0.2857525646686554,-0.24968703091144562,-0.09273886680603027,-0.3961112442030659,0.08049228514621244,0.012620983079299125
1.201314926147461,-0.012723155319690704,0.02434125542640686,0.005864083766937256,-0.18563899397850037,-0.24258865416049957,-0.102295882999897,-0.39855674236475186,0.0776753690329647,0.011774301249896046
1.2115280628204346,-0.014821134507656097,0.02069193124771118,0.004764914512634277,-0.059947624802589417,-0.22497791051864624,-0.11710375547409058,-0.3998843662159619,0.07491939968573001,0.010697843923574719
1.2212860584259033,-0.02031055837869644,0.036628663539886475,0.013210415840148926,0.15669786930084229,-0.18325471878051758,-0.1342792809009552,-0.3996122065391576,0.07231572264512784,0.009306984950820907
1.2309980392456055,-0.034874916076660156,0.07585495710372925,0.009579062461853027,0.5710270404815674,-0.07964882254600525,-0.1267368346452713,-0.3962068830666458,0.07028010310156989,0.007606560960950383
1.2411260604858398,-0.05648420751094818,0.12882289290428162,-0.0046523213386535645,1.2574554681777954,0.08312144875526428,-0.09112797677516937,-0.3873360612087688,0.06959614850874594,0.005727720562451912
1.2510781288146973,-0.07598221302032471,0.2151351273059845,-0.035420894622802734,2.241358757019043,0.20534217357635498,-0.028530161827802658,-0.37018136283614744,0.07033307599306036,0.0037873397132101023
1.2611019611358643,-0.07563098520040512,0.2864745259284973,-0.07607364654541016,3.532979965209961,0.28468677401542664,0.0764646977186203,-0.34133074641052213,0.0721789654703555,0.0018157151132257683
1.2711501121520996,-0.06547808647155762,0.3270769715309143,-0.11923563480377197,4.951314926147461,0.3353614807128906,0.16665376722812653,-0.29908134567720523,0.07454490967731062,-0.00017418875723995965
1.2811870574951172,-0.045513324439525604,0.3332105278968811,-0.12740647792816162,6.317483901977539,0.42736729979515076,0.23949387669563293,-0.24247709871164025,0.07781916546661556,-0.0024778423983983023
1.2913429737091064,-0.05522618442773819,0.4022279381752014,-0.10725390911102295,7.522165775299072,0.4743805229663849,0.2342466562986374,-0.17316007027021105,0.08162160985746861,-0.005743237657301227
1.3011209964752197,-0.08062274754047394,0.47416171431541443,0.01908665895462036,8.375448226928711,0.5164510011672974,0.23154008388519287,-0.09352527582067482,0.08592538024095357,-0.01007149757002714
1.3115429878234863,-0.10078851133584976,0.5002978444099426,0.13421988487243652,8.870340347290039,0.5265440940856934,0.20727495849132538,-0.00682809354379478,0.09101338096140316,-0.015489145506647446
1.3212189674377441,-0.10754171758890152,0.4288614094257355,0.21659916639328003,8.820542335510254,0.4982450604438782,0.006348513998091221,0.08158551789833718,0.09635313365042775,-0.022630834691849722
1.3310818672180176,-0.07473763078451157,0.22840598225593567,0.2452070116996765,8.43120002746582,0.612336277961731,-0.3069370687007904,0.16774435173972524,0.10326935580218015,-0.03276448506575569
1.3413281440734863,-0.0735415667295456,0.13053806126117706,0.1849130392074585,7.739709854125977,0.6296809315681458,-0.7707651853561401,0.2475294592602989,0.11241468344483348,-0.04717593356733949
1.351248025894165,-0.07668300718069077,0.09844684600830078,0.16606736183166504,7.106754302978516,0.7055391073226929,-1.099028468132019,0.32029545156383443,0.12439018242432384,-0.06605556183599648
1.3612661361694336,-0.03098447620868683,0.05983254313468933,0.07647955417633057,6.4613423347473145,0.7694200873374939,-1.3968846797943115,0.38591457848843885,0.1396355605699477,-0.08872635408259724
1.3712520599365234,0.02144847810268402,0.08180505037307739,0.06389236450195312,5.811508655548096,0.7605926394462585,-1.6474288702011108,0.4443862233529364,0.15805515992659325,-0.11522042422828098
1.3812808990478516,0.038004592061042786,0.13538259267807007,0.06827640533447266,5.218015670776367,0.7688729166984558,-1.782581090927124,0.49600180746069733,0.1790894034631831,-0.14466316541834967
1.3913929462432861,0.05692124366760254,0.13375520706176758,0.0793958306312561,4.738703727722168,0.7080866098403931,-1.9475687742233276,0.5412701094794553,0.20232153489011512,-0.17654512837831632
1.401228904724121,0.08374907076358795,-0.02287846803665161,0.14728271961212158,4.459231853485107,0.6835261583328247,-2.207054615020752,0.581758452452224,0.2282274168218283,-0.2120701715520773
1.411257028579712,0.07460249960422516,-0.09394454956054688,0.21400684118270874,4.326211929321289,0.6698505878448486,-2.388793468475342,0.6187168777720399,0.2575597113176031,-0.25202550994436385
1.4212760925292969,0.04646745324134827,0.05424928665161133,0.26745522022247314,4.182923793792725,0.6278258562088013,-2.4727561473846436,0.6532583731699457,0.2900402453672597,-0.29562408965057696
1.4319210052490234,0.06915375590324402,0.12642812728881836,0.2658604383468628,4.030731678009033,0.5803531408309937,-2.488443613052368,0.6850538929594358,0.3246256341271435,-0.3416491238434936
1.441443920135498,0.11418548226356506,0.06215471029281616,0.22961705923080444,3.804960012435913,0.6446913480758667,-2.5089566707611084,0.7135424890004711,0.36159921002511036,-0.3896869025550042
1.4513211250305176,0.12251147627830505,-0.0064095258712768555,0.11915373802185059,3.5149788856506348,0.8119452595710754,-2.5453145503997803,0.7381380452182235,0.4017853321571116,-0.4393538247935541
1.4614500999450684,0.08577245473861694,0.017018616199493408,0.01185905933380127,3.307119131088257,1.0392569303512573,-2.472689151763916,0.7588675281335383,0.4454158564558179,-0.4898210500149301
1.4714069366455078,0.020519644021987915,0.07144474983215332,0.004652857780456543,3.0142197608947754,1.2819725275039673,-2.380030632019043,0.7761884617363753,0.4917711554548622,-0.5398573152761751
1.4815359115600586,-0.03590601682662964,0.06927788257598877,0.051233530044555664,2.7556731700897217,1.5274007320404053,-2.2631194591522217,0.789815415703195,0.5401027971013934,-0.5884312416140667
1.4914820194244385,-0.08416575193405151,0.01785224676132202,0.1463409662246704,2.526806592941284,1.7050666809082031,-2.1931536197662354,0.8002259594558336,0.58999232716623,-0.6355097500202272
1.5013799667358398,-0.11328968405723572,-0.06668204069137573,0.31534552574157715,2.2850914001464844,1.7943366765975952,-2.111995220184326,0.8075034723296959,0.6403968415208597,-0.6810448288788825
1.5113279819488525,-0.08899515867233276,-0.1453576683998108,0.40979671478271484,2.064560890197754,1.7382193803787231,-1.9598877429962158,0.8119707364471953,0.689045849328073,-0.7236900247475093
1.5214600563049316,-0.030968904495239258,-0.2116941213607788,0.43892186880111694,1.864038348197937,1.5458762645721436,-1.7858573198318481,0.8145593838755386,0.734137734265895,-0.7630908139193315
1.5314619541168213,0.013127446174621582,-0.2089056372642517,0.4063071608543396,1.7401010990142822,1.3829689025878906,-1.5305827856063843,0.8163120721217602,0.7747164028512936,-0.7987637365003357
1.541520118713379,-0.008209824562072754,-0.1780850887298584,0.2896396815776825,1.565353512763977,1.331091284751892,-1.283608078956604,0.8179364985746338,0.811379322072773,-0.8305103252307885
1.5514569282531738,-0.06429392099380493,-0.19415682554244995,0.14329734444618225,1.351332426071167,1.3833290338516235,-1.0349371433258057,0.8192926381844451,0.8448451432174258,-0.8577458687587489
1.5614759922027588,-0.10519856214523315,-0.20076614618301392,0.04115402698516846,1.061726450920105,1.38760507106781,-0.7834324240684509,0.8202733151330999,0.8748408607633279,-0.8798026869079523
1.571624994277954,-0.11022728681564331,-0.18300247192382812,0.0053021907806396484,0.7927571535110474,1.4486982822418213,-0.5928123593330383,0.8208363326335573,0.9013941879246247,-0.8967584137581533
1.581611156463623,-0.10264790058135986,-0.1873188614845276,-0.0745074450969696,0.5645846724510193,1.5135408639907837,-0.4015987813472748,0.8210181305390215,0.9253253355154633,-0.9091001116951458
1.5915679931640625,-0.09477978944778442,-0.09880369901657104,-0.155642569065094,0.43600746989250183,1.5571424961090088,-0.21221062541007996,0.8215989459190544,0.9470407530640323,-0.9177686697555834
1.6014840602874756,-0.07933944463729858,-0.006947994232177734,-0.19691503047943115,0.357501745223999,1.6049646139144897,-0.06369224935770035,0.8227838972147146,0.9673894603421341,-0.9238711088553521
1.611577033996582,-0.050104498863220215,-0.02503228187561035,-0.23802489042282104,0.25244536995887756,1.5556145906448364,0.03769908472895622,0.8244191518226928,0.9859283430293783,-0.9275002600868794
1.6215600967407227,-0.011756181716918945,-0.059887468814849854,-0.1439872682094574,0.15138691663742065,1.3969719409942627,0.03563566878437996,0.825874938451876,1.0024531770570255,-0.9297612713389481
1.6315209865570068,0.006376862525939941,-0.10498905181884766,-0.03925374150276184,0.09868215024471283,1.1999624967575073,0.03785717114806175,0.8268032817334532,1.0163497062082194,-0.9309689575513187
1.6415939331054688,0.037445902824401855,-0.05630028247833252,-0.07018855214118958,0.21539704501628876,0.9921296238899231,0.0654592365026474,0.8280177477408254,1.0283658401314222,-0.9324201334867694
1.6515419483184814,0.06106036901473999,0.04713541269302368,-0.16532185673713684,0.36285367608070374,0.8645549416542053,0.06211979314684868,0.8300676655055962,1.040008515419602,-0.9356473815534374
1.661674976348877,0.06953424215316772,0.06591236591339111,-0.2662234604358673,0.4006766676902771,0.770656406879425,0.055843524634838104,0.8325711036225164,1.051598528726508,-0.9402590319436108
1.6716289520263672,0.05899250507354736,0.03701835870742798,-0.2972489893436432,0.2636316418647766,0.7142699956893921,0.017345184460282326,0.8345777883836996,1.0620623032679417,-0.9443967462950086
1.682337999343872,0.05286747217178345,-0.045111775398254395,-0.2637914717197418,0.05848649516701698,0.6563302874565125,-0.046138450503349304,0.8352488133122187,1.070620116934204,-0.9466068222336438
1.6922340393066406,0.04445141553878784,-0.11371326446533203,-0.19718414545059204,-0.12387913465499878,0.49872490763664246,-0.07081151753664017,0.8345017931060715,1.0764171991881573,-0.9465548386277368
1.701758861541748,0.05946230888366699,-0.07899731397628784,-0.10016986727714539,-0.11904256790876389,0.30670568346977234,-0.06988739967346191,0.8332334825181907,1.0794892588419012,-0.9452572498233474
1.7117629051208496,0.07469910383224487,-0.02673959732055664,-0.09237802028656006,0.027032695710659027,0.1437343806028366,-0.045125916600227356,0.8324796555147806,1.0817145988341244,-0.9451801076355756
1.7216601371765137,0.06007570028305054,0.014003276824951172,-0.09605669975280762,0.08781721442937851,-0.007490562740713358,-0.006985986605286598,0.8325958729979126,1.0830353720965833,-0.9461248484755087
1.7316460609436035,0.04792600870132446,-0.005882143974304199,-0.10670095682144165,0.04765326902270317,-0.06689223647117615,-0.013333790935575962,0.8328631999519504,1.0834078568254193,-0.9471918870984585
1.7416410446166992,0.022723019123077393,-0.07480794191360474,-0.12787437438964844,-0.09921979159116745,-0.0907248705625534,-0.01731894537806511,0.8326337001651255,1.0825308095756612,-0.9470538500481457
1.751636028289795,-0.006338834762573242,-0.10874491930007935,-0.09532850980758667,-0.19659216701984406,-0.11538951098918915,-0.02372155711054802,0.8317250093796044,1.0800597677621657,-0.9451261854653839
1.761754035949707,-0.01704353094100952,-0.08149367570877075,-0.05976778268814087,-0.1525522768497467,-0.1636153608560562,-0.041027043014764786,0.8305690494998188,1.0770527743439966,-0.9429109477204193
1.771697998046875,-0.018162429332733154,-0.01595407724380493,-0.026085734367370605,-0.06554336100816727,-0.2183953821659088,-0.06285979598760605,0.8296238947929574,1.0744400675051065,-0.9419642297638972
1.781816005706787,-0.016873478889465332,-0.009083092212677002,0.01600325107574463,-0.08152072876691818,-0.2726527750492096,-0.07402696460485458,0.8286819080349815,1.0716736101751767,-0.9415501769065282
1.791935920715332,-0.02084559202194214,-0.041584908962249756,0.04489034414291382,-0.1391051858663559,-0.30423420667648315,-0.06675925105810165,0.8275302985877178,1.068035111340334,-0.9405753638170046
1.8017029762268066,-0.018113136291503906,-0.05492657423019409,0.04186388850212097,-0.15581145882606506,-0.31255099177360535,-0.055754538625478745,0.8262829302442166,1.0639013726820792,-0.9391340835743982
1.811880111694336,-0.018875956535339355,-0.05345708131790161,0.034936100244522095,-0.16822277009487152,-0.33586254715919495,-0.03409068286418915,0.8250969858227167,1.0593360100302915,-0.9373602901349676
1.8218040466308594,-0.008046925067901611,-0.05531752109527588,0.025860756635665894,-0.19132089614868164,-0.3050084710121155,-0.027882853522896767,0.8239524717815412,1.0545054851272706,-0.9352393908639632
1.8320021629333496,-0.016207754611968994,-0.07540231943130493,-0.013186484575271606,-0.2256108969449997,-0.21610215306282043,-0.00041895121103152633,0.8227789790437594,1.0500590392666673,-0.9327308626554806
1.841869831085205,-0.031882286071777344,-0.07646793127059937,-0.026983827352523804,-0.24027159810066223,-0.17217329144477844,0.045195672661066055,0.821796000452993,1.0458094727523108,-0.929541572297935
1.851883888244629,-0.026189029216766357,-0.04068946838378906,0.03327855467796326,-0.17422223091125488,-0.16124297678470612,0.050948366522789,0.821163738165773,1.0419191675775896,-0.9265089741494303
1.8618359565734863,-0.018225908279418945,-0.021632611751556396,0.07672041654586792,-0.1305309534072876,-0.1618587076663971,0.06415524333715439,0.8209378605240842,1.0386346507502717,-0.924195942589401
1.8718581199645996,-0.01916879415512085,-0.022777795791625977,0.09680667519569397,-0.15928559005260468,-0.14005863666534424,0.04469366371631622,0.8207352951182585,1.0355291947171756,-0.92201364212616
1.8819599151611328,-0.008136451244354248,-0.05586230754852295,0.09481814503669739,-0.18286414444446564,-0.12229055166244507,0.03775639832019806,0.8202378712311532,1.0324437342869939,-0.9195465609782938
1.8918919563293457,0.008555054664611816,-0.03949671983718872,0.06090188026428223,-0.16074274480342865,-0.1084541529417038,0.03179885447025299,0.8196907583777876,1.0295551835233732,-0.9171504966348573
1.9018440246582031,0.028741836547851562,-0.015280604362487793,0.027819424867630005,-0.11005959659814835,-0.08111174404621124,0.033561334013938904,0.819289063199042,1.0271545119860495,-0.9151786833864086
1.9118809700012207,0.02794802188873291,0.004122555255889893,0.010155469179153442,-0.054878368973731995,-0.0565028041601181,0.035065487027168274,0.8191460999653782,1.0255653817022592,-0.9139050416048822
1.9219660758972168,0.018204569816589355,0.0021575093269348145,0.016562461853027344,-0.09920401871204376,-0.03443371504545212,0.03614220395684242,0.8192626976525907,1.0241588344205845,-0.9126898283496947
1.9319839477539062,0.006023108959197998,-0.045507848262786865,0.05709731578826904,-0.2003762423992157,0.007699176203459501,0.021738708019256592,0.8188650452877334,1.0225735349674892,-0.9106436729919101
1.9420249462127686,-0.015069127082824707,-0.08661222457885742,0.08688533306121826,-0.24204060435295105,0.013402601704001427,0.013201413676142693,0.8179759577684094,1.0208200254911535,-0.9078784477765406
1.9519009590148926,-0.006826221942901611,-0.06436830759048462,0.09199997782707214,-0.2549673020839691,0.00977049395442009,0.006142172496765852,0.8169003306827447,1.0189017988645321,-0.904927307432342
1.962021827697754,0.005549073219299316,-0.0598483681678772,0.07889702916145325,-0.32708996534347534,0.0027647821698337793,0.005831115413457155,0.815613097950024,1.0165978871647257,-0.9015014435073108
1.972121000289917,0.0018938779830932617,-0.08023840188980103,0.07853242754936218,-0.3849915564060211,0.00190364895388484,0.028419140726327896,0.81396082833932,1.0135464981078228,-0.897115996549923
1.9821600914001465,0.003952980041503906,-0.06987786293029785,0.06783843040466309,-0.3827124238014221,-0.028158914297819138,0.06606345623731613,0.8123176813521663,1.0098098752388447,-0.8920538197745157
1.992182970046997,0.017071425914764404,-0.027878999710083008,0.04991653561592102,-0.3113713562488556,-0.05448945239186287,0.08776896446943283,0.8110859337082112,1.0059769740678357,-0.8872589597262347
2.0020499229431152,0.022776126861572266,-0.008728265762329102,0.013507544994354248,-0.3095782697200775,-0.08679865300655365,0.12204650789499283,0.8103563800384126,1.0021364696839243,-0.882846485186308
2.0121989250183105,0.021119296550750732,-0.03263509273529053,-0.004757612943649292,-0.47332897782325745,-0.08060183376073837,0.12383817881345749,0.8094765632521863,0.9973651945600998,-0.8773396067840921
2.022073984146118,0.002810955047607422,-0.1279747486114502,0.0016470253467559814,-0.818519115447998,-0.07421956956386566,0.09134975075721741,0.8069102906092798,0.9903970297506375,-0.868752616551783
2.032033920288086,-0.010363936424255371,-0.22769653797149658,0.017033815383911133,-1.2647480964660645,-0.06102147325873375,0.06106150895357132,0.8017763393415953,0.9802224041121714,-0.8556049270446218
2.0420069694519043,-0.022828280925750732,-0.2826809883117676,0.029818683862686157,-1.5943517684936523,-0.024188362061977386,0.0974152535200119,0.7942692476244083,0.9671440059402532,-0.8379074738689967
2.0521059036254883,-0.038706421852111816,-0.23394405841827393,0.030849337577819824,-1.636141300201416,-0.05856453254818916,0.15223631262779236,0.7858793161134551,0.9524672573177655,-0.8177735321266376
2.062173843383789,-0.021313846111297607,-0.11983740329742432,0.03885817527770996,-1.350508451461792,-0.15048779547214508,0.2790493965148926,0.7787605585798543,0.9380487515047535,-0.7987440902435919
2.072174072265625,0.017848491668701172,0.044031739234924316,0.05526864528656006,-1.0193970203399658,-0.32663580775260925,0.39469674229621887,0.7744463140879946,0.9243388474961857,-0.7825921478440366
2.082253932952881,0.05087834596633911,0.12051248550415039,0.07036292552947998,-0.9484682679176331,-0.48217320442199707,0.4433702826499939,0.771978253003452,0.9103336932488927,-0.7683596590416694
2.0921311378479004,0.05345720052719116,-0.022230565547943115,0.08595699071884155,-1.386167049407959,-0.6059625148773193,0.4668706953525543,0.7685382077971755,0.8934605491199424,-0.7519796960795442
2.102267026901245,0.02994990348815918,-0.2433590292930603,0.12127912044525146,-2.3052978515625,-0.6781091094017029,0.4367266297340393,0.7604646588166868,0.870700448675944,-0.7284856875472786
2.11234188079834,-0.004617869853973389,-0.45994168519973755,0.13572987914085388,-3.52987003326416,-0.6323189735412598,0.3817192316055298,0.7444956860119266,0.8409636957337566,-0.6946898066198206
2.128864049911499,-0.06143081188201904,-0.6024293303489685,0.13631808757781982,-4.653203964233398,-0.5130016207695007,0.2803979516029358,0.7189400906813974,0.8060352511969483,-0.6510356826054671
2.1343860626220703,-0.10907644033432007,-0.6233633160591125,0.13809871673583984,-5.370722770690918,-0.4385645091533661,0.28676503896713257,0.6852836945919996,0.7694551122620633,-0.6017793140713662
2.142848014831543,-0.08756673336029053,-0.4026045799255371,0.12877047061920166,-5.4704742431640625,-0.4905714988708496,0.38590309023857117,0.6475567423362147,0.7335032349255455,-0.551007197601098
2.1521449089050293,0.015226781368255615,-0.12464511394500732,0.08586311340332031,-4.878746032714844,-0.7136477828025818,0.5454034805297852,0.6112257853951383,0.7000654663405073,-0.504312768184684
2.1622800827026367,0.10322648286819458,0.09940177202224731,0.05401313304901123,-4.078949928283691,-1.021109700202942,0.9198561906814575,0.5811697169741159,0.668384567115264,-0.46328187161360546
2.173801898956299,0.16103202104568481,0.33027738332748413,0.05599910020828247,-3.4248809814453125,-1.3445897102355957,1.213488221168518,0.5580604591697041,0.636408779695688,-0.4260738195276766
2.1824769973754883,0.18533369898796082,0.2525743246078491,0.06635427474975586,-3.161440372467041,-1.573717474937439,1.336766242980957,0.5389381403303337,0.6037269048446883,-0.39157947329358034
2.192368984222412,0.15876078605651855,0.018816739320755005,0.11730915307998657,-3.3276872634887695,-1.7173328399658203,1.3885332345962524,0.5196947024559546,0.5700707284866143,-0.3576804501256202
2.202354907989502,0.11549574136734009,-0.10807985067367554,0.17763274908065796,-3.8752317428588867,-1.768850326538086,1.3229714632034302,0.4963565581874989,0.5355667836676271,-0.3228088796356606
2.2124409675598145,0.08850616216659546,-0.21835455298423767,0.18056392669677734,-4.540248870849609,-1.6980249881744385,1.1193382740020752,0.46585507815619326,0.5016389861507373,-0.28720587280868365
2.223771095275879,0.057779282331466675,-0.2676870822906494,0.13466060161590576,-5.260089874267578,-1.5444698333740234,0.8977171778678894,0.42714495473569897,0.4701079896737492,-0.2519928327836303
2.2322750091552734,0.027305305004119873,-0.14022588729858398,0.0839875340461731,-5.730932712554932,-1.4015769958496094,0.8225078582763672,0.3813725506454523,0.44175740845197575,-0.2172464173915975
2.242284059524536,0.03430846333503723,0.04564619064331055,0.04346740245819092,-5.995701313018799,-1.3438974618911743,0.8713334202766418,0.33130645499270456,0.4160770555325463,-0.18294165505550777
2.252285957336426,0.07415047287940979,0.17459392547607422,0.07846927642822266,-6.134684085845947,-1.3234790563583374,0.9442444443702698,0.27907832359676815,0.3925835744760098,-0.1491123896190312
2.2623400688171387,0.10505631566047668,0.17167863249778748,0.1766667366027832,-6.0546464920043945,-1.4053871631622314,0.8222724795341492,0.22565169304709654,0.3709070846721457,-0.11690993312365128
2.2738089561462402,0.11206027865409851,0.012011870741844177,0.27859681844711304,-5.7781476974487305,-1.4604666233062744,0.5531720519065857,0.17255000186443908,0.35096610400197037,-0.08896970750662589
2.282322883605957,0.09586399793624878,-0.0013682767748832703,0.30333977937698364,-5.384158611297607,-1.5360407829284668,0.41154277324676514,0.12148890846842111,0.33256047898219326,-0.06556334437512326
2.292510986328125,0.0814734399318695,0.16648659110069275,0.2990339398384094,-4.952849388122559,-1.6380199193954468,0.38236111402511597,0.073519917205731,0.31468270073005605,-0.04519915373100667
2.302351951599121,0.09352585673332214,0.1878052055835724,0.2553665041923523,-4.391200542449951,-1.7010260820388794,0.2576119899749756,0.03026278577280258,0.29701884696395847,-0.02798577412485776
2.3124518394470215,0.093747079372406,0.04855538532137871,0.18356072902679443,-4.10520601272583,-1.7065356969833374,0.05863669887185097,-0.010145398484487918,0.2797600378072254,-0.014392537368327452
2.323883056640625,0.05302023887634277,-0.023553159087896347,0.13779902458190918,-3.868807315826416,-1.635216474533081,-0.06595423072576523,-0.048443975704473924,0.2633212671715571,-0.0037825346098471716
2.3325181007385254,0.023163780570030212,-0.056421197950839996,0.08665084838867188,-3.89538311958313,-1.5796400308609009,-0.20303091406822205,-0.08626758704483946,0.24780932823230956,0.0047586182157783865
2.3431100845336914,0.00710354745388031,-0.10458552837371826,0.11308842897415161,-4.022148132324219,-1.457243800163269,-0.32285797595977783,-0.1254219706734869,0.23325662096997118,0.011622426596686167
2.3524389266967773,0.0007649064064025879,-0.13986210525035858,0.14296209812164307,-4.315640449523926,-1.3490734100341797,-0.4099116623401642,-0.1666951034092061,0.22005117427471924,0.01735757963007658
2.3623549938201904,-0.0010149180889129639,0.013370200991630554,0.20804011821746826,-4.492771625518799,-1.3852205276489258,-0.16604866087436676,-0.2107356126884313,0.20775295419444312,0.023859456302919656
2.373790979385376,0.022790148854255676,0.23689591884613037,0.2620844841003418,-4.497166633605957,-1.595754623413086,0.17307613790035248,-0.25478931447529934,0.19502744866042024,0.033231689054634334
2.3823740482330322,0.06962136924266815,0.17981308698654175,0.2670097351074219,-4.355343341827393,-1.715325951576233,0.2549521028995514,-0.29802898402387906,0.1813409158729456,0.04427215888065411
2.392490863800049,0.05034375190734863,-0.01344144344329834,0.22669678926467896,-4.122900485992432,-1.6700013875961304,0.13612264394760132,-0.3394900370040547,0.1673894421950189,0.05410698783591939
2.402390956878662,-0.015451863408088684,-0.06470188498497009,0.14901423454284668,-3.8068645000457764,-1.5776280164718628,0.031584519892930984,-0.37861465186528415,0.153799226368279,0.061735736872861754
2.412400007247925,-0.04457642138004303,0.022502005100250244,0.0816224217414856,-3.4803028106689453,-1.4943374395370483,-0.011805828660726547,-0.4145474773465279,0.14070496860360066,0.06760760170890617
2.423840045928955,-0.03590003401041031,0.06344237923622131,0.02830803394317627,-3.3288888931274414,-1.415492296218872,-0.06842772662639618,-0.4483965919525042,0.12800065110621386,0.07221064258140744
2.43255615234375,-0.02800247073173523,-0.012082993984222412,-0.002579927444458008,-3.2344589233398438,-1.2157020568847656,-0.12013570964336395,-0.4810447894811168,0.11630951729483223,0.07562497408681212
2.442552089691162,-0.045158274471759796,-0.10961732268333435,-0.03789442777633667,-3.330937385559082,-1.0250277519226074,-0.2121945321559906,-0.5137051946430589,0.10622260264060868,0.07791070686820044
2.4525959491729736,-0.060380719602108,-0.16423499584197998,0.015373408794403076,-3.543250560760498,-0.8732205033302307,-0.35103315114974976,-0.5483448572222708,0.09704737134737901,0.07868039791587327
2.462692975997925,-0.06088508665561676,-0.21413320302963257,0.08838611841201782,-3.644747734069824,-0.6872202754020691,-0.4186819791793823,-0.5844967856569766,0.08891138135367256,0.07804130366633887
2.474799156188965,-0.06256666779518127,-0.14629197120666504,0.13786566257476807,-3.5741302967071533,-0.5572289228439331,-0.3858841359615326,-0.6211004722953878,0.0820370281510857,0.07684590547065676
2.4826860427856445,-0.06696997582912445,0.044340431690216064,0.20941567420959473,-3.240387439727783,-0.5586063265800476,-0.25993314385414124,-0.6554859302604771,0.07614021415860088,0.07613700709933352
2.4926769733428955,-0.05226965993642807,0.18247956037521362,0.22371846437454224,-2.668532133102417,-0.6278516054153442,-0.07451570779085159,-0.6852003301734425,0.07059996842767335,0.07678436173053119
2.5025510787963867,-0.03229846805334091,0.18341314792633057,0.17643976211547852,-2.0742766857147217,-0.6334514617919922,0.05424679443240166,-0.708899163783893,0.06555277473839151,0.07884071065605706
2.5125808715820312,-0.039271943271160126,0.1157766580581665,0.0777999758720398,-1.540177822113037,-0.5629237294197083,0.10184585303068161,-0.7268203888670349,0.06122794724689759,0.08142075603905428
2.523813009262085,-0.05955324321985245,0.05677109956741333,-0.009269356727600098,-1.1710822582244873,-0.4525684416294098,0.12355887144804001,-0.7401513000594918,0.057893707457545636,0.08403801637221278
2.532651901245117,-0.0665004700422287,0.016856729984283447,-0.056460559368133545,-0.9819898009300232,-0.32055118680000305,0.12029042094945908,-0.7507594582545452,0.05566923172974388,0.08650021240681502
2.5426669120788574,-0.06423167139291763,-0.01860255002975464,-0.08990812301635742,-0.9418842196464539,-0.16235807538032532,0.13072974979877472,-0.7602312694486358,0.05493100529084005,0.0889461141764021
2.552649974822998,-0.06089578568935394,-0.03182673454284668,-0.08932101726531982,-0.9621726274490356,-0.0075783138163387775,0.12906254827976227,-0.7696575170963231,0.05584320927986616,0.09147624953400826
2.562741994857788,-0.058177366852760315,-0.04071134328842163,-0.06857138872146606,-1.0242328643798828,0.13649363815784454,0.12473145127296448,-0.7794837513075012,0.05827096155264603,0.09402120750179481
2.574496030807495,-0.05758348107337952,-0.03755593299865723,-0.05906116962432861,-1.125016450881958,0.2624872028827667,0.1332797259092331,-0.7900987841734236,0.06221784256988039,0.0967418180320832
2.582857131958008,-0.05875489488244057,-0.027785003185272217,-0.031077206134796143,-1.1983811855316162,0.38571858406066895,0.15087416768074036,-0.8016938400528599,0.06768197505709468,0.09984360489331687
2.592741012573242,-0.06226598471403122,-0.01806741952896118,0.015244364738464355,-1.1254963874816895,0.45080819725990295,0.16994406282901764,-0.8133073386683206,0.07443447023469722,0.10335737983164266
2.6027321815490723,-0.06721942871809006,0.028143644332885742,0.05066102743148804,-0.8762134909629822,0.4661312401294708,0.1788850873708725,-0.8232534775397259,0.08175161470736328,0.10705626405719287
2.6127469539642334,-0.06669265031814575,0.08218938112258911,0.05444073677062988,-0.5126657485961914,0.43806692957878113,0.19821232557296753,-0.8300581521519159,0.08899704077616714,0.11069937231478792
2.6238269805908203,-0.05355285108089447,0.11598849296569824,0.02730536460876465,-0.12409324198961258,0.388911634683609,0.2153569608926773,-0.8330237201327437,0.09570942226452757,0.11419963280314574
2.6327691078186035,-0.0369730070233345,0.10706496238708496,-0.007070660591125488,0.17663735151290894,0.356784462928772,0.21426422894001007,-0.8324978098743319,0.10174654875400616,0.11734945915899059
2.642833948135376,-0.03611622750759125,0.08483082056045532,-0.047002315521240234,0.44279900193214417,0.39005693793296814,0.20742948353290558,-0.8291516848199765,0.10738846273930731,0.11996788130451717
2.652780055999756,-0.05131226032972336,0.07238548994064331,-0.09063071012496948,0.614376962184906,0.4385446012020111,0.2023235708475113,-0.8236029472045964,0.11313140621029359,0.12210871645626635
2.6629638671875,-0.062497854232788086,0.07665222883224487,-0.11028611660003662,0.6937947869300842,0.47431325912475586,0.1946382224559784,-0.8168104876773932,0.11901798574113143,0.12388886439746342
2.6743030548095703,-0.0649290680885315,0.061350464820861816,-0.10365498065948486,0.6885624527931213,0.5095370411872864,0.16863271594047546,-0.8096782371800507,0.12494695820089106,0.12527389226157207
2.683027982711792,-0.06649093329906464,0.03557103872299194,-0.09405779838562012,0.6039706468582153,0.5412563681602478,0.14851252734661102,-0.8030308444411699,0.13097589263593332,0.12634625694125814
2.6930320262908936,-0.06972725689411163,0.02853715419769287,-0.0777636170387268,0.5191283226013184,0.5674868822097778,0.1214575320482254,-0.7972694139290356,0.1371401948000484,0.12718855245716804
2.7029271125793457,-0.06957471370697021,0.028405427932739258,-0.059978187084198,0.4415469765663147,0.56343674659729,0.09028150141239166,-0.792381461411932,0.14319190833309417,0.12772836047353522
2.713028907775879,-0.06336203217506409,0.045544326305389404,-0.049440860748291016,0.38403135538101196,0.5424502491950989,0.0699458122253418,-0.7881914925872366,0.1489225877359185,0.12798353570426904
2.7240371704101562,-0.05002432316541672,0.062027037143707275,-0.044091105461120605,0.35065582394599915,0.5033385157585144,0.0504850298166275,-0.7844933535919837,0.15421034157377994,0.12805932369202258
2.7331271171569824,-0.04433499276638031,0.06523168087005615,-0.036060869693756104,0.36337125301361084,0.4629100561141968,0.029492074623703957,-0.7809203735296333,0.1588816557121824,0.12782601247517353
2.7429208755493164,-0.04768978804349899,0.06766116619110107,-0.038158297538757324,0.4162360429763794,0.42656561732292175,0.011086969636380672,-0.7770561034342691,0.16290809393631453,0.12722530753506264
2.752868175506592,-0.05366896837949753,0.07343769073486328,-0.0493585467338562,0.47801393270492554,0.39783915877342224,0.002201865427196026,-0.7726234967383627,0.16636181675535172,0.12627798386056438
2.763025999069214,-0.05252666026353836,0.07218062877655029,-0.059897541999816895,0.5216628909111023,0.37779995799064636,-0.0006756799411959946,-0.7676786216836792,0.16943281341166738,0.12511607964171775
2.774610996246338,-0.050805188715457916,0.06368732452392578,-0.06337666511535645,0.557554304599762,0.37155866622924805,-0.0021236406173557043,-0.7623401041472233,0.17226587033273935,0.12380567693047523
2.7830259799957275,-0.05184684693813324,0.049315810203552246,-0.06416118144989014,0.5714544057846069,0.3723751902580261,-0.007783656939864159,-0.7567608082629428,0.1749954825758591,0.12237850256285107
2.7934489250183105,-0.05094984173774719,0.042359769344329834,-0.06103736162185669,0.5370559692382812,0.3683408498764038,-0.012095900252461433,-0.75127364007113,0.17769640478803553,0.12089073224981643
2.8029909133911133,-0.045439496636390686,0.03740626573562622,-0.0476570725440979,0.4766799211502075,0.34746912121772766,-0.022774377837777138,-0.7463291376216928,0.18029175649944748,0.11943428136719877
2.8130550384521484,-0.03570377826690674,0.016502797603607178,-0.012453675270080566,0.42535310983657837,0.30702510476112366,-0.053128503262996674,-0.7419511939647707,0.18248275536984124,0.11781793257451006
2.82407283782959,-0.0291728675365448,0.0005603432655334473,0.014521956443786621,0.36446765065193176,0.25759896636009216,-0.08356763422489166,-0.7381656498284881,0.18402751991377878,0.11592071429281905
2.8330349922180176,-0.02404065430164337,0.014557123184204102,0.031961143016815186,0.2844099700450897,0.1973649263381958,-0.09144813567399979,-0.7351314330267342,0.18497360435130833,0.11392899270898323
2.8430449962615967,-0.014338463544845581,0.03088963031768799,0.044275879859924316,0.22988733649253845,0.14332592487335205,-0.08611942082643509,-0.7327812354213971,0.18545778398690616,0.11210776818576511
2.8530821800231934,-0.0042577385902404785,0.018892526626586914,0.04502403736114502,0.17587022483348846,0.1025991439819336,-0.08236654847860336,-0.7309402549701589,0.18559294375982444,0.11050094928593039
2.8633580207824707,-0.0012102127075195312,0.0019807815551757812,0.031185626983642578,0.12785449624061584,0.08713816106319427,-0.07981070876121521,-0.729595173511465,0.185560201905506,0.10906093810007968
2.8740439414978027,-0.001290932297706604,-0.003676116466522217,0.013339042663574219,0.1012292131781578,0.08558429777622223,-0.07104817032814026,-0.7286279984703072,0.1855705984032102,0.10779422192726341
2.8831570148468018,0.0019576549530029297,-0.0044359564781188965,0.0029467344284057617,0.10625539720058441,0.08614995330572128,-0.06290555000305176,-0.7277447000399975,0.18567437851268812,0.10665899117919019
2.8932008743286133,0.002350747585296631,2.2113323211669922e-05,-0.0043261051177978516,0.13404008746147156,0.08737855404615402,-0.05742109194397926,-0.7266792258854703,0.1858129263456562,0.10557472256969617
2.903252124786377,0.0015501081943511963,0.0036848783493041992,-0.007013201713562012,0.16580653190612793,0.0915709063410759,-0.05012349784374237,-0.7253113198523139,0.18598877980781656,0.10449533621001392
2.913300037384033,0.0028013288974761963,0.0032891035079956055,0.0004566311836242676,0.20974670350551605,0.08825962245464325,-0.05292663350701332,-0.7235577337361573,0.18613208163402686,0.10335448626830684
2.9243390560150146,0.007303491234779358,5.418062210083008e-05,0.01008760929107666,0.24409189820289612,0.07317201048135757,-0.053741294890642166,-0.7214220663880119,0.18610763351371779,0.1020890067739419
2.9332308769226074,0.012176483869552612,-0.0007527470588684082,0.016370058059692383,0.2638930380344391,0.057780809700489044,-0.05259395018219948,-0.7190039652363798,0.1858869087291119,0.10076403728357745
2.9431710243225098,0.018300920724868774,-0.007840991020202637,0.023405611515045166,0.2676773965358734,0.04830874502658844,-0.051842138171195984,-0.7164826886891924,0.18552753409780573,0.09942511325603115
2.953260898590088,0.022752821445465088,-0.012404680252075195,0.023118138313293457,0.26169291138648987,0.042408064007759094,-0.04593322426080704,-0.7139580458753311,0.18514188785330699,0.09813047354484161
2.9633078575134277,0.024342522025108337,-0.0066912174224853516,0.020805537700653076,0.24930629134178162,0.03650517016649246,-0.03531094267964363,-0.7115088165786295,0.1847831210809254,0.09698506462146682
2.9740500450134277,0.023779675364494324,-0.013399064540863037,0.018106698989868164,0.2178439050912857,0.04024122655391693,-0.029567034915089607,-0.7093271483527647,0.18451215032292165,0.09599325005583734
2.983266830444336,0.02163444459438324,-0.026859700679779053,0.012939870357513428,0.18264278769493103,0.04873538017272949,-0.023544562980532646,-0.7075018161006176,0.1844163957951581,0.09516337658317511
2.9936251640319824,0.017093420028686523,-0.029756665229797363,0.0055029988288879395,0.15394693613052368,0.06385108083486557,-0.017434366047382355,-0.7059940098399465,0.1845761821494173,0.09451258300200689
3.003325939178467,0.012399792671203613,-0.033281147480010986,-0.0019985437393188477,0.1273009479045868,0.06908313184976578,-0.013607670553028584,-0.7047510649838246,0.18496149727474642,0.09402051327274694
3.0132839679718018,0.011627167463302612,-0.04028421640396118,-0.0017150044441223145,0.109027199447155,0.07902755588293076,-0.009622463025152683,-0.7037489940644737,0.18552786647711786,0.09365913257423349
3.023970127105713,0.00903649628162384,-0.04478996992111206,0.002390623092651367,0.10334108769893646,0.08071812987327576,-0.001094754901714623,-0.7028145046526738,0.18627010495703794,0.09342877876870835
3.0332751274108887,0.007833540439605713,-0.04327815771102905,0.0033707618713378906,0.10851404070854187,0.07801945507526398,0.006382336374372244,-0.7018334577368502,0.1870864038302624,0.09330775404473521
3.0433950424194336,0.0076113492250442505,-0.04181098937988281,0.004922091960906982,0.114229716360569,0.07310938090085983,0.014545457437634468,-0.7007718860682114,0.18788316846452474,0.09324481366648707
3.053429126739502,0.009587347507476807,-0.0436711311340332,0.00334852933883667,0.11345139145851135,0.07004120200872421,0.02472326159477234,-0.6996525997054404,0.18868867028716424,0.09328484085483461
3.064216136932373,0.008335083723068237,-0.04084336757659912,0.002687215805053711,0.1150231882929802,0.0698918029665947,0.03807368502020836,-0.6984501938425763,0.18955196647413938,0.09345894519929719
3.074038028717041,0.005019292235374451,-0.041101694107055664,-0.0014488697052001953,0.10590251535177231,0.08064515888690948,0.052085909992456436,-0.6972340657717946,0.19053813074909484,0.09378435915247478
3.083345890045166,0.000398099422454834,-0.041816651821136475,-0.010262787342071533,0.09367886930704117,0.0909622460603714,0.06599852442741394,-0.6960971975093396,0.1917493171980556,0.09431570103590615
3.0934410095214844,-0.004054427146911621,-0.04188191890716553,-0.01517575979232788,0.09044770896434784,0.09662629663944244,0.07921329140663147,-0.6949896703774622,0.19316489928029698,0.0950351679781346
3.103562831878662,-0.0055604130029678345,-0.04319953918457031,-0.014411211013793945,0.07872660458087921,0.09469950199127197,0.0872696191072464,-0.6939243197587496,0.1946843935227098,0.09589807876029194
3.113490104675293,-0.011170461773872375,-0.042731523513793945,-0.007680833339691162,0.06963307410478592,0.09727539867162704,0.09240984171628952,-0.6929585777841794,0.19627824038999556,0.09687323742242522
3.124192953109741,-0.015126585960388184,-0.043025314807891846,0.0005341172218322754,0.05781449377536774,0.09570732712745667,0.09546475112438202,-0.6920913001956938,0.19791918099453884,0.09792399657656371
3.133479118347168,-0.016149505972862244,-0.03545570373535156,0.005358994007110596,0.04192204773426056,0.08739249408245087,0.0911155492067337,-0.6913566072714816,0.19951531867441183,0.09898088238308189
3.143435001373291,-0.014998167753219604,-0.02926921844482422,0.009614706039428711,0.027713816612958908,0.0783180370926857,0.08449945598840714,-0.6907736911030644,0.20100453760360462,0.1000077299637902
3.1536340713500977,-0.012139484286308289,-0.02575397491455078,0.0039473772048950195,0.016809720546007156,0.07057991623878479,0.077857106924057,-0.6903506019976,0.20236047576864674,0.10098175568204192
3.1641688346862793,-0.00985601544380188,-0.017182230949401855,-0.0037665963172912598,0.021853746846318245,0.06317766010761261,0.0740988552570343,-0.6899398453072928,0.2035704670943993,0.10186709423221332
3.1758480072021484,-0.011019840836524963,-0.007521331310272217,-0.01103365421295166,0.03298893943428993,0.05896395817399025,0.07561302185058594,-0.6894228727744627,0.20467943172772599,0.10270339265749205
3.183696985244751,-0.013547360897064209,-0.0016127228736877441,-0.017247796058654785,0.04737027734518051,0.05777592211961746,0.080073282122612,-0.6887659716037234,0.2057510152356255,0.10352882705336275
3.1936988830566406,-0.014678910374641418,0.0020660758018493652,-0.02212822437286377,0.05945386737585068,0.05794893950223923,0.08474153280258179,-0.6879540602720685,0.20680539592333283,0.10436714378581154
3.2036309242248535,-0.015057548880577087,0.003869950771331787,-0.021208107471466064,0.07472656667232513,0.05501040816307068,0.08703158795833588,-0.6870020217318258,0.2078074240258059,0.10518470481677365
3.2138149738311768,-0.014303401112556458,0.003932297229766846,-0.01760166883468628,0.08198191225528717,0.046880755573511124,0.08238714188337326,-0.6859547643670236,0.20868617897730116,0.10593001815972111
3.2242560386657715,-0.012715980410575867,0.0028754472732543945,-0.011007308959960938,0.087868832051754,0.036109600216150284,0.07582564651966095,-0.6848955753514118,0.20942861852072336,0.10659440405646044
3.2338061332702637,-0.011912763118743896,0.003202080726623535,-0.005406618118286133,0.09067869931459427,0.023348797112703323,0.06925850361585617,-0.6838044320261679,0.2100114897299698,0.10717750819171644
3.2439939975738525,-0.012006476521492004,0.007708489894866943,-0.004576623439788818,0.08498592674732208,0.008446015417575836,0.05911878123879433,-0.6827551261569877,0.2103954170239157,0.10766590920829282
3.2537269592285156,-0.012509450316429138,0.007673382759094238,-0.004744410514831543,0.07414770871400833,-0.005219863262027502,0.05436765030026436,-0.6818173665440083,0.210573638893539,0.10806498779055464
3.2636971473693848,-0.015177518129348755,0.002727985382080078,-0.003997206687927246,0.05306852236390114,-0.012296946719288826,0.042378101497888565,-0.6810727336871503,0.2105822539574887,0.10838801086964753
3.2742350101470947,-0.018239125609397888,0.000678718090057373,-0.0011435151100158691,0.03762079030275345,-0.017955897375941277,0.037540093064308167,-0.6805287998212771,0.2104809742868008,0.1086494716285487
3.283642053604126,-0.01944895088672638,0.00010836124420166016,-0.0008100271224975586,0.028377223759889603,-0.021002553403377533,0.03636164590716362,-0.6801240653588259,0.2103365271510291,0.10890354487464712
3.2938060760498047,-0.020111188292503357,-0.0001717209815979004,-5.167722702026367e-05,0.022702261805534363,-0.02147650718688965,0.03712943568825722,-0.6798171091533289,0.2102113091392477,0.10919352465754613
3.303694009780884,-0.021098077297210693,-0.0009134411811828613,0.003674149513244629,0.023666061460971832,-0.01902080699801445,0.03809163346886635,-0.6795347836067708,0.21013611659663042,0.10951821535880041
3.31365704536438,-0.021827682852745056,0.0005186200141906738,0.007341623306274414,0.03763324394822121,-0.018254350870847702,0.040838636457920074,-0.6791846734269926,0.21011218912836083,0.10986935607340916
3.3245890140533447,-0.01984633505344391,0.0024341940879821777,0.00970679521560669,0.053686246275901794,-0.019100703299045563,0.03671286627650261,-0.6787035570056632,0.21005247454288287,0.11016851997251585
3.3340179920196533,-0.019150003790855408,-0.0015785694122314453,0.010577380657196045,0.05656500533223152,-0.016743581742048264,0.033370330929756165,-0.6781347089625224,0.20994202357002195,0.11039267389144071
3.34405517578125,-0.01598893105983734,-0.005302488803863525,0.012095034122467041,0.04644632339477539,-0.014997612684965134,0.028852012008428574,-0.6775872832709686,0.20980482718157842,0.11056608896092049
3.3538219928741455,-0.01631668210029602,-0.007538557052612305,0.016623616218566895,0.031450796872377396,-0.016641229391098022,0.023443611338734627,-0.6771867074859031,0.2096457138386014,0.11069903792089812
3.3638219833374023,-0.017783984541893005,-0.01300668716430664,0.02246856689453125,0.016742689535021782,-0.01452401652932167,0.013551299460232258,-0.6769392155353686,0.20944654405269875,0.1107691646474553
3.374222993850708,-0.019894540309906006,-0.01542598009109497,0.026435256004333496,0.010101382620632648,-0.01308027096092701,0.004598231054842472,-0.676832605668455,0.2091945141404411,0.11074441970164871
3.3837239742279053,-0.021341398358345032,-0.009348750114440918,0.02514517307281494,0.007579103112220764,-0.00941549614071846,0.004831790924072266,-0.6767880158863603,0.2089432423745891,0.1106752504986074
3.3937931060791016,-0.020285800099372864,-0.006482064723968506,0.019192874431610107,0.017286192625761032,-0.003254982642829418,0.008084948174655437,-0.6767122283422377,0.20876672512697317,0.11063804583585521
3.403688907623291,-0.017393290996551514,-0.00799095630645752,0.010153651237487793,0.028539912775158882,0.0066130938939750195,0.013145753182470798,-0.6765337934213373,0.2087250880583985,0.11065473618322401
3.413830041885376,-0.01861324906349182,-0.004136025905609131,0.004804253578186035,0.04444019868969917,0.011399637907743454,0.013907470740377903,-0.6761887400238094,0.20876543766166505,0.11066665888305813
3.424360990524292,-0.01854841411113739,-0.0027550458908081055,0.003968596458435059,0.05244166776537895,0.013898748904466629,0.013972718268632889,-0.6757094288261528,0.208858944952093,0.1106755045282683
3.433887004852295,-0.014637097716331482,-0.0036240220069885254,0.00545579195022583,0.046239595860242844,0.016896136105060577,0.012741537764668465,-0.6752196911726406,0.2089689764539105,0.11066515720840459
3.4440059661865234,-0.011565938591957092,-0.002105116844177246,0.003837287425994873,0.0339198112487793,0.017260989174246788,0.008668234571814537,-0.6748376925341767,0.20909849156566976,0.11065408092070422
3.4537811279296875,-0.01037837564945221,-0.0015372633934020996,0.003872096538543701,0.022658202797174454,0.016191374510526657,0.0030374592170119286,-0.674579468625237,0.2091979106906484,0.11061087505556826
3.463862895965576,-0.011331245303153992,-0.005929172039031982,0.003798246383666992,0.021516505628824234,0.013310100883245468,-0.005101960152387619,-0.6744198394947749,0.2092197151209046,0.110480087430124
3.4744138717651367,-0.011270716786384583,-0.00546109676361084,0.004260599613189697,0.018736932426691055,0.005970073863863945,-0.013602983206510544,-0.6742893877364081,0.2091183487567978,0.11024670064729564
3.483883857727051,-0.008825525641441345,-0.005392134189605713,0.007545590400695801,0.01810336671769619,-0.00298001104965806,-0.017644328996539116,-0.6741620163938716,0.20891210538684207,0.1099540301011334
3.493983030319214,-0.007580235600471497,-0.007758975028991699,0.0071108341217041016,0.021057911217212677,-0.005734873469918966,-0.0180232971906662,-0.6740275849903636,0.20861760094200407,0.10963258880951636
3.5038399696350098,-0.009466245770454407,-0.010313212871551514,0.004453718662261963,0.02318204753100872,-0.002576896920800209,-0.015074113383889198,-0.6738594882763703,0.20832178388284495,0.10931523031862929
3.5138630867004395,-0.01050075888633728,-0.012734711170196533,1.5556812286376953e-05,0.026172062382102013,0.0032573339994996786,-0.00925489328801632,-0.6736582522709635,0.2081241342720738,0.10905914659467689
3.5244059562683105,-0.011370837688446045,-0.010858237743377686,-0.0023893117904663086,0.02899288386106491,0.007862471975386143,-0.0036446782760322094,-0.6734245301211385,0.20802533520545385,0.10886649198211217
3.534008026123047,-0.008430108428001404,-0.009662389755249023,-0.0027450919151306152,0.03774020075798035,0.00890163704752922,-0.004275474697351456,-0.6731245238626751,0.20796040099027546,0.10868836980256173
3.544066905975342,-0.007576927542686462,-0.012732267379760742,-0.002804279327392578,0.03511672094464302,0.0032320336904376745,-0.006903215777128935,-0.6727769376870439,0.20784384979405457,0.10847843217536983
3.553903102874756,-0.004876315593719482,-0.011199951171875,0.0002841949462890625,0.02252870798110962,-0.003027149010449648,-0.011237883009016514,-0.6725150908110061,0.20766056336611627,0.10825337275625506
3.5639548301696777,-0.002425268292427063,-0.011837005615234375,0.002125859260559082,0.005121488124132156,-0.008235760033130646,-0.014950862154364586,-0.6724321858968793,0.20743471672144714,0.10803401428025745
3.5743720531463623,-0.003078669309616089,-0.014854371547698975,0.005817413330078125,-0.010330022312700748,-0.01285505760461092,-0.018839078024029732,-0.672505301354722,0.20716439072338702,0.10780689017717374
3.5839600563049316,-0.0032116174697875977,-0.01663529872894287,0.008090794086456299,-0.014465912245213985,-0.022355616092681885,-0.022389870136976242,-0.672655712575207,0.2067851343232434,0.10753521122105586
3.5942459106445312,-0.0024939030408859253,-0.013364613056182861,0.008722960948944092,-0.00726302620023489,-0.02940509282052517,-0.018304474651813507,-0.6727659842630588,0.20632444659909446,0.10727593353171096
3.603965997695923,-0.004021301865577698,-0.010501742362976074,0.00829702615737915,-6.396928802132607e-05,-0.03391808643937111,-0.008558103814721107,-0.6727928688082161,0.20583261879206632,0.1070750908721611
3.614107131958008,-0.006920769810676575,-0.011078059673309326,0.009041965007781982,0.0100916288793087,-0.03335198387503624,-0.0013833349803462625,-0.672710334772539,0.20540076009130281,0.10697248250060155
3.62428617477417,-0.010514765977859497,-0.015034317970275879,0.009763896465301514,0.015577475540339947,-0.027246156707406044,0.006189629901200533,-0.6725402380397634,0.20506442514404133,0.10695299675548353
3.6340770721435547,-0.016111761331558228,-0.01785290241241455,0.013527750968933105,0.018935654312372208,-0.015473654493689537,0.014316692017018795,-0.6723202104185672,0.20488465663653918,0.10701320112552114
3.6442461013793945,-0.01875118911266327,-0.015411376953125,0.014564454555511475,0.015404835343360901,-0.004566145595163107,0.025524338707327843,-0.6720859776544907,0.20492513020466693,0.10722591484499014
3.6543631553649902,-0.019427508115768433,-0.016663074493408203,0.015409231185913086,0.014601541683077812,0.002588658593595028,0.029587309807538986,-0.6718526808508487,0.20511204437096073,0.10754033381863418
3.6655080318450928,-0.018798381090164185,-0.020660400390625,0.016588449478149414,0.013655055314302444,0.011389074847102165,0.03273862972855568,-0.6716181733111842,0.2054071518486556,0.10789998080699907
3.675441026687622,-0.02006073296070099,-0.01789546012878418,0.018702805042266846,0.013692538253962994,0.01972183957695961,0.03398115560412407,-0.6713997711781167,0.20580359082908947,0.10828836935210802
3.684385061264038,-0.01896822452545166,-0.008746206760406494,0.019421875476837158,0.022104401141405106,0.022173011675477028,0.035688772797584534,-0.671154171055836,0.20624859899947823,0.10868115487830177
3.69441294670105,-0.014667421579360962,-0.0034630894660949707,0.017967939376831055,0.029980048537254333,0.021489333361387253,0.03733780235052109,-0.6708184045951109,0.2066932299630843,0.10906239466746012
3.704378128051758,-0.01066771149635315,-0.001979053020477295,0.013304650783538818,0.028492141515016556,0.02369736135005951,0.03600755333900452,-0.6704433407793169,0.20712583910770965,0.10941611251810121
3.714284896850586,-0.007804840803146362,0.0024698972702026367,0.008420169353485107,0.025642110034823418,0.026878461241722107,0.035378407686948776,-0.670101266186011,0.20757376916409417,0.10976373980287507
3.724508047103882,-0.006043270230293274,0.006089687347412109,0.007378756999969482,0.02608153037726879,0.03183833509683609,0.03119751065969467,-0.6697853869168289,0.2080293834242875,0.11007435435067113
3.734372138977051,-0.005395174026489258,0.007795870304107666,0.009164273738861084,0.021000538021326065,0.03186225891113281,0.02191532962024212,-0.6694970644058954,0.20844909543864187,0.11029527938324431
3.744987964630127,-0.006517559289932251,0.009771883487701416,0.008098363876342773,0.012762845493853092,0.03294003754854202,0.015502171590924263,-0.6692926504926593,0.2088237072977597,0.11044394579442417
3.7541561126708984,-0.004949420690536499,0.01135861873626709,0.005919218063354492,0.005344594828784466,0.030003327876329422,0.009544573724269867,-0.6691762161997328,0.20914686256456266,0.1105301004894053
3.764277935028076,-0.005604982376098633,0.0065146684646606445,0.00812441110610962,0.009912715293467045,0.027794767171144485,0.0006709209410473704,-0.6691265869105588,0.20937644825218132,0.11052000042325401
3.7745800018310547,-0.007992535829544067,0.0022124052047729492,0.008451998233795166,0.017709635198116302,0.024812426418066025,-0.009679081849753857,-0.6690478981146945,0.20953167321641114,0.11039778285887226
3.784173011779785,-0.011107116937637329,0.0037423372268676758,0.00444793701171875,0.027224045246839523,0.02086881920695305,-0.007375180721282959,-0.6688871898577876,0.2096064176116835,0.11019650720348077
3.7942991256713867,-0.009345188736915588,0.004301726818084717,0.002346634864807129,0.03695426881313324,0.01129058189690113,-0.003205949207767844,-0.6686215263201726,0.20963193741474273,0.11001620213983865
3.8042168617248535,-0.009850755333900452,-0.004323363304138184,-0.0018848776817321777,0.03624001145362854,0.004002309404313564,-0.0027673267759382725,-0.6683153610004184,0.20958315126998145,0.10986330420202071
3.814265012741089,-0.012775018811225891,-0.012646794319152832,-0.0003865361213684082,0.02952875941991806,-0.0008200989104807377,0.003381220158189535,-0.668052614469928,0.20951209748508517,0.10975895397993433
3.8243508338928223,-0.015145570039749146,-0.01663196086883545,0.00042003393173217773,0.0076184021309018135,-0.00527077354490757,0.007375428918749094,-0.6679198822039071,0.20945718584915646,0.10974371592877588
3.834291934967041,-0.01764751970767975,-0.01974588632583618,0.0015208125114440918,-0.012410217896103859,-0.006444827653467655,0.010431726463139057,-0.6679991051252605,0.20943011764109384,0.10984245911584503
3.844403028488159,-0.018818959593772888,-0.02507948875427246,0.0028044581413269043,-0.033324286341667175,-0.005157189443707466,0.011765437200665474,-0.6682623316434376,0.20946969308652888,0.11001952271340154
3.85439395904541,-0.020169660449028015,-0.022249221801757812,0.003233671188354492,-0.03926143795251846,-0.004663705825805664,0.011123508214950562,-0.6686417469452983,0.2095437551020686,0.11024314017797787
3.864631175994873,-0.019549518823623657,-0.0183870792388916,0.004162907600402832,-0.02848123013973236,-0.004233072511851788,0.009351175278425217,-0.6689896570002147,0.20956959622160704,0.11042123760964583
3.8765029907226562,-0.0177583247423172,-0.01223909854888916,0.001860976219177246,-0.009026238694787025,-0.007151541765779257,0.01376057043671608,-0.6691859029218368,0.20957501131310188,0.11057584333973552
3.8843488693237305,-0.015161871910095215,-0.0011216402053833008,-0.0007888078689575195,0.009045173414051533,-0.011163061484694481,0.019166521728038788,-0.6691354250314788,0.20954341075782962,0.11073347211420814
3.8944599628448486,-0.012626945972442627,-0.0008038878440856934,-0.0009503960609436035,0.01558278501033783,-0.015663493424654007,0.019513744860887527,-0.6689249357109208,0.20944580674873262,0.11087878406613037
3.904384136199951,-0.011404752731323242,-0.005349457263946533,0.0004818439483642578,0.013040531426668167,-0.015060286968946457,0.014750414527952671,-0.668689550103819,0.20930491881527696,0.11098977966766412
3.914391040802002,-0.011479884386062622,-0.004714608192443848,0.00435250997543335,0.0034444292541593313,-0.01707381382584572,0.011976359412074089,-0.6685221475062636,0.2091162779594424,0.1110563644296256
3.9245080947875977,-0.009252429008483887,-0.0018645524978637695,0.005471944808959961,-0.011543042957782745,-0.01828395389020443,0.007427148055285215,-0.6684681330529058,0.2089089151529421,0.11111825381756385
3.934731960296631,-0.006301984190940857,0.0003612637519836426,0.004786670207977295,-0.01514669880270958,-0.019801955670118332,0.005038611590862274,-0.6685289682035844,0.20867341005959766,0.111160113922991
3.9444849491119385,-0.004038766026496887,0.0020696520805358887,0.0039504170417785645,-0.009062707424163818,-0.024712825194001198,-0.00395488366484642,-0.6686074628626577,0.20836212869993143,0.11112339377454164
3.954451084136963,-0.0029982179403305054,0.0061740875244140625,0.0033957958221435547,0.0032784307841211557,-0.028833933174610138,-0.01075984537601471,-0.668627157139017,0.20794421076668745,0.11098903475598552
3.9644861221313477,-0.0015709251165390015,0.011442899703979492,0.0032897591590881348,0.01578543521463871,-0.03612273931503296,-0.017428668215870857,-0.6685630428539004,0.20742600172424638,0.11074259130548361
3.9752659797668457,0.00031210482120513916,0.01074296236038208,0.004021584987640381,0.03382743522524834,-0.037442646920681,-0.02346845157444477,-0.6683856030065386,0.20677255609200132,0.11037597024507367
