timestamp,accel_x,accel_y,accel_z,rotation_x,rotation_y,rotation_z, pitch,roll,yaw
0.04597783088684082,0.009911969304084778,-0.004255315288901329,0.019911110401153564,-0.02235041745007038,-0.021264752373099327,0.004708992782980204,-0.00982492651233396,0.17011462644197084,0.0008377097514709618
0.05909609794616699,0.007470369338989258,-0.0020877867937088013,0.017761290073394775,-0.018171384930610657,-0.018537407740950584,0.005195552483201027,-0.010007259305017606,0.16991385790803407,0.0009172010979981781
0.06318998336791992,0.007315337657928467,-0.001742856577038765,0.016748011112213135,-0.00858292169868946,-0.0127487163990736,0.007280647289007902,-0.01015061656591497,0.16976175829950443,0.0009975124272687702
0.06412482261657715,0.00704626739025116,-0.0003148447722196579,0.008282959461212158,-0.0015622969949617982,-0.01130475103855133,0.004281395580619574,-0.010187452379546557,0.1696477993755129,0.0010689468485496195
0.07089805603027344,0.006511479616165161,0.003009691834449768,0.0035278797149658203,0.0023298964370042086,-0.01237698458135128,0.00431377999484539,-0.010174072218161682,0.16952466492413082,0.0011071560878182407
0.07831692695617676,0.0047770291566848755,0.0029189977794885635,0.00662684440612793,0.0012963234912604094,-0.008866937831044197,0.0014857689384371042,-0.010157953811797564,0.1694266118608138,0.0011335027191012117
0.08832287788391113,0.0037578046321868896,-2.9355287551879883e-06,0.006170094013214111,-0.0009506356436759233,-0.010425464250147343,-0.0006347997114062309,-0.010150198740029863,0.16933056095128973,0.001144959227193429
0.09836697578430176,0.003956884145736694,-0.0010444354265928268,0.00869286060333252,-0.010571571066975594,-0.014026058837771416,-0.004767493344843388,-0.010215139711834034,0.16920608671181628,0.0011301135322069294
0.10837602615356445,0.0042295753955841064,-0.001891070045530796,0.009632408618927002,-0.016539348289370537,-0.015462743118405342,-0.004090198315680027,-0.010375137198740786,0.1690535665261191,0.0011129063490024496
0.11969494819641113,0.00535959005355835,-0.004803907126188278,0.008479833602905273,-0.007938669994473457,-0.015247294679284096,-0.001952478545717895,-0.010495620908655969,0.16891355939872993,0.0010934057329130623
0.12836909294128418,0.0062770843505859375,-0.0008710529655218124,0.006478488445281982,-0.009247880429029465,-0.020006362348794937,7.205642759799957e-05,-0.010575834130544167,0.16874145704015028,0.0010994352969878804
0.13837504386901855,0.0050473809242248535,0.0023270277306437492,0.006173610687255859,-0.017597954720258713,-0.018670255318284035,-0.00046723359264433384,-0.010704177500363279,0.1685495851323028,0.001116638723822492
0.14836597442626953,0.005743801593780518,-0.0015888754278421402,0.006626904010772705,-0.012452378869056702,-0.013489031232893467,0.0006017060950398445,-0.010851168979431414,0.16838516114514085,0.0011319399183537119
0.15832996368408203,0.0033045560121536255,-0.0024847500026226044,0.006826877593994141,-0.01659625768661499,-0.00899761077016592,0.0012070427183061838,-0.010999371193232573,0.1682748842589563,0.0011698734591960246
0.16919398307800293,0.0026839226484298706,0.0005164472386240959,0.004903256893157959,-0.019216742366552353,-0.0119341891258955,-0.005941255018115044,-0.011187272334017473,0.16817732263465612,0.001182913075320971
0.17865300178527832,0.0054262131452560425,0.0012669814750552177,0.006157517433166504,-0.007805362343788147,-0.010904345661401749,-0.008372187614440918,-0.011337015247004253,0.16805813488244953,0.001131568773640461
0.18872594833374023,0.0041563063859939575,0.0005338927730917931,0.008084297180175781,-0.0028502517379820347,-0.01207125373184681,-0.00953577645123005,-0.011398721529578383,0.16793791793642845,0.001044945996375547
0.19869399070739746,0.0012850910425186157,0.0018910737708210945,0.009116888046264648,-0.010644791647791862,-0.010366030968725681,-0.012090812437236309,-0.011369052469457287,0.16787853290582241,0.0009443813339722585
0.20854902267456055,0.00259476900100708,-0.0012526912614703178,0.00668412446975708,-0.011200077831745148,-0.011429564096033573,-0.012610554695129395,-0.011476325914997872,0.16781946079714788,0.0008452867628047973
0.21875691413879395,0.007091328501701355,-0.00355604849755764,0.004970729351043701,-0.002594871213659644,-0.012707083486020565,-0.008840851485729218,-0.011582426534517971,0.16774713607312128,0.0007491211854425981
0.2288048267364502,0.005470439791679382,-0.0023618806153535843,0.006127357482910156,-0.004221413284540176,-0.011476391926407814,-0.007811538875102997,-0.011593701868766215,0.16767327036726618,0.0006765009388173428
0.23882603645324707,0.005491867661476135,-0.0011889943853020668,0.006754040718078613,-0.007244899868965149,-0.01314113475382328,-0.006750802509486675,-0.011611003431234805,0.16757418680078995,0.0006134806427867958
0.24878501892089844,0.008133649826049805,-0.002579411491751671,0.0075171589851379395,0.00045020366087555885,-0.013025198131799698,-0.006354630924761295,-0.011643389842718536,0.16747936039399894,0.0005475805170431831
0.2585740089416504,0.007093295454978943,-0.003945696167647839,0.007622897624969482,-0.007861788384616375,-0.01400204561650753,-0.005556747317314148,-0.011712682147939432,0.16738942362638728,0.0004955253740649492
0.2687690258026123,0.00579342246055603,-0.0030342908576130867,0.007822036743164062,-0.01563156023621559,-0.015512589365243912,-0.005550622008740902,-0.011838883812612085,0.16728426395803156,0.00045932678624813114
0.2785928249359131,0.00928446650505066,-0.006588016636669636,0.007369101047515869,-0.016987908631563187,-0.014970369637012482,-0.005022251047194004,-0.012050949478391242,0.16714868960036017,0.0004346630396248963
0.2885580062866211,0.009305238723754883,-0.005834874697029591,0.007903575897216797,-0.001964750699698925,-0.013347972184419632,-0.0001912768930196762,-0.012106527099786947,0.16705034672780453,0.0004210937649898847
0.298565149307251,0.006592541933059692,-0.006676810793578625,0.00674283504486084,0.0006054660771042109,-0.01328086107969284,0.002790398197248578,-0.012048190414784905,0.16696943867287126,0.0004350258573390108
0.3088219165802002,0.0081387460231781,-0.0031877905130386353,0.006395995616912842,-0.003290155902504921,-0.018045920878648758,0.005166950169950724,-0.012007653760529983,0.16685588385955497,0.0004823503732142174
0.3192780017852783,0.00984443724155426,-0.0039873141795396805,0.0071604251861572266,-0.014700734987854958,-0.012002411298453808,0.004146692808717489,-0.01205950041385126,0.16675101281178592,0.0005396572803544597
0.3287630081176758,0.008196011185646057,-0.008666343986988068,0.01066809892654419,-0.02345319837331772,0.0006947871297597885,0.00650875736027956,-0.0122066793469237,0.16675177570208702,0.0006279366413660875
0.33878016471862793,0.004357323050498962,-0.01119010429829359,0.011499345302581787,-0.012615996412932873,0.011460348963737488,0.006742582656443119,-0.012304299188581433,0.16688462594544162,0.0007244872328573807
0.34882616996765137,0.002497643232345581,-0.00469024945050478,0.008455634117126465,0.005918888840824366,0.0032944316044449806,0.0022759288549423218,-0.012274170023978006,0.16702193898573925,0.0007801408128852254
0.35892796516418457,0.006811216473579407,0.005411186255514622,0.0062348246574401855,0.017229067161679268,-0.0012475899420678616,-0.0026804800145328045,-0.012045154915156222,0.16708810930373771,0.0007589950867502056
0.37204504013061523,0.011548161506652832,0.0068538598716259,0.0066664814949035645,0.024595919996500015,0.0073320940136909485,-0.009654659777879715,-0.011762128062992924,0.1671735546359826,0.0006683716968153282
0.37899184226989746,0.0060615986585617065,0.0023631099611520767,0.007698357105255127,0.018618188798427582,0.010966775938868523,-0.011273594573140144,-0.011446338481901594,0.16732101152518342,0.0005265411258597584
0.38916993141174316,0.0032872259616851807,0.0011232635006308556,0.004030168056488037,0.0016189985908567905,0.0037926649674773216,-0.017373565584421158,-0.011328144865750343,0.16745730189115365,0.0003713517288067208
0.39894700050354004,0.00849643349647522,0.0016338322311639786,0.008931875228881836,0.001243759412318468,-0.0019970471039414406,-0.020500384271144867,-0.011305855887885767,0.16752859106770548,0.00018294239063400356
0.4088728427886963,0.01090046763420105,0.0005395105108618736,0.011996567249298096,0.007654952816665173,-0.003584114369004965,-0.021140925586223602,-0.011179467473340289,0.1675507841951959,-3.47368919908343e-05
0.41962313652038574,0.007128909230232239,0.005543071776628494,0.010457217693328857,0.0077452342957258224,-0.003463739063590765,-0.020929737016558647,-0.010982412952228762,0.16755309714914268,-0.0002500973669794649
0.4332258701324463,0.006661027669906616,0.006850716657936573,0.0061740875244140625,0.009881854988634586,-0.004810855258256197,-0.019932489842176437,-0.010880205336405772,0.16753220349463774,-0.00046074951693544583
0.43963003158569336,0.009741932153701782,0.005314710550010204,0.007165729999542236,0.015166631899774075,-0.003227073233574629,-0.01802966371178627,-0.010875072983116988,0.16753357885145975,-0.0006743985036143669
0.44877099990844727,0.00674593448638916,0.004271084442734718,0.010450124740600586,0.009476589038968086,0.0028266473673284054,-0.014246482402086258,-0.010896362154746155,0.1676009002261297,-0.0008531815947564954
0.45865893363952637,0.004155069589614868,0.005725414492189884,0.012955725193023682,0.008978843688964844,0.004428272135555744,-0.01365526020526886,-0.010876356563754,0.16767506153645254,-0.0010199150364343813
0.46886205673217773,0.004597142338752747,0.006638150662183762,0.012030243873596191,0.009069541469216347,0.00418437086045742,-0.015200372785329819,-0.01083336953734289,0.16773733704098714,-0.0011823762583983838
0.47886013984680176,0.003258645534515381,0.007031689397990704,0.010306596755981445,0.004752557259052992,0.0033657150343060493,-0.019676081836223602,-0.0108212992546147,0.1678258306679615,-0.0013602184513836315
0.48899388313293457,0.0031917691230773926,0.00569866131991148,0.010839343070983887,0.002807450946420431,0.0006792075000703335,-0.0209948793053627,-0.01082681388279623,0.16792464204636093,-0.0015719945749453526
0.4989800453186035,0.0024172961711883545,0.005897980183362961,0.014477729797363281,-0.0044957357458770275,-0.0015501249581575394,-0.02122337743639946,-0.010947935337759855,0.16796752136259274,-0.0017785840870340114
0.5090768337249756,0.0028992295265197754,0.008670547045767307,0.014209628105163574,-0.009478377178311348,0.0021395960357040167,-0.02480730041861534,-0.011166105566700068,0.16800531406925936,-0.001989129789670288
0.5189659595489502,0.0037527233362197876,0.0050644949078559875,0.011307895183563232,-0.005044746212661266,0.003981970716267824,-0.02509758435189724,-0.011354199425475138,0.16809954817266048,-0.0022229009306867376
0.5289051532745361,0.0022284090518951416,0.0033301645889878273,0.009762585163116455,-0.0021650369744747877,0.007340749725699425,-0.02321707457304001,-0.011486366643142386,0.16820658155406587,-0.002458406882724069
0.5388810634613037,0.004457622766494751,0.008231066167354584,0.007945358753204346,0.0014989401679486036,0.005373738706111908,-0.02184048667550087,-0.011605613923976396,0.16829822860245647,-0.0026772030058693696
0.548907995223999,0.006684526801109314,0.00615049060434103,0.006324291229248047,0.014350573532283306,0.007623622193932533,-0.0229615718126297,-0.011656773901593476,0.1684075716330975,-0.00292209847622433
0.5589621067047119,0.008648067712783813,0.005925617180764675,0.007528841495513916,0.012425374239683151,0.007283269893378019,-0.021470999345183372,-0.011637505452377142,0.1685053051969024,-0.003171641312796706
0.5689890384674072,0.007430285215377808,0.005103755742311478,0.008502960205078125,0.010697032324969769,0.00903966836631298,-0.023177659139037132,-0.01163539321832782,0.16861069173097123,-0.003424381905987234
0.5789330005645752,0.010518103837966919,0.0029888879507780075,0.00848543643951416,0.007656501606106758,0.0067802430130541325,-0.02478194795548916,-0.0116598082242044,0.16871347477572168,-0.003675853940050773
0.5889849662780762,0.010019391775131226,-0.0003884481266140938,0.008176982402801514,0.004553052596747875,0.008862213231623173,-0.0240090973675251,-0.011756510651315326,0.168817137570299,-0.0039249894827888335
0.5989689826965332,0.009689927101135254,-0.0010732943192124367,0.004847824573516846,0.0025386379566043615,0.005295175593346357,-0.021107850596308708,-0.011831011646922934,0.16891932482609834,-0.00414699199691975
0.6089699268341064,0.012002289295196533,-0.002574739046394825,0.0028569698333740234,-0.000920392107218504,-0.0019220351241528988,-0.018389562144875526,-0.011898135196707358,0.16895750572194942,-0.004336967744043833
0.6204111576080322,0.013439372181892395,-0.004169655963778496,0.004945933818817139,-0.004069846123456955,-0.002470646519213915,-0.013964187353849411,-0.012058736065407393,0.16895501954167408,-0.004490219303709771
0.6290199756622314,0.013195246458053589,-0.0071477387100458145,0.004788637161254883,-0.01055194716900587,-0.0031868591904640198,-0.012113289907574654,-0.012229213788798111,0.16897084700875312,-0.004607662863931767
0.6390299797058105,0.01243823766708374,-0.00760483555495739,0.00180894136428833,-0.012473683804273605,-0.004674234427511692,-0.014443289488554,-0.012442187962883409,0.1689807635240881,-0.004721368375272424
0.6490018367767334,0.0147000253200531,-0.010443194769322872,-0.0012447237968444824,-0.012968698516488075,-0.005822767037898302,-0.01544953789561987,-0.012640790605959663,0.16897763035727492,-0.004855091397162974
0.6600019931793213,0.014340624213218689,-0.01063369307667017,-0.0018698573112487793,-0.028514103963971138,-0.009652659296989441,-0.014751257374882698,-0.012892344581476589,0.16895581600050216,-0.004971376681585744
0.6692819595336914,0.011058226227760315,-0.008916954509913921,0.001874685287475586,-0.030886296182870865,-0.014195611700415611,-0.007909649983048439,-0.013189793125022987,0.1688963338676896,-0.005033778992132476
0.6791870594024658,0.010684490203857422,-0.007113694213330746,0.00828641653060913,-0.030481496825814247,-0.024988338351249695,-0.007002577185630798,-0.01347701087498466,0.16876529191719367,-0.005056919446430011
0.6892549991607666,0.008436709642410278,-0.00219529215246439,0.01304847002029419,-0.03144769370555878,-0.030576715245842934,-0.0035055805929005146,-0.013746622237362024,0.1685540118311385,-0.005063209403775651
0.6992900371551514,0.006883963942527771,-0.0001657409593462944,0.010548830032348633,-0.03545202314853668,-0.027460819110274315,-0.008294477127492428,-0.01400591320585467,0.16833420005085023,-0.005061655807684501
0.709259033203125,0.0029157698154449463,-0.003332267515361309,0.013516545295715332,-0.02550111897289753,-0.019165337085723877,-0.00046984339132905006,-0.014212256428166559,0.16818083756947297,-0.005054285011905185
0.7194900512695312,-0.0011527836322784424,-0.0004778718575835228,0.01385498046875,-0.016797374933958054,-0.018198875710368156,0.0030071798246353865,-0.014287556236356221,0.16806704649987333,-0.004996907563559624
0.7291748523712158,-0.0014180392026901245,0.005542864091694355,0.01719433069229126,-0.0037079392932355404,-0.012005960568785667,0.006810439750552177,-0.014217740164436738,0.16799542543116858,-0.004930069785820744
0.7393050193786621,-0.003346487879753113,0.0018491605296730995,0.021086513996124268,-0.0014824356185272336,-0.0032374151051044464,0.00975232757627964,-0.014066214729298632,0.16800099200999422,-0.004854630285888139
0.7493240833282471,-0.003644108772277832,0.000838935375213623,0.02118295431137085,-0.008505075238645077,0.004755574744194746,0.012504437938332558,-0.013977798513250223,0.16807050171483837,-0.004738516029618637
0.7593560218811035,-0.004308730363845825,0.0010036006569862366,0.01908057928085327,-0.01271047256886959,0.013269433751702309,0.010878577828407288,-0.013965717395489149,0.1682338683370591,-0.004600189510329392
0.7694661617279053,-0.0003536641597747803,0.001075473614037037,0.017215609550476074,-0.008166071027517319,0.011555468663573265,0.014465643092989922,-0.014015921451175996,0.1684321465851084,-0.004464622298118519
0.7793481349945068,0.0011020749807357788,0.006168132647871971,0.017309248447418213,-0.012379458174109459,0.01025957427918911,0.01584409549832344,-0.014080740564176172,0.16859633879099306,-0.00428497735030206
0.7893819808959961,0.005636394023895264,0.00968892965465784,0.01475369930267334,-0.03243853896856308,0.006905988324433565,0.009446969255805016,-0.014237325939467515,0.16871804210402894,-0.004120733523262453
0.7993769645690918,0.006887644529342651,0.010032391175627708,0.014398813247680664,-0.055207498371601105,0.008513472974300385,0.0069031184539198875,-0.014656848256674149,0.16879646247321847,-0.00396124701701513
0.809438943862915,0.006478831171989441,0.01057043019682169,0.018191635608673096,-0.06298138201236725,0.0038539618253707886,0.009629395790398121,-0.015278546639265941,0.16887223334162466,-0.003781464772218
0.8199880123138428,0.005582407116889954,0.01342036947607994,0.019137203693389893,-0.0790727362036705,0.004709102679044008,0.0021214124280959368,-0.0159839934916247,0.1689011706326871,-0.0035969040396590895
0.8294961452484131,0.0057033151388168335,0.012308834120631218,0.01822763681411743,-0.09002060443162918,0.008758661337196827,-0.008891345001757145,-0.016820981316767143,0.16896662080501387,-0.003488868374875654
0.839461088180542,0.0058940500020980835,0.0066602155566215515,0.012683451175689697,-0.0984223484992981,-0.0015586912631988525,-0.009339287877082825,-0.01777003298373626,0.16899263332877051,-0.0034245544620474925
0.8493280410766602,0.008419275283813477,0.013384921476244926,0.014136016368865967,-0.10723351687192917,-0.0050806328654289246,-0.005687401629984379,-0.018781701897864076,0.16895718639902793,-0.0033341287262957813
0.8594110012054443,0.009640440344810486,0.008435720577836037,0.011596381664276123,-0.11901187896728516,-9.57283191382885e-05,-0.00685093691572547,-0.01990115732491363,0.16896042244970255,-0.0031993834515552004
0.8704440593719482,0.008532434701919556,0.004778765141963959,0.015075743198394775,-0.14649741351604462,-0.0026432634331285954,-0.012115420773625374,-0.02126958575856929,0.16897473553749645,-0.003069115844437901
0.879601001739502,0.006366565823554993,-0.0016625169664621353,0.023001015186309814,-0.18241971731185913,0.0017275165300816298,-0.018806880339980125,-0.022935273689737204,0.1689956094161102,-0.0029282995615781703
0.8895289897918701,0.006700083613395691,-0.009914988651871681,0.027060866355895996,-0.2109312117099762,0.0062513393349945545,-0.029818996787071228,-0.02496274162030346,0.1690680301948094,-0.0028318007003041517
0.8995909690856934,0.005104944109916687,-0.011578692123293877,0.027542531490325928,-0.247466579079628,-0.011557750403881073,-0.03651924431324005,-0.027268098804794604,0.16911761799424085,-0.0027778874544234
0.9098670482635498,0.005712836980819702,-0.008479777723550797,0.024461865425109863,-0.20799517631530762,0.01161392405629158,-0.026548583060503006,-0.029831240942342376,0.16913262182761774,-0.002760897265356626
0.9198939800262451,0.005873203277587891,0.00027724355459213257,0.02205502986907959,-0.23578499257564545,-0.01949232816696167,-0.039659589529037476,-0.03186314882530891,0.16910445195781748,-0.002596540140259742
0.9296250343322754,0.009178400039672852,-0.009107470512390137,0.015276670455932617,-0.24976755678653717,-0.027794554829597473,-0.058293089270591736,-0.03438278827005369,0.16890792156068515,-0.002738687601835052
0.9411840438842773,0.018764734268188477,-0.016834352165460587,0.0020056962966918945,-0.24597015976905823,-0.010379080660641193,-0.047585051506757736,-0.036908032054966386,0.16871805367242249,-0.0028365112926992727
0.9495680332183838,0.010028988122940063,-0.0077814981341362,-0.003174304962158203,-0.2350919395685196,-0.003663342911750078,-0.03595838323235512,-0.03923992386044846,0.16869454658679592,-0.0028350240207391216
0.9595339298248291,-0.0022439509630203247,-0.0010797567665576935,0.008209705352783203,-0.25389569997787476,-0.009604854509234428,-0.03224700316786766,-0.04155801926261496,0.1686844741535364,-0.0027521093449551946
0.9699289798736572,0.0060714781284332275,-0.011585209518671036,-0.0021390914916992188,-0.26323607563972473,-0.023941805586218834,-0.043067533522844315,-0.04393270599548265,0.1685629465825362,-0.002676494275234338
0.9795329570770264,0.01455870270729065,-0.012400854378938675,-0.004071712493896484,-0.2574221193790436,-0.02288719452917576,-0.04334237053990364,-0.046291891387042726,0.16836075425796893,-0.002682505482836261
0.989617109298706,0.008980289101600647,-0.015010103583335876,-0.009913384914398193,-0.22618451714515686,-0.0207010917365551,-0.03259646147489548,-0.04844579445330789,0.16820127656707748,-0.0026381492257650926
1.0003411769866943,0.007064253091812134,-0.004883952438831329,-0.01774001121520996,-0.21197575330734253,-0.03929581865668297,-0.034265998750925064,-0.05043755379332192,0.16797887884683507,-0.00260215818188096
1.0116300582885742,0.011809483170509338,-0.0018049627542495728,-0.013994336128234863,-0.2356833815574646,-0.04439133405685425,-0.03121284209191799,-0.052365995129293054,0.16762401528497498,-0.002547344504914017
1.0218250751495361,0.012783780694007874,-0.0111519955098629,-0.011017799377441406,-0.2784721255302429,-0.04390104487538338,-0.03511011227965355,-0.054559790500095635,0.16728973864533703,-0.002439951718937366
1.0297479629516602,0.008917093276977539,-0.019844945520162582,-0.008410811424255371,-0.31363019347190857,-0.05318659916520119,-0.03181823343038559,-0.05724497332129597,0.16687193790935503,-0.002274328406430789
1.0397000312805176,0.005746886134147644,-0.018661804497241974,-0.0030353665351867676,-0.3476147949695587,-0.06103413552045822,-0.04060746356844902,-0.060354929116237986,0.1663100297297772,-0.002083284307651606
1.0497448444366455,0.005470350384712219,-0.017902694642543793,-0.0021466612815856934,-0.3838966190814972,-0.05682549625635147,-0.04306358844041824,-0.06373746030714729,0.16577362030188209,-0.001890627672360459
1.0598480701446533,0.006371065974235535,-0.019713789224624634,-0.002649545669555664,-0.4299490451812744,-0.06549914926290512,-0.04606577008962631,-0.06781567399099114,0.16518236751379878,-0.0016648548171176955
1.0701310634613037,0.006287038326263428,-0.024170801043510437,0.0025003552436828613,-0.4968142509460449,-0.06057398393750191,-0.058458417654037476,-0.07248253356831469,0.1645624981676465,-0.0014216151254668084
1.07989501953125,0.002556905150413513,-0.02902119606733322,0.00988703966140747,-0.5578432679176331,-0.05609321594238281,-0.06495094299316406,-0.0778210289607422,0.1640002939789457,-0.0011771953037642308
1.0897719860076904,0.0023849308490753174,-0.027357548475265503,0.00899815559387207,-0.5797066688537598,-0.05569059029221535,-0.06691102683544159,-0.08357663054251786,0.16346073756846916,-0.0008962443364970585
1.0999360084533691,0.004276737570762634,-0.021555215120315552,0.007003664970397949,-0.5811501145362854,-0.0628715455532074,-0.06320097297430038,-0.08940804463084415,0.16290787380654648,-0.0006046740217466828
1.1102468967437744,0.00465431809425354,-0.015185035765171051,0.007805824279785156,-0.6172969937324524,-0.06141621246933937,-0.07271549105644226,-0.09540783477852295,0.1623042287221821,-0.00030221151177765827
1.1204931735992432,0.00443442165851593,-0.016218364238739014,0.016663074493408203,-0.6770961284637451,-0.05537589639425278,-0.08063546568155289,-0.10190489336603915,0.16174764822615365,-2.6423328152650934e-05
1.1298229694366455,0.0031534582376480103,-0.024605169892311096,0.01889091730117798,-0.7765459418296814,-0.05888083949685097,-0.08902686834335327,-0.1092185364236612,0.1611890363954576,0.0003142554504209061
1.1398520469665527,0.004152551293373108,-0.03174944967031479,0.02675384283065796,-0.8997770547866821,-0.047794364392757416,-0.09656574577093124,-0.11763764463819933,0.1607149884646552,0.000745484551933149
1.149919033050537,0.003363892436027527,-0.046715766191482544,0.03653353452682495,-1.0539714097976685,-0.052652012556791306,-0.10486559569835663,-0.1274283622690842,0.16029787336050527,0.0013230459644169399
1.1600329875946045,0.006107538938522339,-0.05283278226852417,0.04070591926574707,-1.2215555906295776,-0.05647897720336914,-0.12334420531988144,-0.13886519643012443,0.15984645402247347,0.002020654187605564
1.1700830459594727,0.009627148509025574,-0.05861963331699371,0.04917377233505249,-1.4229124784469604,-0.06723503768444061,-0.1314144879579544,-0.15210091840344936,0.15935165586102665,0.002887137148540994
1.1799790859222412,0.011283427476882935,-0.0667600929737091,0.04747796058654785,-1.6554943323135376,-0.08321534097194672,-0.1600719690322876,-0.16753352763400525,0.1587873032741597,0.0039147710077545835
1.189939022064209,0.012719482183456421,-0.07318389415740967,0.05137968063354492,-1.9471099376678467,-0.08380003273487091,-0.2076227068901062,-0.1855753042699112,0.1581226048027611,0.004953096942716788
1.1999671459197998,0.009701550006866455,-0.0928787887096405,0.05814158916473389,-2.3042142391204834,-0.06339302659034729,-0.260989785194397,-0.20691620611694966,0.157581481665054,0.005997902357697164
1.2102010250091553,0.009138017892837524,-0.1176442950963974,0.05964231491088867,-2.7454135417938232,-0.05461498349905014,-0.3038593828678131,-0.2323074749869129,0.1572452197630101,0.007181259166932202
1.220181941986084,0.015357449650764465,-0.14397478103637695,0.07462316751480103,-3.2721378803253174,-0.13649174571037292,-0.3582019805908203,-0.2624718552637587,0.15675262641485826,0.008664004934626225
1.2298848628997803,0.0323101282119751,-0.15576663613319397,0.09323000907897949,-3.892962694168091,-0.24675965309143066,-0.4319268465042114,-0.2984847102100209,0.15534618457470625,0.010413779397797411
1.2399771213531494,0.05411668121814728,-0.1513093113899231,0.09369444847106934,-4.502830982208252,-0.35098034143447876,-0.517202615737915,-0.34075752098915624,0.15288138228412992,0.012252782950981434
1.2500169277191162,0.04800820350646973,-0.20204180479049683,0.07733213901519775,-5.048347473144531,-0.2884800434112549,-0.5693739056587219,-0.38886165362231323,0.15023895040377577,0.014216538197351884
1.2600369453430176,0.0326019823551178,-0.23574894666671753,0.048089802265167236,-5.612862586975098,-0.2723809480667114,-0.6292062997817993,-0.44257640682070104,0.14841899342086814,0.01642626605466331
1.270137071609497,0.026081740856170654,-0.13294008374214172,-0.006662726402282715,-6.053760528564453,-0.31782248616218567,-0.6389711499214172,-0.5014041926095276,0.14663307801484307,0.018956935138545704
1.2799961566925049,0.03391200304031372,-0.10046941041946411,-0.023399710655212402,-6.522420883178711,-0.27618396282196045,-0.596771776676178,-0.5645005906699293,0.14536890678818776,0.022483499750626284
1.2900340557098389,0.026069052517414093,-0.14148569107055664,-0.04898834228515625,-6.975876331329346,-0.22238489985466003,-0.6017348170280457,-0.6322530587238575,0.14558382067848774,0.02721535303038016
1.299940824508667,0.0044516026973724365,-0.0576358437538147,-0.049642205238342285,-7.067531108856201,-0.20858599245548248,-0.5623056888580322,-0.7029516910789336,0.14699428738369036,0.03288832987864143
1.3102390766143799,-0.004559218883514404,-0.03201758861541748,-0.009130775928497314,-6.987523555755615,-0.246934711933136,-0.5501559972763062,-0.7733718397296925,0.1492430814494564,0.039587700425434136
1.3207480907440186,-0.009778089821338654,-0.10026192665100098,0.0009403228759765625,-6.772563457489014,-0.31412413716316223,-0.5938991904258728,-0.8424914548473543,0.15132518677340795,0.04635342686845872
1.330064058303833,-0.029149368405342102,-0.08839201927185059,0.005320191383361816,-6.420527935028076,-0.40598851442337036,-0.5989724397659302,-0.9087067787399213,0.15267558379208968,0.05273118756870136
1.3401260375976562,-0.029000140726566315,-0.04946523904800415,-0.023158013820648193,-6.016478061676025,-0.5273306369781494,-0.5533767342567444,-0.9712709751078139,0.15307795631287857,0.05907906349089172
1.3501150608062744,-0.002817004919052124,-0.028018295764923096,-0.08114129304885864,-5.477220058441162,-0.6387507915496826,-0.4807443618774414,-1.0289711977354927,0.1529648577152474,0.06581753578260391
1.360140085220337,0.017121300101280212,-0.05915963649749756,-0.13015252351760864,-4.804908275604248,-0.7123861312866211,-0.4340223968029022,-1.0805864010679858,0.15200000993990573,0.07257059909412765
1.3710930347442627,0.02130717784166336,-0.05191981792449951,-0.16108614206314087,-3.9558920860290527,-0.617678701877594,-0.3672594428062439,-1.1245261460177218,0.15045269547802972,0.07834039389136016
1.3801591396331787,0.007848389446735382,0.03466838598251343,-0.17591774463653564,-3.2638168334960938,-0.49815285205841064,-0.19663311541080475,-1.1606257272510216,0.1505146683552692,0.08453394777381106
1.391042947769165,-0.01221580058336258,0.11853957176208496,-0.11890438199043274,-2.9439809322357178,-0.43007975816726685,-0.07419530302286148,-1.1912668511941709,0.15405036477108583,0.09337548596696062
1.4001171588897705,-0.02810712531208992,0.07448148727416992,-0.018726706504821777,-3.027454137802124,-0.40472275018692017,-0.06644177436828613,-1.22066507516114,0.16038357773225842,0.1046018397622288
1.4103050231933594,-0.03749536722898483,-0.06517118215560913,0.057547420263290405,-3.2516093254089355,-0.3616366982460022,-0.08927290141582489,-1.2518633741982998,0.1692473405802095,0.11806264224918081
1.4204139709472656,-0.03930618613958359,-0.1651144027709961,0.0784454345703125,-3.306718111038208,-0.3141496181488037,-0.14283733069896698,-1.2845263405884855,0.18054272984439962,0.13343147671373118
1.4301788806915283,-0.035555627197027206,-0.14455687999725342,0.05745978653430939,-3.1270594596862793,-0.30972886085510254,-0.13530206680297852,-1.316577421415942,0.19423225991657705,0.1508229166333043
1.4403059482574463,-0.017542868852615356,-0.04268646240234375,0.03379896283149719,-2.8209493160247803,-0.31946882605552673,-0.09885457158088684,-1.3460279225325622,0.21089455043057026,0.17122616686628594
1.450153112411499,0.022894226014614105,0.03690534830093384,-0.003889739513397217,-2.4792325496673584,-0.30826589465141296,-0.03026752732694149,-1.3720849796089485,0.23184226663959412,0.195885173666194
1.460292100906372,0.03826725855469704,0.07745134830474854,-0.028486669063568115,-2.180006980895996,-0.3142484128475189,0.014882374554872513,-1.3946702384466967,0.2582926941922835,0.2259704392798684
1.47062087059021,0.039222121238708496,0.08434778451919556,-0.03736776113510132,-2.0039069652557373,-0.32845523953437805,0.03509976342320442,-1.4146987908691737,0.29001017325444595,0.2614307023602167
1.48048996925354,0.04630425199866295,0.04081231355667114,-0.05024327337741852,-1.9113072156906128,-0.3098117709159851,0.04682246595621109,-1.4331710520211225,0.329873063137481,0.304963637041056
1.4918148517608643,0.04078385606408119,0.014378190040588379,-0.04693157970905304,-1.896554708480835,-0.27520421147346497,0.05350311100482941,-1.4507976566962797,0.381531788841511,0.3599896886415209
1.5004289150238037,0.02518165484070778,0.007359802722930908,-0.021454036235809326,-1.974161982536316,-0.2602902352809906,0.06491582095623016,-1.4682414293369142,0.45387483247399446,0.4354700596973071
1.5107591152191162,0.02208823710680008,-0.003283977508544922,0.00020581483840942383,-2.0939431190490723,-0.23724506795406342,0.03062000498175621,-1.4857646631618557,0.5614540714327603,0.5460020687043602
1.5216639041900635,0.019919581711292267,-0.049316585063934326,-0.0005586221814155579,-2.1426258087158203,-0.18337811529636383,0.053163666278123856,-1.5026788695894409,0.7305474854006423,0.717661212963858
1.5305390357971191,0.0029887445271015167,-0.05881655216217041,0.014404775574803352,-1.97526216506958,-0.19350814819335938,0.030152034014463425,-1.5159898868297979,0.9889087800810776,0.9783880192357857
1.5407421588897705,0.0036554113030433655,-0.014864742755889893,0.038147568702697754,-1.6345844268798828,-0.22107373178005219,0.074774369597435,-1.5230051384525272,1.3156897009161044,1.3076487108044166
1.5503439903259277,0.011291302740573883,0.04454392194747925,0.04507577419281006,-1.237426996231079,-0.2669869363307953,0.1259881854057312,-1.5235177974380512,1.6172760528941503,1.6120287699396703
1.5603759288787842,0.030673153698444366,0.09714829921722412,0.012608288787305355,-0.8709632754325867,-0.27749523520469666,0.1494210660457611,-1.5205481661911067,1.8224809264766046,1.8202405760606284
1.570728063583374,0.02835988625884056,0.08822202682495117,-0.008671168237924576,-0.6307578682899475,-0.254233717918396,0.16369061172008514,-1.5167388435634654,1.946821087808067,1.947410286460109
1.5803930759429932,-0.003297559916973114,0.047529637813568115,0.006336331367492676,-0.5576887130737305,-0.27710282802581787,0.17114213109016418,-1.512874507722228,2.026826259102789,2.030187989551356
1.5905389785766602,-0.006548773497343063,0.016989707946777344,0.03595268726348877,-0.6695496439933777,-0.31883156299591064,0.18640096485614777,-1.5084229539174656,2.0975924313204874,2.1040621363385994
1.6005220413208008,0.01024739071726799,-0.024647057056427002,0.05525863170623779,-0.9134706854820251,-0.3368598520755768,0.15401479601860046,-1.502735599509266,2.18225266154053,2.1922135343219225
1.610713005065918,0.015446953475475311,-0.09886670112609863,0.030542969703674316,-1.144940972328186,-0.2795064151287079,0.11170047521591187,-1.4953007714235484,2.281691003081482,2.2950402433303703
1.6208579540252686,-0.007793590426445007,-0.12473297119140625,0.0014923736453056335,-1.2035294771194458,-0.24436894059181213,0.10045874118804932,-1.4863550317073584,2.377872272255329,2.394095627235285
1.630389928817749,-0.022032085806131363,-0.062204718589782715,-0.008701913058757782,-1.1231920719146729,-0.2822028398513794,0.09099556505680084,-1.4769560065599106,2.453924791967881,2.4730851345290064
1.640758991241455,0.0025396011769771576,-0.0035196542739868164,-0.0003145933151245117,-0.9989812970161438,-0.3047502338886261,0.111473947763443,-1.4679435843011426,2.509493729143936,2.5319057937798473
1.6504671573638916,0.016459312289953232,0.022881627082824707,0.005671501159667969,-0.7889503240585327,-0.30622777342796326,0.13169926404953003,-1.4598998729169999,2.545088117005874,2.570790518356178
1.6604540348052979,0.010106123983860016,0.05833333730697632,-0.008813269436359406,-0.6653072237968445,-0.3036447763442993,0.12741291522979736,-1.4531592906775455,2.5672613090704806,2.5961787828342207
1.670478105545044,-0.00045794248580932617,0.05687570571899414,-0.013351678848266602,-0.6503334045410156,-0.2883276045322418,0.13016407191753387,-1.4470168121830589,2.584068124923568,2.6160971610925543
1.6805131435394287,-0.012225575745105743,0.03420555591583252,0.02151487022638321,-0.783220112323761,-0.29457297921180725,0.11045560985803604,-1.4403606535448,2.601353345023752,2.6364588076612185
1.6905250549316406,-0.010331742465496063,-0.003231823444366455,0.036702513694763184,-1.059878945350647,-0.27810341119766235,0.07170538604259491,-1.4318944266115319,2.6269845926944835,2.665211054063224
1.7005870342254639,-0.014213427901268005,-0.07529127597808838,0.029465794563293457,-1.3299295902252197,-0.26859378814697266,-0.010020897723734379,-1.4212242571590585,2.661960312138771,2.7033119713628015
1.710921049118042,-0.01910003274679184,-0.12645161151885986,0.00343477725982666,-1.42982017993927,-0.25342848896980286,-0.032131046056747437,-1.4088169058338817,2.7001369212401856,2.744607637890669
1.720668077468872,-0.017305202782154083,-0.09405136108398438,-0.01609039306640625,-1.1856900453567505,-0.26508674025535583,-0.04029044136404991,-1.3968254889633276,2.731755213954478,2.7792698088025922
1.7305800914764404,0.006418600678443909,0.010164201259613037,-0.03708897531032562,-0.810366690158844,-0.26038986444473267,-0.13885733485221863,-1.3879802515675725,2.7548923820235824,2.8054918168985123
1.7405660152435303,0.0035274624824523926,0.06901949644088745,-0.010781154036521912,-0.6091749668121338,-0.2561602294445038,-0.11623936891555786,-1.381940197851738,2.773100814881205,2.8266048167937607
1.7505090236663818,-0.013937406241893768,0.09636569023132324,0.05703258514404297,-0.5335680842399597,-0.26938334107398987,-0.10485430806875229,-1.3770315462594458,2.785657965450122,2.842087040583297
1.760619878768921,0.01979038119316101,0.10120773315429688,0.06772097945213318,-0.571042001247406,-0.2704150378704071,-0.2152540534734726,-1.37253917411723,2.7999184163527717,2.859452576543343
1.7706420421600342,0.00036782771348953247,0.015937983989715576,0.0755770206451416,-0.6493537425994873,-0.24348312616348267,-0.16409781575202942,-1.3673573780070838,2.816434523280654,2.8788855097507238
1.7806079387664795,-0.021545514464378357,0.0421748161315918,0.05217018723487854,-0.6411094069480896,-0.19966214895248413,-0.14299093186855316,-1.3616621441655687,2.8307186397184076,2.8957390215396863
1.790776014328003,0.0071626752614974976,0.10134315490722656,-0.03160247206687927,-0.6722376346588135,-0.12800663709640503,-0.09877212345600128,-1.3557431962980127,2.843865619612541,2.910870493019429
1.8006629943847656,0.0016329996287822723,0.08658492565155029,-0.069083571434021,-0.40856921672821045,-0.07471679151058197,-0.06458964943885803,-1.3506672218021871,2.8532726329034226,2.9215350294409275
1.8110039234161377,-0.016800768673419952,0.11622828245162964,-0.0329371839761734,-0.09034499526023865,-0.06023997813463211,-0.02272832952439785,-1.348462155177255,2.857673511261325,2.92670876848337
1.8206720352172852,-0.03084719181060791,0.14029264450073242,0.020678266882896423,0.15212516486644745,-0.0534028485417366,-0.016334880143404007,-1.348872171014927,2.857031812021658,2.9266635296150527
1.8306159973144531,-0.02664940431714058,0.10056060552597046,0.06685784459114075,0.1814219355583191,-0.022048652172088623,-0.043752335011959076,-1.3506740067719154,2.856068374242881,2.9260425168654547
1.8406550884246826,-0.04324248060584068,-0.0015317201614379883,0.0681329071521759,0.14418721199035645,-0.03757248446345329,-0.009542168118059635,-1.352338022251491,2.8547160296426166,2.924922804085271
1.850625991821289,-0.03981490805745125,-0.01848500967025757,0.05519998073577881,-0.04315641149878502,-0.04756457731127739,-0.04416709765791893,-1.3530460763888423,2.854480545606736,2.925160446571511
1.860640048980713,-0.020826909691095352,-0.05864393711090088,0.026200011372566223,-0.293488472700119,-0.03805362805724144,-0.017237212508916855,-1.3514167075635548,2.8576160333010057,2.928789045813712
1.8711330890655518,-0.03217707946896553,-0.10114812850952148,0.013513311743736267,-0.3946349322795868,-0.029469242319464684,-0.025709260255098343,-1.348115238275395,2.862529122117556,2.9341984408515427
1.8807871341705322,-0.025529682636260986,-0.07351738214492798,-0.02825343608856201,-0.4243701994419098,0.0048842052929103374,-0.007212807424366474,-1.3441559540949524,2.8682691252874917,2.9402223400593614
1.8911259174346924,-0.02520575374364853,-0.036319077014923096,-0.051450297236442566,-0.23297613859176636,-0.007793284021317959,0.052776437252759933,-1.3407957006567965,2.8711954032600904,2.9432062191458632
1.900871992111206,-0.0023330561816692352,0.05011779069900513,-0.05006396770477295,0.01875169761478901,-0.01453987043350935,0.07248249650001526,-1.339613159190386,2.86954741113662,2.941642806609399
1.9110181331634521,0.01320493221282959,0.08880668878555298,-0.03221060335636139,0.18065783381462097,-0.029177136719226837,0.10617292672395706,-1.34037903104179,2.864630429572778,2.936800510104837
1.9212510585784912,0.006693817675113678,0.0794488787651062,0.015465527772903442,0.24408288300037384,-0.042757924646139145,0.1101498231291771,-1.3422090391469281,2.8568066927641858,2.929159080624549
1.9310028553009033,0.015478461980819702,0.07046926021575928,0.050054341554641724,0.09894295781850815,-0.028256259858608246,0.05587683990597725,-1.3437282556141557,2.8509015854224953,2.9234421504105557
1.9409520626068115,0.0016020238399505615,-0.018079400062561035,0.052343517541885376,-0.11841759085655212,-0.010268471203744411,-0.002440795535221696,-1.3435335102375459,2.849498906629646,2.922235392812663
1.9508378505706787,0.004249870777130127,-0.058807194232940674,0.039307355880737305,-0.2918907701969147,0.038373544812202454,-0.05902386084198952,-1.3415194814826978,2.854020753104406,2.926695598590572
1.96104097366333,0.010772213339805603,-0.0395890474319458,0.016210556030273438,-0.23539501428604126,0.029594168066978455,-0.06071469932794571,-1.3390828955172844,2.860080869719714,2.9325549199879553
1.9713430404663086,0.016526535153388977,0.04073220491409302,0.027825117111206055,-0.137729674577713,0.04583439230918884,-0.07574260234832764,-1.3375638969291739,2.865301933354804,2.9375641483364965
1.98095703125,0.02802228555083275,0.08049070835113525,0.013277605175971985,-0.055306438356637955,0.07666127383708954,-0.069475919008255,-1.3369293693888826,2.8700492446076584,2.9417995553583918
1.9916961193084717,0.012778215110301971,0.07266116142272949,0.011693820357322693,0.06208053231239319,0.06763418018817902,-0.06173224374651909,-1.3372670574570202,2.873141386563967,2.9442545563125613
2.0011861324310303,0.013839740306138992,0.07546859979629517,0.03702497482299805,0.11354957520961761,0.08922602981328964,-0.059839531779289246,-1.3383251947208157,2.8753851686589833,2.9457597778951095
2.0111069679260254,0.00846080482006073,0.0349736213684082,0.038379162549972534,0.22608907520771027,0.10483890026807785,-0.030921438708901405,-1.339978349177155,2.8764038821950475,2.945783439270519
2.0210368633270264,-0.00015696510672569275,0.021146297454833984,0.025180324912071228,0.3419288396835327,0.09618868678808212,0.0023028268478810787,-1.3426745782802054,2.8748746215542433,2.9431639848977844
2.031059980392456,0.0020849108695983887,0.028023064136505127,0.025969713926315308,0.3800041079521179,0.12308518588542938,0.004058116115629673,-1.3460265586609657,2.871715125418279,2.938822888275314
2.04093599319458,-0.0020387843251228333,-0.017992079257965088,0.01989927887916565,0.34696412086486816,0.18183693289756775,0.028241217136383057,-1.3493828171266893,2.868222546555178,2.9336883854122444
2.0508720874786377,-0.02190433070063591,-0.04525941610336304,0.00554540753364563,0.29334473609924316,0.1933111995458603,0.019810767844319344,-1.3523195022804837,2.8652515718549645,2.9286616304134805
2.0609171390533447,-0.019133225083351135,-0.056359291076660156,0.012948617339134216,0.20450299978256226,0.19348882138729095,0.0407157838344574,-1.354614600069413,2.8627011488690233,2.9240767936537626
2.071018934249878,-0.0006591230630874634,-0.06554305553436279,0.028362974524497986,0.11913610249757767,0.19540604948997498,0.05482270568609238,-1.3559608655334086,2.8605408870863966,2.919874408124349
2.080941915512085,0.009246442466974258,-0.050147294998168945,0.0030944645404815674,0.12001361697912216,0.1861550211906433,0.06618694961071014,-1.3567521722352507,2.8583816575331866,2.9156610039981885
2.0912091732025146,0.008778754621744156,-0.04282444715499878,-0.007760524749755859,0.16451624035835266,0.15364572405815125,0.08028588443994522,-1.3577659924769014,2.8552379725869845,2.9107062759620983
2.100996971130371,0.016275960952043533,-0.023371577262878418,-0.008038043975830078,0.19694794714450836,0.1301553100347519,0.09008365124464035,-1.3591517440973508,2.8504838350017234,2.9043797481873965
2.11114501953125,0.022596098482608795,-0.011453688144683838,-0.01850748062133789,0.19460633397102356,0.12045957893133163,0.08692754060029984,-1.360678818457519,2.845142179521916,2.8976321645607426
2.121129035949707,0.016757670789957047,-0.030496716499328613,-0.026412218809127808,0.14159639179706573,0.08751334995031357,0.07059384137392044,-1.3619269861321022,2.8405231584272435,2.891814958095356
2.131011962890625,0.016078133136034012,-0.0514487624168396,-0.014349222183227539,0.08428797870874405,0.06369709968566895,0.0669013112783432,-1.3626720540475743,2.8368318198994054,2.8872779080557027
2.1409318447113037,0.027693811804056168,-0.047644734382629395,-0.013407349586486816,0.09507937729358673,0.04777805134654045,0.05679648369550705,-1.3631672320181347,2.833781853749463,2.8835714870983487
2.1509430408477783,0.02531961351633072,-0.023899972438812256,-0.021373599767684937,0.1545180082321167,-0.005489961244165897,0.06762846559286118,-1.3638248868087732,2.8296994400841657,2.8791519014763733
2.1611368656158447,0.026762552559375763,-0.00041282176971435547,-0.008711114525794983,0.1432773321866989,-0.012491145171225071,0.06697039306163788,-1.3649217889999412,2.8244364690405876,2.8738921599518865
2.1711881160736084,0.026620827615261078,-0.004274308681488037,-0.01211237907409668,0.04613416641950607,-0.01851743459701538,0.05332404002547264,-1.3655997070639918,2.819952884953972,2.869443876283918
2.1812760829925537,0.013548329472541809,-0.025805115699768066,-0.013731986284255981,-0.07672730088233948,-0.030230281874537468,0.04175446927547455,-1.3652287156519718,2.8177303701734555,2.8674393194926577
2.1912360191345215,0.018789567053318024,-0.05024081468582153,0.006182283163070679,-0.09025441110134125,-0.03286579251289368,0.03152952715754509,-1.364289986439221,2.816995439329981,2.8670159640571162
2.2012219429016113,0.021406732499599457,-0.027930021286010742,-0.0006204545497894287,-0.04526190459728241,-0.03951676934957504,0.03476979583501816,-1.3636107377519526,2.8159345746175406,2.866302163008521
2.211345911026001,0.018801458179950714,0.020284652709960938,-0.006322652101516724,-0.050642773509025574,-0.02875719964504242,0.043461237102746964,-1.3630318650811832,2.8144592550509655,2.8651511496981725
2.221113920211792,0.020021013915538788,0.02791541814804077,-0.0014892816543579102,-0.03130795806646347,-0.021618861705064774,0.03098645806312561,-1.3625086753091478,2.812956227889958,2.863885003034042
2.2311151027679443,0.012788712978363037,0.014370918273925781,0.004754617810249329,0.029088005423545837,-0.02346230298280716,0.04519442096352577,-1.3624819293240804,2.8105039891495647,2.8616149408341798
2.2411229610443115,0.011133991181850433,0.020306110382080078,0.007611870765686035,0.0897313803434372,-0.005009793676435947,0.059169359505176544,-1.3630027054041636,2.806490947414657,2.8577144451274066
2.251163959503174,0.011807084083557129,0.040528953075408936,0.0026635974645614624,0.0676572397351265,0.01775171235203743,0.0489894263446331,-1.3637191533656734,2.802164739207905,2.8532338401222948
2.2611100673675537,-0.0020721033215522766,0.019258975982666016,0.007640868425369263,0.04385576769709587,0.008761945180594921,0.03870376572012901,-1.3641618023686366,2.7991648638233544,2.850042425331238
2.271075963973999,-0.0007155835628509521,-0.008213937282562256,0.030656427145004272,0.030779648572206497,0.015027031302452087,0.031194981187582016,-1.3641954006818389,2.79712275161306,2.847845502833822
2.2812631130218506,0.0003732442855834961,-0.0009282231330871582,0.03335729241371155,0.004336588084697723,0.02376805990934372,0.02694271318614483,-1.3641611129181759,2.7955520714427577,2.8460568821273315
2.2917349338531494,-0.009981215000152588,-0.0009987354278564453,0.019493982195854187,0.004994705319404602,0.022181924432516098,0.017186114564538002,-1.3642075761064918,2.7943177983680156,2.8445790136472278
2.303096055984497,-0.009367972612380981,-0.004202604293823242,0.013314515352249146,0.009440053254365921,0.008872777223587036,0.035690292716026306,-1.3642049070393252,2.792754273221464,2.8428337500858567
2.3114359378814697,-0.005584120750427246,0.00513613224029541,0.008244425058364868,0.04103030264377594,-0.00124741205945611,0.0401492714881897,-1.3642032045959025,2.790618026224621,2.8406279030628787
2.3227150440216064,-0.004294194281101227,0.007151603698730469,0.0016710460186004639,0.09478780627250671,0.003383558476343751,0.048029035329818726,-1.3645679961590358,2.7875587795152525,2.837489144215771
2.3314080238342285,-0.013216175138950348,0.001805424690246582,-0.007191792130470276,0.15375013649463654,-0.003143938258290291,0.06797877699136734,-1.365566517825014,2.7826110712595047,2.8324409113912266
2.3415000438690186,-0.013177327811717987,0.007991611957550049,-0.007402628660202026,0.1498938798904419,0.0006217719055712223,0.060168519616127014,-1.3667373558490654,2.7773117462785524,2.8270606360065025
2.3535358905792236,-0.009512476623058319,-0.008129894733428955,-0.002353101968765259,0.0511762797832489,0.012545276433229446,0.046016380190849304,-1.3668523163902944,2.77436917505904,2.823928972749756
2.3615381717681885,-0.012924224138259888,-0.03617894649505615,0.000985264778137207,-0.04379550367593765,0.009799824096262455,0.023455675691366196,-1.366042488893784,2.7742960290285352,2.8236658874521257
2.3727190494537354,-0.010135196149349213,-0.0453946590423584,0.018598347902297974,-0.05082644894719124,-0.009401034563779831,0.0012277087662369013,-1.3651414862260445,2.775700392441867,2.825045712318305
2.3814918994903564,-0.0024391859769821167,-0.023476481437683105,0.026348337531089783,-0.029864974319934845,-0.025131262838840485,0.0012964184861630201,-1.3645116479840287,2.7770404034876237,2.826567935543771
2.3914401531219482,0.004455961287021637,0.007903516292572021,0.012277930974960327,-0.06955684721469879,-0.008056005463004112,-0.004496010486036539,-1.3639519320746754,2.7782070955452514,2.8279005949343787
2.402798891067505,-0.0031270831823349,0.004446566104888916,0.0013042986392974854,-0.0988931655883789,-0.03353819623589516,-0.018677078187465668,-1.363178476793634,2.7802412017472538,2.830167538547414
2.4115121364593506,-0.005353875458240509,-0.02046436071395874,0.017879843711853027,-0.056678447872400284,-0.04367627203464508,-0.02366272732615471,-1.3627019836494019,2.7823616690107844,2.8327589150693795
2.4214789867401123,0.006172254681587219,-0.01341027021408081,0.015501409769058228,0.026069164276123047,-0.026237625628709793,-0.0011984310112893581,-1.3628281859184004,2.7828772087244795,2.833620765224301
2.4314229488372803,-0.001047573983669281,0.019856572151184082,-0.007453471422195435,0.10365939885377884,-0.022752437740564346,0.009167497046291828,-1.3635543612970613,2.7814091581611957,2.83238272736322
2.441553831100464,-0.0024724453687667847,0.021154820919036865,-0.0008428096771240234,0.11726841330528259,-0.015928087756037712,0.00972143467515707,-1.3645152844577875,2.779172739208125,2.830281699638151
2.4526798725128174,-0.004841126501560211,-0.0032945871353149414,0.014659285545349121,0.08429986238479614,0.0006853765808045864,0.011291847564280033,-1.364986417141786,2.7779785817779463,2.829097697638816
2.461519956588745,-0.009011536836624146,-0.027917921543121338,0.024271875619888306,0.07819589972496033,0.012430982664227486,0.005038745701313019,-1.3651897943763172,2.7771828194448696,2.8281669268039695
2.471541166305542,-0.00757792592048645,-0.02666705846786499,0.021669894456863403,0.05335739627480507,0.01676066219806671,0.007744197733700275,-1.365640256271155,2.776032858406261,2.826850516738234
2.4815361499786377,-0.004693508148193359,-0.024043142795562744,0.022034138441085815,-0.01709679886698723,0.03119845688343048,0.012959998100996017,-1.3657169243594498,2.7755710307770736,2.826113930911574
2.491502046585083,-0.0017748773097991943,-0.034079790115356445,0.021454930305480957,-0.037210289388895035,0.03647391125559807,0.002907950198277831,-1.3650267292342426,2.776942015043302,2.827130517421861
2.5034339427948,-0.0035201236605644226,-0.04055631160736084,0.01906442642211914,-0.0010488228872418404,0.03367812559008598,0.01410387922078371,-1.3645377776742618,2.7776444192414695,2.827473018713566
2.5118370056152344,-0.0008135512471199036,-0.01653236150741577,0.015206456184387207,0.044744182378053665,0.030692145228385925,0.025128141045570374,-1.3648034061143959,2.776551089117555,2.826034553115698
2.52179217338562,0.006450839340686798,0.0072287917137146,0.007810920476913452,0.09119956195354462,0.03461338207125664,0.032237183302640915,-1.3653847214087043,2.7743677380414877,2.8234847833661223
2.531791925430298,0.00908128172159195,0.011913418769836426,0.0052509307861328125,0.19574442505836487,0.04222891479730606,0.030471935868263245,-1.3663591740979086,2.7714638555117164,2.820097166850038
2.5450451374053955,0.007428660988807678,0.012507498264312744,0.008319854736328125,0.3030650317668915,0.05739428475499153,0.0584162175655365,-1.3681003103699885,2.7666846026078042,2.814653530566142
2.5552818775177,0.009773164987564087,0.03486829996109009,0.013433218002319336,0.3991972804069519,0.06806787848472595,0.06506974995136261,-1.3707368566148552,2.7588874632027114,2.80602058204205
2.563223123550415,0.01003817468881607,0.04265230894088745,0.022289499640464783,0.5456900596618652,0.06993129104375839,0.05747814476490021,-1.374524348038168,2.748616621851378,2.7948109408062587
2.571716070175171,0.010423041880130768,0.03443080186843872,0.01833425462245941,0.7872905731201172,0.07813360542058945,0.046336278319358826,-1.3800628564194748,2.734618371773958,2.7797719518284993
2.5816738605499268,0.01116788387298584,0.05976831912994385,0.00778709352016449,1.1719719171524048,0.08581762760877609,0.07545874267816544,-1.3884115949780478,2.7124325657073487,2.7563308262882313
2.591693162918091,0.013774335384368896,0.12086433172225952,0.008185133337974548,1.7174324989318848,0.11064649373292923,0.1457792967557907,-1.4007737099497277,2.6731868906504337,2.7154689451315277
2.60339617729187,0.013754785060882568,0.19082611799240112,0.015302658081054688,2.3533945083618164,0.15360835194587708,0.26307371258735657,-1.4176550244677983,2.603258642490419,2.6432533621530223
2.6117520332336426,-0.0005100071430206299,0.24249780178070068,0.04939579963684082,3.014838933944702,0.17075759172439575,0.40323981642723083,-1.4379619600728686,2.4806183756783433,2.5177023603398783
2.6216490268707275,-0.015209421515464783,0.26431095600128174,0.11015617102384567,3.6684138774871826,0.205501988530159,0.5697020292282104,-1.4587588180363629,2.26448656008877,2.2980841773952307
2.63167405128479,-0.03388182818889618,0.24476224184036255,0.13114356994628906,4.258025169372559,0.2603985071182251,0.6383804678916931,-1.473220607822747,1.9068443300636049,1.936244268222103
2.6417369842529297,-0.05064651370048523,0.16013991832733154,0.11374855041503906,4.6771159172058105,0.3628369867801666,0.6371620297431946,-1.4716368216887041,1.4469221463921593,1.4710882093970292
2.6535451412200928,-0.08154501765966415,0.07780331373214722,0.11980283260345459,4.9321746826171875,0.4581463932991028,0.721017062664032,-1.4495755304086488,1.054040496561022,1.0716558008062242
2.6617400646209717,-0.08537666499614716,0.060869574546813965,0.14523261785507202,4.932649612426758,0.43860945105552673,0.7478998303413391,-1.4136882870662733,0.8059684879310604,0.8167121421529964
2.671679973602295,-0.06034768372774124,0.0050438642501831055,0.19180192053318024,4.71390438079834,0.4789312779903412,0.6517933011054993,-1.372864671455005,0.6590825915040484,0.6628554729740442
2.681812047958374,-0.04794612526893616,-0.08646243810653687,0.22017580270767212,4.42622709274292,0.5615241527557373,0.599727988243103,-1.3318770404074933,0.5683068579206675,0.5646852309655491
2.6917850971221924,-0.04673248529434204,-0.10735279321670532,0.19865450263023376,4.18626594543457,0.6312633156776428,0.5757724046707153,-1.2918335547131627,0.5099391951297774,0.4981250002128558
2.7030398845672607,-0.03580375015735626,-0.08287203311920166,0.17491960525512695,4.050865173339844,0.6893660426139832,0.5359176993370056,-1.252889235670759,0.4696146056184673,0.44900259235260975
2.711961030960083,-0.03456728160381317,-0.05366623401641846,0.17323008179664612,3.951615571975708,0.7155606746673584,0.5035625696182251,-1.2145899458400025,0.43971280207154173,0.4098914424378846
2.7220470905303955,-0.02583777904510498,-0.03420913219451904,0.1532227098941803,3.9043614864349365,0.7591763734817505,0.48739561438560486,-1.1768060315975994,0.4171276816927212,0.37768524516685287
2.731999158859253,-0.019531920552253723,-0.013254523277282715,0.13039135932922363,3.93745493888855,0.8018201589584351,0.4681101441383362,-1.1389212251741667,0.3994314737980842,0.34982847775690357
2.7422821521759033,-0.019812464714050293,-0.001393735408782959,0.10786354541778564,4.043574333190918,0.8101039528846741,0.4697357416152954,-1.1002412782164235,0.38498255725291974,0.3247657925444075
2.7535908222198486,-0.019807562232017517,0.01817089319229126,0.10082203149795532,4.267979145050049,0.8046054840087891,0.5034160017967224,-1.0598896053695024,0.37275030080641075,0.30175694107775486
2.7621681690216064,-0.015785381197929382,0.04170048236846924,0.09484267234802246,4.548895835876465,0.7914094924926758,0.5424814224243164,-1.016811820713251,0.36217292659407857,0.28016941936253476
2.7718899250030518,-0.013260886073112488,0.06734949350357056,0.09898531436920166,4.823253154754639,0.7238001823425293,0.5779598355293274,-0.9708499990153131,0.3525998378794641,0.25966283281420266
2.7821009159088135,-0.012721151113510132,0.0928506851196289,0.11182451248168945,4.985217094421387,0.633857011795044,0.5789769291877747,-0.9226084825328384,0.34371920950717444,0.24035931482778042
2.7923600673675537,-0.007225722074508667,0.05804663896560669,0.10419958829879761,4.891759872436523,0.5938278436660767,0.4941380023956299,-0.8740036826886781,0.335478708434121,0.22199748865042052
2.8030850887298584,-0.017239972949028015,-0.014065802097320557,0.10071784257888794,4.607972145080566,0.5876615643501282,0.41775456070899963,-0.8274879696493103,0.32855896444559723,0.2049641406543898
2.8120391368865967,-0.030514389276504517,-0.07812225818634033,0.10734474658966064,4.174786567687988,0.6129719614982605,0.36560186743736267,-0.7845109583581206,0.32371689316167374,0.18995734047092508
2.822136163711548,-0.02485811710357666,-0.12615948915481567,0.10646700859069824,3.638962507247925,0.6421303749084473,0.3390781283378601,-0.7462550129169969,0.3213028065482181,0.17735366254519794
2.831969976425171,-0.017507106065750122,-0.12676644325256348,0.1198725700378418,3.1334896087646484,0.6516425609588623,0.34534502029418945,-0.7130661257013592,0.3211192949060917,0.1673645153468986
2.8421950340270996,-0.008236303925514221,-0.11188501119613647,0.12829715013504028,2.680323362350464,0.6381653547286987,0.34872910380363464,-0.6843427571041059,0.3226611383505007,0.15967421296498427
2.8534140586853027,0.0011609792709350586,-0.1128501296043396,0.11952877044677734,2.2151927947998047,0.6058914065361023,0.3198595643043518,-0.6600486148126804,0.3252034410338316,0.15376527288266326
2.862100839614868,0.007095396518707275,-0.11744552850723267,0.10716253519058228,1.8121947050094604,0.5920557379722595,0.3093036115169525,-0.6399830478227386,0.3285541836313118,0.14940005438660053
2.871999979019165,0.014500021934509277,-0.12501198053359985,0.08672791719436646,1.507163643836975,0.6018707156181335,0.2991243302822113,-0.6233423629237663,0.3327057204758804,0.1463103296108715
2.8820960521698,0.014037400484085083,-0.10577917098999023,0.06750518083572388,1.340846061706543,0.6078316569328308,0.3150092661380768,-0.6089560161676189,0.33749972410060597,0.14410558325866568
2.891986131668091,0.016780048608779907,-0.04695463180541992,0.04389381408691406,1.2888622283935547,0.5906140208244324,0.37364616990089417,-0.5954738976001541,0.34273013614081277,0.1427255819681907
2.9029629230499268,0.03330206871032715,0.019123733043670654,0.02040719985961914,1.328973650932312,0.5597309470176697,0.4297264814376831,-0.5817779670820901,0.3481015682904261,0.14197066898234575
2.9122021198272705,0.05257883667945862,0.04718297719955444,0.006936550140380859,1.3433877229690552,0.4966968894004822,0.4550219774246216,-0.5676726012325843,0.35311676372119877,0.14145873353596078
2.922744035720825,0.0597304105758667,0.04600846767425537,0.013858556747436523,1.3663058280944824,0.46196022629737854,0.46933355927467346,-0.553331728790193,0.3576608597732343,0.1410220796029204
2.9320340156555176,0.05232539772987366,0.023991763591766357,0.03602802753448486,1.3963738679885864,0.4611195921897888,0.4652285575866699,-0.53875973697865,0.3619851856485725,0.14045511033065589
2.9421608448028564,0.03563481569290161,0.001446843147277832,0.04408061504364014,1.4068256616592407,0.43014436960220337,0.45555779337882996,-0.5240072166226207,0.3660652801887849,0.1396565302653972
2.9530770778656006,0.027585357427597046,0.011288493871688843,0.05053842067718506,1.3888927698135376,0.36423709988594055,0.4396551251411438,-0.509318468464886,0.36955496565296375,0.1386765620204958
2.9621479511260986,0.033289313316345215,0.01812666654586792,0.0694844126701355,1.3356908559799194,0.32564523816108704,0.4352356195449829,-0.49498917865631226,0.3725119631345911,0.13766675955781563
2.972025156021118,0.03795391321182251,-0.0009527206420898438,0.06703805923461914,1.2448487281799316,0.3304523825645447,0.43885311484336853,-0.4813470309845574,0.37542813130973157,0.13693743394654123
2.9820048809051514,0.03434845805168152,-0.011260181665420532,0.04500627517700195,1.1407228708267212,0.34739062190055847,0.429887592792511,-0.4686413735000339,0.37864082039627106,0.1365485894226517
2.9920918941497803,0.024987727403640747,-0.014812588691711426,0.023409724235534668,1.0259991884231567,0.3654227554798126,0.40930962562561035,-0.4570080789986026,0.3821502593557715,0.13640497862227557
3.0034568309783936,0.014448881149291992,-0.02314966917037964,0.015131771564483643,0.9098355770111084,0.37296774983406067,0.3964223265647888,-0.4464991569758861,0.385919147993418,0.1365301952418322
3.0123250484466553,0.013930588960647583,-0.029244065284729004,0.008935332298278809,0.7878484725952148,0.3666501045227051,0.3825812041759491,-0.43717139106643255,0.3898049893718836,0.13697566253093593
3.0226261615753174,0.019191056489944458,-0.0321047306060791,0.00298309326171875,0.6899695992469788,0.35885289311408997,0.35474368929862976,-0.42892538736512154,0.39370948059185973,0.1376252379162084
3.0323870182037354,0.017230749130249023,-0.03845396637916565,0.004300117492675781,0.6037204265594482,0.34240904450416565,0.33513104915618896,-0.42162371041559327,0.39752863568204894,0.13838157666647893
3.04243803024292,0.01326170563697815,-0.036699384450912476,0.0019426941871643066,0.5330180525779724,0.33431169390678406,0.32472556829452515,-0.4151113085225839,0.40127506213230824,0.13928562911277895
3.0537240505218506,0.01081821322441101,-0.02731814980506897,0.0027004480361938477,0.4781048595905304,0.32602524757385254,0.31146445870399475,-0.40921920057197125,0.404994733932645,0.14031328332423282
3.062196969985962,0.003690481185913086,-0.01727992296218872,0.003592073917388916,0.4424443542957306,0.31824320554733276,0.3011649549007416,-0.403789090017717,0.4086386841987628,0.14139928794515336
3.072154998779297,-0.0007538497447967529,-0.012616485357284546,0.0034595727920532227,0.4255616366863251,0.3153742551803589,0.29468920826911926,-0.3985908543108586,0.4122391097198097,0.14246994289882195
3.0821750164031982,-0.002372533082962036,-0.003305971622467041,-0.00941556692123413,0.40754321217536926,0.2884635329246521,0.2869434058666229,-0.39360957082526254,0.41569710999233855,0.14355210271605992
3.092305898666382,0.00022274255752563477,0.013672888278961182,-0.015546023845672607,0.38181737065315247,0.2459893673658371,0.2736511528491974,-0.3888438512868925,0.4187782450481302,0.14460055299860394
3.1031148433685303,0.00670960545539856,0.014230668544769287,-0.010891497135162354,0.34134477376937866,0.20682919025421143,0.25518637895584106,-0.38443590636150593,0.4214208133848935,0.145607336002474
3.1122281551361084,0.005033910274505615,0.007402628660202026,-0.00406193733215332,0.26666900515556335,0.17300982773303986,0.2312387079000473,-0.38064445675258346,0.42370719534595136,0.14664531480031953
3.122567892074585,0.003975421190261841,0.004347860813140869,-0.003941714763641357,0.16138999164104462,0.13618683815002441,0.20613467693328857,-0.3777732010406726,0.4256841836198224,0.1478328793178473
3.132335901260376,0.003904789686203003,0.0010391473770141602,-0.0022779107093811035,0.047578103840351105,0.1105811595916748,0.1867281198501587,-0.3760146426743671,0.42745212732079063,0.1492879640685116
3.142313003540039,0.003350883722305298,-0.007446467876434326,-0.007911443710327148,-0.05071251466870308,0.0986962765455246,0.16723404824733734,-0.3753111612658105,0.42913405536555344,0.15103277389556483
3.153221845626831,-0.00022107362747192383,-0.016940057277679443,-0.011627793312072754,-0.10957260429859161,0.08564252406358719,0.15001197159290314,-0.37539600206263146,0.43077487111780705,0.15295118224474863
3.162353038787842,-0.0011129677295684814,-0.01401624083518982,-0.015187501907348633,-0.1363741159439087,0.06426133215427399,0.14953498542308807,-0.3759107646174367,0.432266951322292,0.1549742847368221
3.1722848415374756,0.0005897283554077148,0.0012605786323547363,-0.02077651023864746,-0.130790114402771,0.04096755012869835,0.1527133733034134,-0.37649844798939197,0.43357456956143187,0.1570640818340041
3.1826088428497314,0.004176139831542969,0.009850770235061646,-0.021762549877166748,-0.13004149496555328,0.013466686010360718,0.1566212922334671,-0.377007676266929,0.43460776891969416,0.15916292355724013
3.1923348903656006,0.0047879815101623535,0.008543223142623901,-0.01692032814025879,-0.13936899602413177,0.0043022604659199715,0.15943720936775208,-0.3775606535963666,0.4354861003866797,0.16131817806367593
3.2032148838043213,-0.004006326198577881,0.005227237939834595,-0.010824084281921387,-0.1503065973520279,0.0038378050085157156,0.16073496639728546,-0.3782061283342269,0.4363542337867767,0.16355273980785656
3.2124710083007812,-0.014350086450576782,-0.001895606517791748,0.0016936659812927246,-0.16827493906021118,0.006351340562105179,0.15580236911773682,-0.3789747073381284,0.43723799012315634,0.1658192217484117
3.222952127456665,-0.022183626890182495,-0.009347021579742432,0.012185275554656982,-0.1916271299123764,0.016431938856840134,0.15186649560928345,-0.3799493796176079,0.43820667245018025,0.16813544584932974
3.2324531078338623,-0.02642098069190979,-0.006749063730239868,0.016196131706237793,-0.2055741548538208,0.02665363997220993,0.15542325377464294,-0.38109557776187447,0.43932409443209663,0.17055231886773092
3.242643117904663,-0.024614602327346802,-0.00812917947769165,0.016369342803955078,-0.2123713344335556,0.03876223415136337,0.1541403979063034,-0.3823360947463966,0.44056916852520606,0.17302894195601093
3.2532851696014404,-0.022684365510940552,-0.00777927041053772,0.012214303016662598,-0.21030445396900177,0.05690502002835274,0.14096201956272125,-0.38362036741928635,0.4419506189127917,0.17544903986181593
3.2623088359832764,-0.025914818048477173,-0.0028342902660369873,0.008262872695922852,-0.20264947414398193,0.06721970438957214,0.1335781365633011,-0.38477124358702236,0.443349852251396,0.1777075604548174
3.2722809314727783,-0.024890273809432983,-0.006853342056274414,0.004313468933105469,-0.2120104730129242,0.08006466925144196,0.12196169048547745,-0.3859468110642378,0.44483228806676295,0.17989357140875564
3.282515048980713,-0.017636805772781372,-0.011456817388534546,0.00691145658493042,-0.22159786522388458,0.09009253233671188,0.10542505979537964,-0.38725972264664066,0.4463407183414449,0.18195207607802272
3.2924978733062744,-0.01627597212791443,-0.0025860071182250977,0.007210791110992432,-0.2250290811061859,0.09966500103473663,0.09558281302452087,-0.3886384505528328,0.4478871844121306,0.18391140125894
3.3046460151672363,-0.017821788787841797,0.007465958595275879,0.006129443645477295,-0.21469974517822266,0.0995616689324379,0.08085287362337112,-0.3899782572394044,0.449402062905137,0.18573518085212978
3.3124349117279053,-0.01576894521713257,0.007954835891723633,0.008431434631347656,-0.19524012506008148,0.09256474673748016,0.05731143057346344,-0.39136381772409745,0.45076764793868196,0.18728455771762578
3.3224029541015625,-0.01752975583076477,0.0016453564167022705,0.012543022632598877,-0.17669013142585754,0.08954844623804092,0.03878435119986534,-0.392626883452344,0.45198215529646363,0.1885439466140222
3.3325588703155518,-0.020157933235168457,0.006675660610198975,0.010203361511230469,-0.161472350358963,0.08122202754020691,0.0090744998306036,-0.3938383448239616,0.45303909656151764,0.18950162178192864
3.3427820205688477,-0.018356919288635254,0.010534971952438354,0.0073517560958862305,-0.13760590553283691,0.0624731108546257,-0.014560522511601448,-0.39507919934957225,0.45382342802966297,0.19009857256837673
3.353296995162964,-0.013472229242324829,0.0076215267181396484,0.0028529763221740723,-0.12621283531188965,0.059478651732206345,-0.025177638977766037,-0.39616947741554354,0.4544298194403957,0.1904523822320768
3.362434148788452,-0.011220753192901611,0.007163822650909424,-0.008704662322998047,-0.11644142866134644,0.06160278990864754,-0.03314315527677536,-0.3971785961395849,0.45501303836026646,0.1906856317723863
3.3725531101226807,-0.010441511869430542,0.00874975323677063,-0.013822793960571289,-0.08464155346155167,0.056037671864032745,-0.031468454748392105,-0.3981395586910984,0.45555954654519587,0.1908139068811913
3.382599115371704,-0.00904276967048645,0.007911086082458496,-0.014343798160552979,-0.04536152631044388,0.042192693799734116,-0.024047553539276123,-0.39886739868729276,0.4559555327824853,0.19080556308776594
3.392657995223999,-0.0075216591358184814,0.007938086986541748,-0.014434337615966797,-0.015420189127326012,0.029063977301120758,-0.015315528027713299,-0.39928523183156234,0.4561953547164273,0.190715010455621
3.403367042541504,-0.0015168190002441406,0.010857582092285156,-0.015667498111724854,-0.0016905282391235232,0.011587781831622124,-0.009103971533477306,-0.3994122501308901,0.4562671202804689,0.19058783807213278
3.412821054458618,0.0020576417446136475,0.009491592645645142,-0.012920200824737549,0.001340631628409028,-0.0006956495344638824,-0.0013384066987782717,-0.39953679755718746,0.456195931430676,0.19049128889087003
3.422900915145874,-0.00010272860527038574,0.006178230047225952,-0.009284734725952148,0.004415251314640045,-0.00490690628066659,0.01613645628094673,-0.3996386005890763,0.4560986610108115,0.1905100142477193
3.4331939220428467,-0.0019627809524536133,-0.0015399158000946045,-0.007720291614532471,0.01152973622083664,-0.0043746731244027615,0.02203807607293129,-0.3995858429357603,0.4560489687553622,0.19065085224650458
3.443730115890503,-0.0026699304580688477,-0.006302207708358765,-0.005544722080230713,0.0547802709043026,-0.009339870885014534,0.03467370942234993,-0.3992066134847301,0.45593991769226716,0.19073156798564853
3.4533488750457764,-0.004299342632293701,-0.0018873214721679688,-0.0024610161781311035,0.11231578141450882,-0.013906615786254406,0.05017106980085373,-0.3983069487913399,0.45573168345398235,0.1907193429245213
3.4626619815826416,-0.0024161338806152344,0.009968817234039307,0.0034177303314208984,0.174344003200531,-0.026998713612556458,0.05782579630613327,-0.39681743706569633,0.45538066544998185,0.1905253335045282
3.4727399349212646,-0.001159757375717163,0.01973697543144226,0.006697416305541992,0.22930558025836945,-0.04675670713186264,0.05966241657733917,-0.3948136602335856,0.4547990290534589,0.19012641470451686
3.483427047729492,-9.900331497192383e-05,0.022806644439697266,0.012874364852905273,0.258043497800827,-0.056943297386169434,0.05408948287367821,-0.3924811235755798,0.4540036818832765,0.1895079769049429
3.4927351474761963,-0.00021147727966308594,0.016089916229248047,0.016922295093536377,0.2413109838962555,-0.0405767522752285,0.0403444841504097,-0.3901732902073117,0.45323406762422225,0.1887834477569478
3.503382921218872,-0.005648702383041382,0.006758838891983032,0.01301121711730957,0.20466695725917816,-0.023274729028344154,0.024568451568484306,-0.3882028445654991,0.4526451205972157,0.18804605458560064
3.512938976287842,-0.010072857141494751,-0.003952980041503906,0.013043344020843506,0.1468915045261383,-0.005440159700810909,0.003689961042255163,-0.38665385169025535,0.452245213981465,0.1873518311084665
3.523184061050415,-0.009554892778396606,-0.01430600881576538,0.017773568630218506,0.08538926392793655,0.01136811450123787,-0.019047042354941368,-0.38572314171834254,0.45204407845748606,0.18672534157814774
3.5329740047454834,-0.005395978689193726,-0.007570326328277588,0.01970607042312622,0.03859299421310425,0.016556397080421448,-0.0310205090790987,-0.38543608675085755,0.45199560381871046,0.1861927324868037
3.5432779788970947,-0.0009697377681732178,0.0009369552135467529,0.018801867961883545,0.007186603266745806,0.014137713238596916,-0.04853665083646774,-0.38575665988106034,0.45203902528750717,0.18573007151748294
3.5534040927886963,0.004797697067260742,0.0021625757217407227,0.016812920570373535,-0.011644309386610985,0.0018208599649369717,-0.06503275036811829,-0.386492594265837,0.45200167069787484,0.18521019271147998
3.563753843307495,0.011735767126083374,0.000832974910736084,0.018014371395111084,-0.02237551659345627,-0.008396890014410019,-0.07748515903949738,-0.3874505049403518,0.45184876830906934,0.18462885254480813
3.574542999267578,0.016860395669937134,0.006197303533554077,0.014138579368591309,-0.03049369528889656,-0.017803175374865532,-0.08472560346126556,-0.38841386936889266,0.4515661954133238,0.18401700133955826
3.5829830169677734,0.01797199249267578,0.00891333818435669,0.010480642318725586,-0.03898758441209793,-0.021568885073065758,-0.09594257175922394,-0.38928786820928657,0.45111947606245867,0.18330717434556035
3.5929300785064697,0.017200618982315063,0.002961397171020508,0.009867250919342041,-0.052510131150484085,-0.02119404450058937,-0.09449487179517746,-0.39011373580623665,0.45061572648353426,0.18257796773357593
3.603423833847046,0.017948508262634277,0.0007144510746002197,0.005811631679534912,-0.05201851204037666,-0.02286864072084427,-0.0902324840426445,-0.390844004020526,0.4501376390938147,0.1819208175444488
3.612990140914917,0.018428564071655273,0.003648042678833008,0.0026420950889587402,-0.047927167266607285,-0.032564677298069,-0.09724975377321243,-0.3916485404441811,0.449629564557647,0.1812585560684531
3.622955083847046,0.018033385276794434,-0.0005638003349304199,0.005007445812225342,-0.04747602716088295,-0.039286497980356216,-0.0982697457075119,-0.39254065058254906,0.4490540198074749,0.1805461722510587
3.632845163345337,0.01767328381538391,-0.0054649412631988525,0.008639335632324219,-0.05232679098844528,-0.04177171364426613,-0.09955674409866333,-0.39345248132572813,0.4484587106959298,0.17985988124818367
3.643728017807007,0.014484524726867676,-0.009121328592300415,0.012106180191040039,-0.06346280127763748,-0.03947553411126137,-0.09804220497608185,-0.3944212049790842,0.4479185304469598,0.1792117786440149
3.653446912765503,0.011091500520706177,-0.015653520822525024,0.015479087829589844,-0.07431607693433762,-0.04020027071237564,-0.09257132560014725,-0.3955303739249561,0.4474503835508843,0.1786550352343096
3.6630399227142334,0.011589974164962769,-0.015193581581115723,0.01886075735092163,-0.07867167890071869,-0.04976421594619751,-0.08549769967794418,-0.3966858007588333,0.4469544723441715,0.17820834013445236
3.6729161739349365,0.014971643686294556,-0.013947814702987671,0.025970101356506348,-0.07050061970949173,-0.050057828426361084,-0.07623092085123062,-0.3977010512253446,0.44641320987452116,0.17782072878078728
3.683112859725952,0.01356440782546997,-0.017024844884872437,0.030058860778808594,-0.05919390171766281,-0.04348861053586006,-0.06334681063890457,-0.3985230680831974,0.4459221227398271,0.17750133884056618
3.6944620609283447,0.01154392957687378,-0.014325857162475586,0.02326679229736328,-0.044409532099962234,-0.04173509404063225,-0.05424833297729492,-0.39918737657792,0.44549459916481676,0.17721562748394143
3.70345401763916,0.013803362846374512,-0.011679649353027344,0.016766905784606934,-0.029348554089665413,-0.03873371332883835,-0.042054519057273865,-0.3996441308175354,0.4450897283772188,0.1769547218473223
3.7131378650665283,0.016646206378936768,-0.013569414615631104,0.016739606857299805,-0.017105504870414734,-0.03547640144824982,-0.031845077872276306,-0.39989005417310697,0.44474823202657043,0.17674829161822284
3.723581075668335,0.01599368453025818,-0.013221502304077148,0.018460512161254883,-0.007063256110996008,-0.03223719820380211,-0.026668958365917206,-0.3999927743073951,0.4444342727675955,0.17656791993288629
3.732970952987671,0.015989482402801514,-0.011134624481201172,0.02327972650527954,-0.0008392988238483667,-0.023761553689837456,-0.019834913313388824,-0.39994695289567145,0.44417322975516615,0.17640479908109385
3.743109941482544,0.014053702354431152,-0.010120958089828491,0.026101648807525635,0.007409043610095978,-0.012571217492222786,-0.012500567361712456,-0.3998569935108093,0.44402417820677115,0.17627072345534892
3.753622055053711,0.011382818222045898,-0.008816361427307129,0.023668289184570312,0.020256832242012024,0.003280183533206582,-0.0046396078541874886,-0.3997162166808251,0.4440516940636647,0.17617696992558357
3.7629730701446533,0.011590689420700073,-0.007604092359542847,0.018856704235076904,0.04684317111968994,0.018834374845027924,0.008719073608517647,-0.39936093962747726,0.44422561667288,0.17608622622748255
3.773036003112793,0.0150299072265625,-0.0006303787231445312,0.014115095138549805,0.09623391926288605,0.03240087255835533,0.02350931242108345,-0.39859871704857713,0.4445055976647062,0.17594396777743454
3.783102035522461,0.01656198501586914,0.0026360750198364258,0.012915253639221191,0.14732053875923157,0.03980659320950508,0.03156111389398575,-0.3973396095910588,0.4448327128365137,0.17567263686660917
3.7939741611480713,0.018558621406555176,0.005968719720840454,0.011488795280456543,0.20453527569770813,0.03446238115429878,0.03811520338058472,-0.3955463368438649,0.44511883729308416,0.17522716307936928
3.8038129806518555,0.02409800887107849,0.012120068073272705,0.00904172658920288,0.2345573604106903,0.020321795716881752,0.04546446353197098,-0.393345867172523,0.44524895163327494,0.17464855361685683
3.813246011734009,0.028315305709838867,0.012957841157913208,0.011781036853790283,0.22724772989749908,0.008862524293363094,0.044662054628133774,-0.39108524497984204,0.4452713936185086,0.17404816606032197
3.8230769634246826,0.02678629755973816,0.0009596645832061768,0.017074763774871826,0.19184152781963348,0.008055320009589195,0.04086625203490257,-0.38911059076705584,0.4452898593550734,0.1735513132804964
3.833153009414673,0.0229051411151886,-0.008951544761657715,0.01963222026824951,0.14054720103740692,0.002831884426996112,0.03719300776720047,-0.387569799943408,0.44532430128364364,0.17320903153881528
3.8432810306549072,0.018584132194519043,-0.014122188091278076,0.025025367736816406,0.07468188554048538,-0.003997526131570339,0.02600346878170967,-0.3866118412779066,0.44536030331416687,0.17306362383912893
3.8535101413726807,0.017614245414733887,-0.02172127366065979,0.032191574573516846,0.008860750123858452,0.00173772475682199,0.014753265306353569,-0.38634847045362974,0.4454837144610745,0.17312112629496657
3.8630878925323486,0.014921814203262329,-0.025976330041885376,0.02811717987060547,-0.04152812063694,0.005534859839826822,0.007816528901457787,-0.3866591513430535,0.44571665144954625,0.17335264254643126
3.87321400642395,0.010482490062713623,-0.022989988327026367,0.024982035160064697,-0.06676298379898071,0.0029507505241781473,0.003064437536522746,-0.3873229552965826,0.4460091383719183,0.17371502160624455
3.8834989070892334,0.009837418794631958,-0.020670980215072632,0.016640841960906982,-0.07005146145820618,-0.0002916483208537102,-0.002842719666659832,-0.38814743373050076,0.44628484579879046,0.17409382873401472
3.8933908939361572,0.009220898151397705,-0.014923125505447388,0.011963486671447754,-0.0595054104924202,-0.0009232610464096069,0.0009426439646631479,-0.3889274632459035,0.44655475870520916,0.17444760539143211
3.9043028354644775,0.007113456726074219,-0.007195174694061279,0.005490660667419434,-0.04720107093453407,-0.00704719964414835,0.0025362796150147915,-0.3894641249774148,0.4467902045817194,0.1747707046342232
3.9134440422058105,0.00561639666557312,-0.005416840314865112,0.0025403499603271484,-0.04003223776817322,-0.017699668183922768,0.00149567611515522,-0.38978502884570015,0.4469102886894651,0.17505284459001869
3.923565149307251,0.005534529685974121,-0.010276645421981812,0.006709098815917969,-0.04030334949493408,-0.024778349325060844,0.002872530370950699,-0.3900406020372096,0.44691244131232094,0.17531269755043957
3.9333560466766357,0.0023462772369384766,-0.01279422640800476,0.012201845645904541,-0.04283921420574188,-0.023729950189590454,0.0056520183570683,-0.3902219808998178,0.4469105870768439,0.17560900247058656
3.9433610439300537,-0.0029750466346740723,-0.013503819704055786,0.010888397693634033,-0.06022166460752487,-0.019415099173784256,0.008010780438780785,-0.390444765125535,0.4469131372902852,0.1759482312241879
3.9542758464813232,-0.004683762788772583,-0.012644082307815552,0.008327782154083252,-0.07606878876686096,-0.022670945152640343,0.008295631036162376,-0.3908516688660692,0.4469382294744054,0.17637086463239485
3.963549852371216,-0.0018849074840545654,-0.01656264066696167,0.005484521389007568,-0.08782345056533813,-0.016829567030072212,0.006822105031460524,-0.391409622534828,0.4469674708662361,0.1768537149617872
3.9735360145568848,0.00023928284645080566,-0.018747597932815552,9.274482727050781e-05,-0.08913528919219971,-0.011096049100160599,0.009119933471083641,-0.39207322563779223,0.4470584389196458,0.1773570743813773
3.9831998348236084,-0.0018232464790344238,-0.016153931617736816,-0.005378007888793945,-0.07400107383728027,-0.008140472695231438,0.010241923853754997,-0.392701092541303,0.44718613398706514,0.17785250524003374
3.9933321475982666,0.0005062520503997803,-0.010041028261184692,-0.005413532257080078,-0.04989179968833923,-0.016464758664369583,0.018062137067317963,-0.39313689534063073,0.4472422718895621,0.1782824285890656
4.003870010375977,0.003245055675506592,-0.0008005201816558838,-0.004562735557556152,-0.02518325485289097,-0.031150495633482933,0.0197891965508461,-0.3932759055753125,0.4471693280193328,0.17866701429254256
4.0135180950164795,0.007048219442367554,0.0033515989780426025,-0.001154184341430664,-0.017369022592902184,-0.03940456360578537,0.017611635848879814,-0.39325750937247256,0.44694136711697724,0.17895046028101075
4.023507833480835,0.007940024137496948,-0.0018795132637023926,-0.0022467374801635742,-0.021225547417998314,-0.037213847041130066,0.01508536096662283,-0.3932216060586554,0.44665126808580174,0.17919595634841545
4.033432960510254,0.00439453125,-0.005323559045791626,-0.0025097131729125977,-0.02871675230562687,-0.030667971819639206,0.014511769637465477,-0.39326635745633565,0.4463920012966962,0.179442048549806
4.04378604888916,0.0018151700496673584,-0.007585078477859497,-0.0028949975967407227,-0.02998681366443634,-0.021531201899051666,0.010702382773160934,-0.39330290797739215,0.44621684328761857,0.17969825303073353
4.053537130355835,0.0017370283603668213,-0.00731128454208374,-0.0032349228858947754,-0.0240007434040308,-0.0197991244494915,0.0108942911028862,-0.39328732320728305,0.44608779067633086,0.17992032468426905
4.0634238719940186,0.0031380057334899902,-0.005164146423339844,-0.0043978095054626465,-0.0037468713708221912,-0.014246967621147633,0.015780925750732422,-0.3931433209466777,0.4459527608969193,0.18010158874862228
4.073435068130493,0.004857838153839111,-0.0025085508823394775,-0.00392991304397583,0.016614411026239395,-0.013923880644142628,0.018785182386636734,-0.39287842990264765,0.4458506731795813,0.18023548825976918
4.083430051803589,0.006656169891357422,0.0008840858936309814,0.00013136863708496094,0.03534548729658127,-0.013669016771018505,0.01780753582715988,-0.3925260085456511,0.4457285958489865,0.18028698208258198
4.093387842178345,0.007764488458633423,-0.002659022808074951,0.00017219781875610352,0.04362081363797188,-0.011642573401331902,0.01688549853861332,-0.392116459651127,0.44563606293400476,0.18027853530381455
4.103502988815308,0.008797526359558105,-0.006302773952484131,-0.0005636811256408691,0.03828383609652519,-0.011141367256641388,0.015314765274524689,-0.391650802400444,0.4455496118234731,0.18025485214406983
4.113566160202026,0.01015976071357727,-0.010501265525817871,-0.0007468461990356445,0.024017048999667168,-0.013421565294265747,0.010169325396418571,-0.39125714637007747,0.44543034844750423,0.18024096531708336
4.123680830001831,0.012603461742401123,-0.01589331030845642,-0.0013012886047363281,0.0055714622139930725,-0.014391489326953888,0.009021502919495106,-0.39101575634829405,0.44530698332110785,0.1802657552972597
4.133522987365723,0.014078110456466675,-0.01930376887321472,-0.0013453364372253418,-0.0028523989021778107,-0.020258121192455292,0.013652793131768703,-0.390892089614269,0.4451794343479938,0.18036885956194643
4.14344596862793,0.011791646480560303,-0.019036203622817993,0.004398643970489502,-0.008022659458220005,-0.029666002839803696,0.016832340508699417,-0.3908172660685105,0.4449973440286059,0.1805389139545742
4.153707027435303,0.01136159896850586,-0.018564373254776,0.009587764739990234,-0.01442017126828432,-0.0368768684566021,0.017711717635393143,-0.3908185334950858,0.4447633003644725,0.18075963621810617
