timestamp,accel_x,accel_y,accel_z,rotation_x,rotation_y,rotation_z, pitch,roll,yaw
0.0456852912902832,0.0016912519931793213,-0.009254783391952515,0.0036720633506774902,-0.02511328086256981,-0.022121846675872803,0.036670442670583725,0.08606629330117924,0.24962563584435507,-0.010804873442898464
0.052549123764038086,0.0025361180305480957,-0.005542166531085968,-0.0010523796081542969,-0.027936894446611404,-0.026988595724105835,0.04114338010549545,0.08590258409514226,0.2493475251719691,-0.010350065699516768
0.05863618850708008,0.004489481449127197,-0.00581049919128418,0.0022235512733459473,-0.023323500528931618,-0.026758231222629547,0.039539091289043427,0.08575576832537142,0.24904378494362903,-0.009897410115964785
0.06424522399902344,0.0018467903137207031,-0.007060088217258453,0.004132986068725586,-0.02038491889834404,-0.023521915078163147,0.04284796118736267,0.08565020994753605,0.24876007890692287,-0.009452063865618527
0.07415318489074707,0.0025883615016937256,-0.0013351216912269592,0.0017992854118347168,-0.014666314236819744,-0.028268998488783836,0.04068680852651596,0.08559188239848833,0.24846492774013273,-0.009000673461664357
0.0842580795288086,0.004713013768196106,-0.0030275732278823853,0.002658367156982422,-0.013382870703935623,-0.028182443231344223,0.03930873051285744,0.08556251960784608,0.24814448197706648,-0.008574364508289049
0.09437799453735352,0.004061207175254822,-0.008640587329864502,0.0068618059158325195,-0.019585106521844864,-0.0290096215903759,0.036757420748472214,0.0855035070926088,0.24782277385822005,-0.008158786446422603
0.10555219650268555,0.00401654839515686,-0.009482041001319885,0.008637607097625732,-0.02652738429605961,-0.02043064869940281,0.0381733663380146,0.08536343644563048,0.24753423813527,-0.007735620646270096
0.11438417434692383,0.0016696304082870483,-0.011022418737411499,0.008398652076721191,-0.0023858295753598213,-0.011735694482922554,0.04326639696955681,0.08531825895807982,0.24734066497453183,-0.00730028092118365
0.12448811531066895,-0.001061171293258667,-0.00380755215883255,0.0048334598541259766,0.020433930680155754,-0.01677679270505905,0.04723040759563446,0.0856526334539896,0.2472052188257271,-0.006882418446199102
0.13446998596191406,0.0015378892421722412,0.0014196932315826416,0.006848454475402832,0.026595953851938248,-0.02260671742260456,0.045088693499565125,0.08613617024427656,0.24703671639383346,-0.0064938212754017096
0.14446115493774414,0.001731380820274353,-0.005591273307800293,0.008676648139953613,0.01110033504664898,-0.019369512796401978,0.0440823920071125,0.08658844222145724,0.2468305267503796,-0.006109866696580955
0.15553712844848633,-0.002632841467857361,-0.011028744280338287,0.010931015014648438,-0.0071915872395038605,-0.013199502602219582,0.04688536748290062,0.08672091165639124,0.24667567411131333,-0.005674980213035415
0.1643681526184082,-0.005357414484024048,-0.01041683554649353,0.011966109275817871,-0.014643777161836624,-0.006525265518575907,0.050437066704034805,0.08676844179047402,0.24660655090756947,-0.005169736371677648
0.17446517944335938,-0.004334956407546997,-0.007694631814956665,0.011294543743133545,-0.007400778122246265,-0.009138625115156174,0.05503927543759346,0.086943080741931,0.24654706798131792,-0.004628269037350569
0.18433213233947754,-0.0024738162755966187,-0.003360927104949951,0.0062035322189331055,0.009068326093256474,-0.009733529761433601,0.0596204437315464,0.08726495080678243,0.24647562339392481,-0.004077580255484131
0.19441509246826172,-0.000786706805229187,0.002685546875,5.78761100769043e-05,0.020179033279418945,-0.01532616838812828,0.061456695199012756,0.08775910548338921,0.24635123054343835,-0.0035264217245174565
0.2064952850341797,-0.0013142973184585571,0.00026101619005203247,0.0019097328186035156,0.008782385848462582,-0.017000988125801086,0.060891784727573395,0.08809772960080747,0.2461467112250925,-0.0029628446220839565
0.21450424194335938,-0.0019673407077789307,-0.003737896680831909,0.005422055721282959,-0.006569139659404755,-0.014603608287870884,0.0657573789358139,0.08820385007709028,0.24597213610918334,-0.0023483400640909088
0.22461605072021484,-0.005125939846038818,-0.0010150820016860962,0.007928192615509033,-0.017544759437441826,-0.018917663022875786,0.06450127810239792,0.08833315681518378,0.24578551391662654,-0.001691277270195654
0.2345743179321289,-0.0051543861627578735,-0.0026878714561462402,0.007613420486450195,-0.029880519956350327,-0.021670572459697723,0.06350845098495483,0.08844610377800256,0.24553322003552233,-0.0010069608599998106
0.24463224411010742,-0.0038357824087142944,-0.005034878849983215,0.004677176475524902,-0.02835521101951599,-0.025281419977545738,0.06973987072706223,0.08849490759649856,0.24522768099333636,-0.0002800441384042627
0.25563907623291016,-0.0028652846813201904,0.0024404600262641907,0.0024635791778564453,-0.011625234968960285,-0.03307729214429855,0.07458203285932541,0.08861598859746501,0.24487346598174575,0.00047399232751445025
0.2646522521972656,-0.0032526105642318726,0.0038878098130226135,0.001679062843322754,-0.008710970170795918,-0.03531612455844879,0.07745504379272461,0.08875160865288853,0.24447198574178422,0.0012399571146259859
0.2745480537414551,-0.003130704164505005,0.0015841349959373474,0.0032665133476257324,-0.010847624391317368,-0.04179532825946808,0.07909688353538513,0.08878265677455403,0.24401502483681964,0.0020337065459712323
0.2846641540527344,-0.002891063690185547,-0.001523129642009735,0.005678653717041016,-0.01470960769802332,-0.04104280471801758,0.07809862494468689,0.08883416561841749,0.2435472541085678,0.002828893037000001
0.29479312896728516,-0.006445258855819702,-0.0009635835886001587,0.006772637367248535,-0.018727784976363182,-0.03953652083873749,0.07849010825157166,0.08892103672588877,0.24309029529379622,0.0036324901321269777
0.3061521053314209,-0.005327969789505005,-0.0011840388178825378,0.0048400163650512695,-0.019993985071778297,-0.04035482555627823,0.07749179750680923,0.08894481668587971,0.24261383287397928,0.004445127514028696
0.31473398208618164,-0.002521812915802002,-0.001806303858757019,0.0032736659049987793,-0.016070082783699036,-0.043093085289001465,0.07013801485300064,0.08899413221234813,0.24212720438927587,0.005219969481907476
0.3248000144958496,-0.004878699779510498,-0.0006217584013938904,0.0044779181480407715,-0.01672578603029251,-0.04321230575442314,0.06392139941453934,0.08909570337131528,0.24164758893526841,0.005907036900211888
0.3347811698913574,-0.004732415080070496,-0.003374531865119934,0.003907680511474609,-0.026724623516201973,-0.038604240864515305,0.05883102864027023,0.08899757276736577,0.24119441682574302,0.00655595573837842
0.3447442054748535,-0.005288541316986084,-0.006471000611782074,0.006557345390319824,-0.030982904136180878,-0.03370184451341629,0.0540623739361763,0.08876884981966923,0.24078628139084876,0.007177641928976884
0.356626033782959,-0.005906105041503906,-0.0014373883605003357,0.010929703712463379,-0.02629946917295456,-0.029395513236522675,0.05148070678114891,0.08859854485305464,0.24042724619856054,0.007764715406734064
0.3647942543029785,-0.005063459277153015,0.005305938422679901,0.011071085929870605,-0.02580403722822666,-0.02631952054798603,0.040839724242687225,0.08850557626771781,0.24012202693889761,0.008279988466703986
0.3748202323913574,-0.004365816712379456,0.002143353223800659,0.00797724723815918,-0.023615185171365738,-0.022975122556090355,0.03347901254892349,0.08839431390191295,0.23982437288091296,0.00870378592956661
0.38487720489501953,-0.0030432045459747314,0.0011132806539535522,0.006074070930480957,-0.02266433648765087,-0.01562710478901863,0.027957003563642502,0.0882793168978402,0.23959041835614925,0.009053726011395483
0.3971831798553467,-0.004411801695823669,0.007416389882564545,0.0059528350830078125,-0.017611786723136902,-0.014106174930930138,0.02169298380613327,0.08818864197590241,0.23942591255307547,0.009340227475894039
0.40973997116088867,-0.003799065947532654,0.009985275566577911,0.008613824844360352,-0.011733625084161758,-0.01752656139433384,0.013168737292289734,0.0881174805230909,0.23923270742934333,0.009550519327527785
0.41527509689331055,-0.00237978994846344,0.007845468819141388,0.010322034358978271,-0.00867072306573391,-0.013390671461820602,0.0076048607006669044,0.08811388469425357,0.23904322449646687,0.009685036282293792
0.42485809326171875,-0.00438334047794342,0.007672503590583801,0.007298886775970459,-0.009991900995373726,-0.011993622407317162,0.0009879176504909992,0.08815469786022662,0.2389069966631226,0.009748148890833752
0.43503332138061523,-0.003413975238800049,0.005490094423294067,0.006326794624328613,-0.01428278535604477,-0.01066523790359497,-0.005905674770474434,0.0880777127849045,0.23878663881946915,0.00974962411874432
0.44500017166137695,-0.0036845654249191284,0.0035975053906440735,0.007709920406341553,-0.015866052359342575,-0.007221636828035116,-0.011288882233202457,0.08784744658086759,0.23869867271592704,0.00969841481458774
0.4573521614074707,-0.0059293657541275024,0.002082712948322296,0.007866144180297852,-0.020495425909757614,-0.006469826679676771,-0.015561125241219997,0.0876287950847509,0.23863275579822035,0.009607735904545734
0.4650592803955078,-0.007170319557189941,0.0037863701581954956,0.008211135864257812,-0.012699486687779427,-0.002895863726735115,-0.01990729756653309,0.08742432976160425,0.23860202178071,0.00947635778126742
0.47502613067626953,-0.005740702152252197,0.001406446099281311,0.0061119794845581055,-0.000908341258764267,-0.002475617453455925,-0.01949930191040039,0.08721033585430518,0.2385865594207356,0.009295574902215123
0.4849710464477539,-0.003907099366188049,0.002339601516723633,0.005010426044464111,0.019128067418932915,-0.0028993715532124043,-0.018699074164032936,0.08712080768112862,0.23856627141457382,0.009090291724429399
0.4949822425842285,-0.002507627010345459,0.003704160451889038,0.0035681724548339844,0.03793903812766075,-0.006365475710481405,-0.013216691091656685,0.08728054156636737,0.23854262572876417,0.00885457525913533
0.506072998046875,-0.0007313638925552368,0.002940133213996887,0.004098951816558838,0.038093071430921555,-0.00897386483848095,-0.011181662790477276,0.08753984254245155,0.23846288226442666,0.008641831190098457
0.5150489807128906,-0.0007673054933547974,-0.005219057202339172,0.005270063877105713,0.0306647140532732,-0.005297369789332151,-0.012092197313904762,0.08777387800398548,0.23839465236357235,0.008443960392073799
0.5251071453094482,-0.003255680203437805,-0.008047953248023987,0.006227076053619385,0.02536682039499283,-0.007444056216627359,-0.00658802967518568,0.08798228505452468,0.2383373084316991,0.008293923561706365
0.535041093826294,-0.00222073495388031,-0.005141757428646088,0.00904548168182373,0.017540324479341507,-0.009521322324872017,-0.00770149752497673,0.08814252207586885,0.23823314520564523,0.00817497598817628
0.5451803207397461,-0.001126989722251892,-0.006663016974925995,0.007409870624542236,0.008341516368091106,-0.012327627278864384,-0.007289612665772438,0.08819310879360043,0.23809737519224541,0.008072471697326986
0.5560781955718994,-0.0017766058444976807,-0.009289391338825226,0.004070401191711426,-0.0017484021373093128,-0.010810690931975842,-0.008036096580326557,0.0881759237856863,0.23796419210323044,0.007986523779170565
0.5650882720947266,-0.004961103200912476,-0.01078837364912033,0.0029732584953308105,-0.006980215199291706,-0.00854700431227684,-0.006670215167105198,0.08808036568288209,0.23786282716772467,0.007927009114804005
0.575066089630127,-0.004591256380081177,-0.010262168943881989,0.0059165358543396,-0.006266487762331963,-0.006610353011637926,-0.006916557438671589,0.0879346326045782,0.23779291425660906,0.00787271734703368
0.5851140022277832,-0.004561468958854675,-0.007824189960956573,0.0053293704986572266,-0.0011183314491063356,-0.00714777922257781,-0.004766587167978287,0.08783928173212668,0.23772859075947714,0.007826573502414079
0.595177173614502,-0.0043343305587768555,-0.004831872880458832,0.00297391414642334,0.005502819083631039,-0.009707609191536903,-0.0050901612266898155,0.08793280214374113,0.23765358294699235,0.007777372441150076
0.6057562828063965,-0.002260759472846985,-0.005289644002914429,0.0037586092948913574,0.007795069366693497,-0.008316462859511375,-0.004677318036556244,0.08810129212839943,0.23756429867585116,0.007706919411103615
0.6152441501617432,-0.004237085580825806,-0.0038776248693466187,0.0035206079483032227,0.0022048272658139467,-0.007689821068197489,-0.00591755285859108,0.0882167528142186,0.23749615225813808,0.007644469816877217
0.6252779960632324,-0.004728153347969055,-0.006405234336853027,0.006562352180480957,-0.0009352390188723803,-0.0060583679005503654,-0.006542223505675793,0.08831403979613622,0.23743807802932218,0.007573463189925224
0.6352362632751465,-0.0040257275104522705,-0.005330316722393036,0.006429553031921387,0.001823529601097107,-0.006462369114160538,-0.004975485615432262,0.08842809256274392,0.23737693652009292,0.007515547977059471
0.6452922821044922,-0.005651742219924927,-0.0006151944398880005,0.0037029385566711426,0.007257543504238129,-0.006280387286096811,-0.006100884638726711,0.0885967619579676,0.23729487920851589,0.0074444220305809215
0.6564450263977051,-0.006654292345046997,-0.0002225339412689209,0.0033764243125915527,0.01564010977745056,-0.005017783027142286,-0.009746219031512737,0.08883777912602232,0.2372323289010849,0.007340554016933108
0.6653151512145996,-0.006573349237442017,0.000995539128780365,0.0009504556655883789,0.02122608944773674,5.5538956075906754e-05,-0.010160873644053936,0.08909556121714554,0.23720156857072514,0.007205653892697417
0.6752991676330566,-0.006496503949165344,-2.9765069484710693e-05,-0.000844419002532959,0.02965738996863365,0.00019109388813376427,-0.012821638025343418,0.08936834427791725,0.23720689294750855,0.007035034268938135
0.6855762004852295,-0.006649315357208252,-0.00019074231386184692,0.002999603748321533,0.03603551164269447,0.000716047827154398,-0.013266651891171932,0.08971229820484429,0.2372145995844438,0.006824397175247383
0.695336103439331,-0.004104986786842346,-0.0009082779288291931,0.0035496950149536133,0.03570874407887459,-0.0001366967335343361,-0.013367852196097374,0.09006428969151387,0.23721052614549146,0.006608719791643535
0.707308292388916,-0.003549128770828247,-0.0009373202919960022,8.606910705566406e-05,0.03438248857855797,-0.002569760661572218,-0.013171310536563396,0.09044879664509645,0.2371964131725932,0.006389959114686642
0.715177059173584,-0.0013249516487121582,-0.0020956993103027344,0.00016224384307861328,0.03346822410821915,-0.010310770943760872,-0.012971573509275913,0.09080248485345303,0.23712909975151658,0.006181272019179547
0.7253291606903076,0.0002691596746444702,-0.004511110484600067,0.0035788416862487793,0.02165863662958145,-0.01494831033051014,-0.00974733754992485,0.09102778491260308,0.23698475097768476,0.006004845841401976
0.735316276550293,0.0002350062131881714,-0.004481963813304901,0.004676103591918945,0.018778160214424133,-0.017558474093675613,-0.006206665188074112,0.09117962366877402,0.23680270153145885,0.005883935042827189
0.7454142570495605,0.0016942769289016724,-0.004035346210002899,0.005249917507171631,0.012839130125939846,-0.018777981400489807,-0.0031782248988747597,0.09129100524249767,0.2365902379879163,0.005811396238194067
0.7564163208007812,0.003268599510192871,-0.0045597851276397705,0.004564404487609863,0.004624875262379646,-0.01879582367837429,-0.0013899120967835188,0.09134662867520593,0.23636806571756674,0.005775979304212068
0.7654709815979004,0.002711936831474304,-0.006666630506515503,0.0047588348388671875,-0.0018647323595359921,-0.022875122725963593,0.003581517143175006,0.09134550205289019,0.23612346293255687,0.005794819777322352
0.7755801677703857,0.001676708459854126,-0.007561646401882172,0.008747100830078125,-0.009613731876015663,-0.026920992881059647,0.008078531362116337,0.09130481268258551,0.23585220495846657,0.0058724286235983985
0.7854290008544922,0.0008731335401535034,-0.006255947053432465,0.014820218086242676,-0.014661720022559166,-0.027458690106868744,0.009884740225970745,0.09120628883052856,0.23556108517714688,0.005996085327384709
0.7954680919647217,0.0009005814790725708,-0.006396204233169556,0.01503300666809082,-0.018740618601441383,-0.029025692492723465,0.013724485412240028,0.09109609677770168,0.23527822817009883,0.0061477600945749646
0.8057422637939453,0.0003951042890548706,-0.001196637749671936,0.011199593544006348,-0.02085540071129799,-0.02863846719264984,0.014531743712723255,0.09101578240766801,0.2349948690299448,0.0063343736865886435
0.8153641223907471,-0.00029847025871276855,-0.0014496371150016785,0.010236144065856934,-0.029494429007172585,-0.02370576187968254,0.013456891290843487,0.09086898666776144,0.23473098367166575,0.006530548267660314
0.825376033782959,-0.0004738718271255493,-0.002324320375919342,0.008356332778930664,-0.03220902383327484,-0.024940669536590576,0.013442456722259521,0.09064953828961969,0.23449770829900435,0.006732342664254177
0.8354451656341553,0.00118333101272583,0.0010213851928710938,0.014225959777832031,-0.04076389595866203,-0.03712782636284828,0.013702914118766785,0.09040843536310413,0.23421514017340522,0.00693846268026109
0.8454041481018066,0.0031337887048721313,-0.0020497888326644897,0.022647440433502197,-0.039275120943784714,-0.0494670532643795,0.008566315285861492,0.0901591202459593,0.23378725745969192,0.007147206977282819
0.856680154800415,0.003094390034675598,-0.009673431515693665,0.022505462169647217,-0.025568896904587746,-0.040034402161836624,0.0039409371092915535,0.08996572316645883,0.23335129956987116,0.00725090012530519
0.8655891418457031,-0.004033967852592468,0.004843294620513916,0.015574753284454346,-0.032729003578424454,-0.033638641238212585,0.0025825118646025658,0.08978751770923361,0.23303512264801482,0.007387681108649114
0.8754711151123047,0.004946157336235046,0.0027159452438354492,0.011018037796020508,-0.05570702627301216,-0.032074566930532455,-0.0026418110355734825,0.08945938811002616,0.23273651661137718,0.007448501412988378
0.8856019973754883,0.0026858747005462646,-0.0016773715615272522,0.009887456893920898,-0.03629852086305618,-0.034404877573251724,0.004683799110352993,0.08909293329912835,0.23241591795388597,0.007590587173123698
0.8960671424865723,-0.004527166485786438,0.006391696631908417,0.0027767419815063477,-0.02749411202967167,-0.02751607820391655,-0.009191536344587803,0.08881434012359375,0.23212218106839538,0.007624702290519557
0.9055490493774414,-0.003667190670967102,0.002139844000339508,-0.00039649009704589844,-0.01139720156788826,-0.022981515154242516,0.0015318950172513723,0.08866653369997742,0.2319087841411965,0.007622116474629724
0.9155693054199219,-0.005958452820777893,0.006693989038467407,0.0010939836502075195,0.014710299670696259,-0.011922471225261688,0.007003092672675848,0.08873486097685497,0.23177107974896857,0.007657267186698506
0.9255871772766113,-0.013083621859550476,0.008612506091594696,0.003770172595977783,0.02276589535176754,-0.0024867146275937557,0.00252264435403049,0.08900648868933039,0.2317760906814305,0.007645883137825982
0.9356801509857178,-0.009685978293418884,0.0022507458925247192,0.008552610874176025,0.017082177102565765,-0.0011828308925032616,-3.0794646590948105e-05,0.08934468797217861,0.23181991680479702,0.007607883498716318
0.947019100189209,-0.011640667915344238,-0.0018382743000984192,0.015724897384643555,0.0043191611766815186,0.007086062803864479,-0.00040752545464783907,0.08942161225168989,0.2318546248153233,0.007573232161912148
0.9566183090209961,-0.014900833368301392,-0.008451752364635468,0.016443967819213867,-0.011723987758159637,0.011846463195979595,-0.00428828364238143,0.08935388303939676,0.2320052309570681,0.007560336787963139
0.9655699729919434,-0.00766126811504364,-0.009578093886375427,0.013992726802825928,-0.01798827573657036,0.0038462383672595024,-0.005454002879559994,0.08920350666960544,0.23210514214824987,0.0075434936510924856
0.9756240844726562,-0.0018185526132583618,-0.005820333957672119,0.009131014347076416,-0.006991816684603691,-0.004046039655804634,-0.00036390277091413736,0.08900847475424611,0.23208673997426507,0.007540170328583145
0.9856901168823242,-9.100139141082764e-05,-0.0013898983597755432,0.0004080533981323242,-0.002264373004436493,-0.005534036550670862,-0.001647759461775422,0.08895260114841493,0.23201916907793987,0.007554363364135687
0.9958491325378418,-0.0002707242965698242,-0.0020395293831825256,-0.0024967193603515625,-0.005402375943958759,-0.01218048669397831,0.0004928894340991974,0.088836573062187,0.2318873127772144,0.007562008914726322
1.006546974182129,0.0003009885549545288,-0.004857420921325684,-0.002317070960998535,-0.013626599684357643,-0.009348082356154919,0.002286102157086134,0.08865775020907708,0.23170305539193425,0.007600424316770417
1.015660285949707,-0.0019000619649887085,-0.007690690457820892,0.0006604194641113281,-0.024403348565101624,-0.007119815796613693,0.0003222874365746975,0.0884788039723723,0.2315615543159767,0.0076697871409117805
1.0257701873779297,-0.004184648394584656,-0.007432594895362854,0.001746535301208496,-0.03740015625953674,-0.0062277899123728275,0.004749845713376999,0.08823239691826279,0.23144185798874975,0.007772626610770531
1.0357251167297363,-0.005609169602394104,-0.0069211870431900024,0.0028815865516662598,-0.0458809919655323,-0.0034181554801762104,0.002704538172110915,0.08796456101099492,0.23131602740163068,0.007905295777074023
1.0456910133361816,-0.006488204002380371,-0.010505788028240204,0.0016145110130310059,-0.0634467676281929,-0.0017342381179332733,0.0063550397753715515,0.08759816373774032,0.23125505731748025,0.00806927186839104
1.0563831329345703,-0.004700988531112671,-0.014919325709342957,0.0010800361633300781,-0.08692093938589096,0.0005712602287530899,-0.0007494752062484622,0.0869664102969594,0.2312243133324489,0.008264778329806217
1.065859317779541,-0.002514883875846863,-0.017370328307151794,0.005373895168304443,-0.0984712466597557,0.005123001988977194,0.003778963815420866,0.08609906598232471,0.23124956847976502,0.008489238480371386
1.0766572952270508,-0.0005197227001190186,-0.017738603055477142,0.0032019615173339844,-0.11233007162809372,-0.00521805277094245,0.0036631161347031593,0.08514746514949469,0.23121845246673017,0.008774317716284272
1.0857081413269043,0.0023619383573532104,-0.015377171337604523,0.0040212273597717285,-0.14902916550636292,-0.011374037712812424,-0.0017598253907635808,0.08399526387698303,0.23111914218488783,0.009070798685703608
1.0958991050720215,0.003373086452484131,-0.016699671745300293,0.009411036968231201,-0.2233007252216339,0.0008746390230953693,-0.0018511718371883035,0.08234663413586693,0.23101968799794922,0.009485808545135851
1.106398105621338,-0.0020834654569625854,-0.020155616104602814,0.01410377025604248,-0.30989500880241394,0.009404299780726433,-0.0007094212342053652,0.07993561300256126,0.2310144721581583,0.010083028832561515
1.1159141063690186,-0.0038140565156936646,-0.029374107718467712,0.0163726806640625,-0.431458443403244,0.009459959343075752,-0.01571793109178543,0.07652028245641324,0.23103664840271143,0.010864217139031133
1.1259231567382812,0.002168521285057068,-0.036803148686885834,0.018711209297180176,-0.6024665832519531,0.00016481755301356316,-0.02736601233482361,0.07171780980261427,0.2309987524532144,0.01181079732580017
1.135939121246338,0.008073762059211731,-0.03906840831041336,0.025559961795806885,-0.7521493434906006,-0.021225692704319954,-0.010265588760375977,0.06543998542228306,0.23077162137295862,0.013181118611117855
1.145942211151123,0.009238630533218384,-0.024793360382318497,0.0230901837348938,-0.898702085018158,-0.030803972855210304,-0.04803347587585449,0.05783472124271094,0.23042051099532876,0.014831658025859082
1.1562581062316895,0.009562596678733826,-0.04283493012189865,0.017037153244018555,-1.098940372467041,-0.07050637900829315,-0.09018545597791672,0.04847741487841204,0.2298450912144234,0.01637059524091894
1.165802001953125,0.006888225674629211,-0.08505454659461975,0.0164259672164917,-1.4127308130264282,-0.11681181937456131,-0.07762918621301651,0.03609283905826795,0.2288016732666905,0.0184190052761434
1.1760361194610596,0.0029117465019226074,-0.11814698576927185,0.017676889896392822,-1.6817023754119873,-0.1110849604010582,-0.10687202215194702,0.020755282300390317,0.22764413271961306,0.02105719124009627
1.1859440803527832,-0.008978024125099182,-0.11688823252916336,0.010963261127471924,-1.9195817708969116,-0.12241271883249283,-0.1434348225593567,0.002923809626959566,0.22645526039102773,0.02389346088218495
1.1962890625,-0.007701903581619263,-0.08933833986520767,0.022242248058319092,-2.1682164669036865,-0.16225627064704895,-0.1731322705745697,-0.017378740345104192,0.22505425990415184,0.02692373557547381
1.2082819938659668,-0.00012351572513580322,-0.11130707710981369,0.03426116704940796,-2.45597767829895,-0.18444892764091492,-0.19385698437690735,-0.04031882663026746,0.22340992046911004,0.03027628436934347
1.2159152030944824,-0.008577808737754822,-0.1294770985841751,0.03025674819946289,-2.6503148078918457,-0.16186530888080597,-0.19147489964962006,-0.06577325687123407,0.221899347874553,0.03399979267683637
1.2259440422058105,-0.012238413095474243,-0.12441359460353851,0.00341796875,-2.8729519844055176,-0.15859167277812958,-0.1716693490743637,-0.09296169814228605,0.22057976210705255,0.038339185450443396
1.2359321117401123,0.00408567488193512,-0.10025382786989212,-0.009325623512268066,-3.0926589965820312,-0.14293122291564941,-0.15207406878471375,-0.12259434715656156,0.21961701753320118,0.043272752691204716
1.2460002899169922,0.013165980577468872,-0.08414891362190247,-0.024056315422058105,-3.1891541481018066,-0.13122126460075378,-0.11043836176395416,-0.1535689194430214,0.2190282481428945,0.04891289390374411
1.256155014038086,0.010094419121742249,-0.08471320569515228,-0.00939488410949707,-3.2681994438171387,-0.13481546938419342,-0.0882028341293335,-0.1853359938180818,0.21870350373014125,0.055056604301804014
1.265977144241333,0.0034316331148147583,-0.06945870816707611,0.03067535161972046,-3.311354875564575,-0.14117957651615143,-0.03900988772511482,-0.21765755582802507,0.21871352262653954,0.06168302411930928
1.2760372161865234,0.006847113370895386,-0.024113014340400696,0.04918712377548218,-3.3087966442108154,-0.21087822318077087,0.01189164537936449,-0.2500220996981122,0.21864571970935373,0.06895464617499171
1.2859282493591309,0.016933545470237732,-0.016371071338653564,0.06640112400054932,-3.3211498260498047,-0.22041961550712585,0.02401568554341793,-0.28231324246288964,0.21846199343581293,0.07660034019516133
1.2960221767425537,0.013580352067947388,-0.06031441688537598,0.06587964296340942,-3.533965826034546,-0.2511064112186432,-0.03266996517777443,-0.31573237747813376,0.2184879544885216,0.08435514380149937
1.3064312934875488,0.010087966918945312,-0.08192634582519531,0.07962769269943237,-3.8420748710632324,-0.34468716382980347,-0.0785587877035141,-0.3517869385227719,0.21806591331338052,0.09217040545947855
1.3160631656646729,0.012192264199256897,-0.14146879315376282,0.10129356384277344,-4.1662468910217285,-0.2773587107658386,-0.06443950533866882,-0.3911595577143901,0.21789197480373415,0.10074106283167565
1.3263311386108398,0.014534160494804382,-0.1753370761871338,0.10836434364318848,-4.528624534606934,-0.2765861749649048,-0.1028793603181839,-0.4339458750190322,0.2190554882801401,0.11020458608576439
1.3360741138458252,-0.0021923035383224487,-0.10468024015426636,0.1443706750869751,-4.553686141967773,-0.34818151593208313,-0.1276949644088745,-0.47867859942776375,0.2201982343407547,0.11996059902944478
1.3460371494293213,-0.020362287759780884,-0.047237783670425415,0.12049698829650879,-4.5445380210876465,-0.36722657084465027,-0.09345544874668121,-0.523383331698328,0.22151884041914,0.13014422536947676
1.3564281463623047,-0.018762439489364624,-0.021075665950775146,0.0899612307548523,-4.624549388885498,-0.38865381479263306,-0.13486573100090027,-0.5682770551075589,0.22318380911091437,0.14066926657971737
1.3660521507263184,-0.0107756108045578,-0.06274110078811646,0.07397294044494629,-4.829036712646484,-0.3712972402572632,-0.15039190649986267,-0.6146683243022018,0.22551631181312357,0.15164784059295433
1.3761839866638184,-0.005347743630409241,-0.10307502746582031,0.05553990602493286,-5.075341701507568,-0.3564615547657013,-0.17583894729614258,-0.6632663306494352,0.2290334016589425,0.16358606305154977
1.3860721588134766,-0.009749636054039001,-0.13081645965576172,0.0591854453086853,-5.268268585205078,-0.3117734491825104,-0.21633252501487732,-0.7142453070056115,0.23381632183551135,0.17650611112397302
1.396228313446045,-0.023357510566711426,-0.11155873537063599,0.03748917579650879,-5.275084018707275,-0.20312100648880005,-0.2059376835823059,-0.7662065387826358,0.24065486840878406,0.19049527350018997
1.406404972076416,-0.03098370134830475,-0.0158272385597229,-0.021315336227416992,-5.041509628295898,-0.18538786470890045,-0.17066235840320587,-0.8168489289765891,0.24965053626291156,0.2057799749378365
1.4162211418151855,-0.010876134037971497,0.019292831420898438,-0.0237123966217041,-4.726283550262451,-0.2104032039642334,-0.12858520448207855,-0.864611735720981,0.2598417473038623,0.22210017221414274
1.4262990951538086,0.006269484758377075,0.02875673770904541,-0.028721988201141357,-4.376471996307373,-0.2218594253063202,-0.13671189546585083,-0.9088940726364355,0.27080585967320603,0.23907123190110274
1.4363250732421875,0.013494685292243958,0.045794129371643066,-0.038512349128723145,-4.073782920837402,-0.253970742225647,-0.15745046734809875,-0.9499432440042762,0.281932229788215,0.2559175058997621
1.4463841915130615,0.033083319664001465,0.026219069957733154,-0.04313093423843384,-3.7812013626098633,-0.27314630150794983,-0.1367325633764267,-0.9880814911857506,0.29354019214724797,0.2731653512177427
1.4575190544128418,0.028307050466537476,0.027301013469696045,-0.007072746753692627,-3.492649555206299,-0.27872854471206665,-0.15716113150119781,-1.023334128783049,0.3054914967009984,0.2906235740761414
1.4662222862243652,0.009772881865501404,0.07313841581344604,0.003357529640197754,-3.055572509765625,-0.21657095849514008,-0.08777263015508652,-1.055031396854113,0.3180772657394651,0.30812381500457825
1.4762351512908936,0.016070976853370667,0.12629783153533936,-0.018188565969467163,-2.742786169052124,-0.280034601688385,-0.07218648493289948,-1.0826272413603613,0.3310546374900686,0.325746493370998
1.4862401485443115,0.018484532833099365,0.09789091348648071,0.004566371440887451,-2.5165765285491943,-0.31426653265953064,-0.09802212566137314,-1.1076072632566796,0.34328151861657186,0.3429555526562116
1.4963722229003906,0.010428041219711304,0.03205221891403198,0.004407107830047607,-2.4921772480010986,-0.2815091013908386,-0.11904298514127731,-1.1314282450421003,0.3559125584279288,0.3602415414679671
1.5064260959625244,0.0016882717609405518,0.03570502996444702,0.0049269795417785645,-2.6014251708984375,-0.31207865476608276,-0.13549956679344177,-1.1556815879028677,0.37019237528272303,0.3791568568568374
1.5164971351623535,0.009078994393348694,0.0009285211563110352,0.010894358158111572,-2.8160440921783447,-0.2778559625148773,-0.17822812497615814,-1.181451310871408,0.3874939510764815,0.4012451998505952
1.526341199874878,0.0002629905939102173,-0.06573468446731567,0.009152323007583618,-2.9463653564453125,-0.19931483268737793,-0.2728467285633087,-1.2090266493726396,0.40825983951750516,0.42614011609304375
1.536419153213501,-0.03295326232910156,-0.037850141525268555,0.008391648530960083,-2.835170030593872,-0.17155909538269043,-0.27632108330726624,-1.236803335999769,0.4321329028738699,0.4534609025346393
1.5463271141052246,-0.010901719331741333,0.06694573163986206,-0.019313812255859375,-2.3797733783721924,-0.21748939156532288,-0.20189839601516724,-1.2615228880459024,0.4576539167377493,0.4823721250769216
1.5565741062164307,0.0331457257270813,0.15151244401931763,-0.061860352754592896,-1.8289843797683716,-0.29930222034454346,-0.14622928202152252,-1.2810633500056614,0.4807649043242198,0.5092782136254093
1.566418170928955,0.04704350233078003,0.17236387729644775,-0.09976345300674438,-1.3779089450836182,-0.3468637764453888,-0.06577587872743607,-1.2955976608208333,0.5001943434509354,0.532843213445244
1.576512098312378,0.03329063951969147,0.16706585884094238,-0.07600608468055725,-1.096379280090332,-0.3918009102344513,0.012646757066249847,-1.306489011944742,0.5172655194982064,0.554413479122041
1.5864043235778809,0.011897876858711243,0.1181788444519043,-0.022316008806228638,-1.1001625061035156,-0.441335529088974,0.051217105239629745,-1.3156303809726568,0.5346221145733229,0.5766827625638763
1.5964770317077637,-0.007290750741958618,0.05222642421722412,0.02354612946510315,-1.2843313217163086,-0.4401472210884094,0.1039881780743599,-1.3253797884868619,0.556734543663582,0.6041037687261488
1.606701135635376,-0.023563876748085022,-0.019839346408843994,0.0583513081073761,-1.4758449792861938,-0.44283732771873474,0.06878384947776794,-1.3365500558431924,0.5865372810593904,0.6393120987906896
1.61669921875,-0.045873209834098816,-0.09350007772445679,0.07968926429748535,-1.5849463939666748,-0.4373789131641388,-0.056005217134952545,-1.3491385954551431,0.6197319967590685,0.6779308779441271
1.626847267150879,-0.048974454402923584,-0.13326311111450195,0.027205705642700195,-1.6120781898498535,-0.4253906309604645,-0.16606909036636353,-1.3627297060571426,0.6553721735879012,0.7188231228651094
1.6365790367126465,-0.02659974992275238,-0.09102970361709595,-0.050371453166007996,-1.4754031896591187,-0.3988892734050751,-0.2666279375553131,-1.376330572745595,0.6903018102582571,0.7586840009179628
1.6465601921081543,-0.01243516057729721,-0.009106338024139404,-0.0779426097869873,-1.2393975257873535,-0.38099783658981323,-0.24139325320720673,-1.388308511591043,0.7220964053156497,0.7950061797720881
1.656682014465332,0.019048742949962616,0.061881184577941895,-0.10902248322963715,-1.1900115013122559,-0.40289995074272156,-0.20314227044582367,-1.398668494985083,0.7543066002132214,0.8316942653969298
1.6664421558380127,0.0556902140378952,0.038304150104522705,-0.14252012968063354,-1.262262225151062,-0.3583373725414276,-0.2231951653957367,-1.4089645575382181,0.7924620611329896,0.874327556529368
1.676589012145996,0.022702574729919434,0.007300317287445068,-0.10992710292339325,-1.3521015644073486,-0.2755815088748932,-0.2658904492855072,-1.419622094260705,0.8386086442235612,0.9242359345008959
1.6864652633666992,-0.004880361258983612,0.003953814506530762,-0.05087100714445114,-1.4808785915374756,-0.24419139325618744,-0.29268237948417664,-1.430914602472584,0.8975899367078456,0.9864439548578992
1.6966490745544434,0.010683514177799225,-0.03144639730453491,0.010611072182655334,-1.6291698217391968,-0.2281104326248169,-0.40417852997779846,-1.4430352275546325,0.9731766844879479,1.0651077624384253
1.7075200080871582,-0.011571325361728668,-0.05099666118621826,0.08677900582551956,-1.5624401569366455,-0.19524458050727844,-0.3561859726905823,-1.4548675985193857,1.0672001695549307,1.1619204220194121
1.7167401313781738,-0.01749292016029358,0.015426933765411377,0.08404910564422607,-1.2428985834121704,-0.19833065569400787,-0.38523921370506287,-1.4643378265461002,1.1640104584515547,1.2613637893451588
1.7267022132873535,-0.012211404740810394,0.033740878105163574,0.034781698137521744,-0.8880336284637451,-0.1716744601726532,-0.32450416684150696,-1.4715880555603886,1.2463140197392644,1.3459422270574788
1.7366180419921875,-0.01754290610551834,0.07962936162948608,0.04685097932815552,-0.5855366587638855,-0.19946028292179108,-0.2548965811729431,-1.4764279491531744,1.3076318844991444,1.4094054050524711
1.7465221881866455,-0.009397558867931366,0.07474076747894287,0.061396121978759766,-0.47417977452278137,-0.20254945755004883,-0.22437404096126556,-1.4799557701022579,1.353164479479537,1.4571805942235616
1.7570672035217285,-0.014034032821655273,-0.019287943840026855,0.04475367069244385,-0.5502817034721375,-0.1515006572008133,-0.21157249808311462,-1.483081720305743,1.402264466299365,1.5082866173827796
1.7667431831359863,-0.032026492059230804,-0.07765012979507446,0.00930410623550415,-0.6466485857963562,-0.10170957446098328,-0.18931731581687927,-1.485882993766577,1.4662999134844101,1.5738118191767245
1.779008150100708,-0.015304431319236755,-0.07187789678573608,-0.040797412395477295,-0.6865557432174683,-0.08801426738500595,-0.13894122838974,-1.4880175156921884,1.5449015006280278,1.6536450655155857
1.787034034729004,0.013915248215198517,-0.018438279628753662,-0.06236004829406738,-0.49117106199264526,-0.08240333944559097,-0.099419966340065,-1.4890895641731916,1.6167725481910002,1.726600766814309
1.796943187713623,0.0015772059559822083,0.02147001028060913,-0.019001126289367676,-0.30304190516471863,-0.08633097261190414,-0.07896368950605392,-1.4897611184880923,1.6644799940600488,1.7753208536468315
1.8068289756774902,-0.004574760794639587,0.02997976541519165,0.01600062847137451,-0.2160481959581375,-0.10417166352272034,-0.03365027531981468,-1.4900081405486894,1.6954146998368689,1.8072909735207339
1.8169910907745361,0.009801201522350311,0.017643451690673828,0.03594470024108887,-0.1353520154953003,-0.11554202437400818,-0.03596695885062218,-1.490096466117593,1.716938474869102,1.8300036449062826
1.8267381191253662,-0.0009133592247962952,-0.005354642868041992,0.04591929912567139,0.07620363682508469,-0.09427092224359512,-0.015856683254241943,-1.4903241471693316,1.720868408357245,1.8349916438706326
1.839961051940918,-0.013319998979568481,0.03519439697265625,0.03881180286407471,0.33060184121131897,-0.09734420478343964,0.04167452082037926,-1.4904344209616822,1.6941721396887959,1.8091535184205059
1.8467812538146973,-0.002089686691761017,0.05683499574661255,0.0018299827352166176,0.3509599566459656,-0.08738354593515396,0.03897450119256973,-1.4903907558693648,1.6485863795253541,1.764369271686004
1.8569421768188477,0.00554686039686203,0.004228353500366211,-0.017134785652160645,0.2248648852109909,-0.0534902885556221,0.052645839750766754,-1.49012871693632,1.6115102278243476,1.7279149956345785
1.8667659759521484,-0.001580566167831421,-0.03144395351409912,-0.0105513334274292,0.10001830756664276,-0.010617166757583618,0.034040141850709915,-1.4897176021922507,1.5916144449637388,1.7082651145815593
1.8769850730895996,-0.01750609278678894,-0.029543817043304443,0.017550349235534668,0.11015962064266205,0.01305407378822565,0.027963075786828995,-1.4894305495016171,1.5797732943186307,1.6963630719688672
1.886756181716919,-0.01934363692998886,0.00583493709564209,0.026761412620544434,0.17350874841213226,0.019030429422855377,0.03785378858447075,-1.4891329215489573,1.5624086846540073,1.678776965530745
1.8970422744750977,-0.009382389485836029,0.045894622802734375,0.0181846022605896,0.2165619432926178,0.021296778693795204,0.07396171987056732,-1.488508041549349,1.5385355251289041,1.654620445955724
1.9067330360412598,-0.011458076536655426,0.03472834825515747,0.03202235698699951,0.17943942546844482,0.04058432579040527,0.061473626643419266,-1.4877320355739547,1.5147444858200643,1.6304649058897192
1.9170832633972168,-0.025093838572502136,-0.013630211353302002,0.037563323974609375,0.1478378176689148,0.07394254207611084,0.05656595528125763,-1.487040626273722,1.4967210198680947,1.611800168430827
1.926846981048584,-0.027819395065307617,-0.021986842155456543,0.022031188011169434,0.13175778090953827,0.116492360830307,0.04372537136077881,-1.4864333462886372,1.4814305181220258,1.5955298027410556
1.9372162818908691,-0.023707717657089233,-0.01025623083114624,0.001818598248064518,0.0148982685059309,0.18638674914836884,0.04498451203107834,-1.4859319139262395,1.4735789522493394,1.5860845247482431
1.9468460083007812,-0.028291046619415283,-0.012784361839294434,0.004489303566515446,-0.041727542877197266,0.10303447395563126,0.03680993616580963,-1.4855157160399977,1.4780077534551064,1.5889989691182007
1.9578521251678467,-0.015661388635635376,-0.0399816632270813,0.013585448265075684,-0.03551359102129936,0.07198760658502579,0.0162306260317564,-1.4854095296292618,1.486723799905829,1.5968581660474284
1.9670419692993164,-0.005521237850189209,-0.016319870948791504,0.0029508471488952637,0.06449936330318451,0.06055847555398941,0.05878820642828941,-1.4851058371207735,1.4904117555216403,1.5998265569717303
1.9771251678466797,-0.016444355249404907,0.022042691707611084,-0.01451963186264038,0.13926734030246735,0.057876672595739365,0.04144889861345291,-1.484549679892484,1.481320159102392,1.590096603026142
1.9867992401123047,-0.02345014363527298,-0.008996129035949707,-0.01079416275024414,0.14447583258152008,0.03785320743918419,0.05009623244404793,-1.4840485585903953,1.4694257700192745,1.577639611754847
1.9971210956573486,-0.013664230704307556,-0.018594801425933838,-0.0019221315160393715,0.08680401742458344,0.026698557659983635,0.04895640164613724,-1.4835329710764968,1.4613222559685393,1.569152796446048
2.0068860054016113,-0.006014861166477203,-0.02544349431991577,-0.012139261700212955,0.047257207334041595,0.00680145900696516,0.04321121796965599,-1.4831554669879865,1.4583911196843549,1.5659933462258004
2.0169739723205566,-0.005169853568077087,-0.032221972942352295,0.002604842185974121,0.031851883977651596,-0.014359218999743462,0.03656503185629845,-1.4828465851109243,1.4548904369095625,1.5625337710254095
2.0268771648406982,0.0014507696032524109,-0.01846444606781006,-0.005704224109649658,0.05578767880797386,-0.014698860235512257,0.0491429828107357,-1.4825668463882438,1.4518662087589087,1.5596446684682976
2.0389842987060547,0.0037564411759376526,0.015198707580566406,-0.021017132326960564,0.11851124465465546,-0.03247625753283501,0.04925590381026268,-1.4820214766861075,1.444366622594082,1.552327751831921
2.046980142593384,0.000327281653881073,0.02016162872314453,-0.007147669792175293,0.09612207114696503,-0.02513751946389675,0.0410362146794796,-1.4814658081611356,1.4334355595544326,1.541638721769208
2.0572152137756348,-0.003199629485607147,-0.004895567893981934,0.006457863375544548,0.027790680527687073,-0.017888661473989487,0.02924746461212635,-1.4811506972927302,1.4246838307510483,1.5330713260191746
2.067087173461914,-0.004171483218669891,-0.005540013313293457,0.011557996273040771,-0.01206205878406763,-0.013426093384623528,0.014606896787881851,-1.4810194398156629,1.4226198266247612,1.5311700504928372
2.077207088470459,-0.002981118857860565,-0.004448592662811279,0.007601797580718994,-0.0537080392241478,-0.001587009523063898,0.0018029515631496906,-1.4810996049894465,1.4263222811161849,1.5349651382710119
2.088825225830078,-0.0016115009784698486,0.011018872261047363,0.0027664881199598312,-0.007694625295698643,-0.009028547443449497,0.03304598480463028,-1.480985678669655,1.4285493030778533,1.5372579397065866
2.0971031188964844,0.012493588030338287,0.03799182176589966,-0.01143580675125122,0.01798517070710659,-0.012797453440725803,0.02553427405655384,-1.4806965491411828,1.4284534721314377,1.5372802506053012
2.1070690155029297,0.01214645802974701,0.016972362995147705,-0.018779873847961426,-0.007845742627978325,0.012308476492762566,0.0200149267911911,-1.4804470009517003,1.4280444456126342,1.5368833838504674
2.1171011924743652,-0.00254889577627182,-0.005168914794921875,0.013061640784144402,0.005018124356865883,0.009840259328484535,0.008429375477135181,-1.4802883575340609,1.4254368393603354,1.5341718344633182
2.1272172927856445,0.00022184103727340698,0.00613248348236084,0.018715498968958855,0.11154697835445404,0.002613550052046776,0.034320466220378876,-1.4800101264480632,1.4191565847656389,1.5278122485739758
2.138533115386963,0.00784873217344284,0.027712225914001465,-0.0008908500894904137,0.17398585379123688,-0.0047689988277852535,0.031751848757267,-1.4794626968417794,1.4042972930206499,1.5129066137369154
2.1472010612487793,0.0014242380857467651,0.014306128025054932,3.06982547044754e-05,0.09463898837566376,-0.0023174257948994637,0.009680476039648056,-1.4790592993195686,1.3917794176556262,1.5003535647121249
2.1572322845458984,-0.006663411855697632,-0.03858816623687744,0.02857166714966297,-0.04199129715561867,0.0065956418402493,-0.02663279138505459,-1.4791394727675695,1.3910347340029394,1.4995805811899854
2.167307138442993,-0.006828576326370239,-0.062136173248291016,0.03234410285949707,-0.08968672901391983,0.02525574527680874,-0.043397124856710434,-1.4796823827590975,1.3992871299418395,1.5077095979925141
2.1771750450134277,-0.003910243511199951,-0.02154386043548584,0.01084679365158081,-0.015569625422358513,0.025659212842583656,-0.041718266904354095,-1.4801435492035395,1.4036836034921463,1.5118746143072905
2.188458204269409,0.0029891133308410645,0.012760818004608154,-0.013531208038330078,0.026820076629519463,0.019132427871227264,-0.039400890469551086,-1.480449150007839,1.4001363423033921,1.5080844315411863
2.197296142578125,0.0046380385756492615,0.011371731758117676,0.0028584012761712074,0.007401902694255114,0.012377053499221802,-0.03208332508802414,-1.4807930329722099,1.3992856977476773,1.5070643781647985
2.2076821327209473,0.006323419511318207,-0.002009272575378418,0.007305920124053955,-0.011474533006548882,0.02193775773048401,-0.031210072338581085,-1.4811230510114455,1.4020275881160045,1.5096244762559026
2.2171483039855957,0.0007389262318611145,-0.007773280143737793,-0.002060236409306526,0.02679349295794964,0.019578196108341217,-0.03201807662844658,-1.4814231432575389,1.4012545201216255,1.5086119669921554
2.227180004119873,-0.0007404983043670654,0.005433440208435059,0.008457005023956299,0.10451916605234146,-0.0026200059801340103,-0.009575563482940197,-1.4815044900935037,1.3935817247064475,1.5008288321570828
2.238457202911377,0.007274210453033447,0.02193272113800049,0.010717391967773438,0.17209474742412567,-0.014368006959557533,0.014943628571927547,-1.4812830563280412,1.3818500494308212,1.4891080665344887
2.2471842765808105,0.006719529628753662,0.011890232563018799,0.010792434215545654,0.21988284587860107,-0.020674996078014374,0.015878450125455856,-1.4807966981752028,1.3647155500970858,1.472056541698947
2.2573699951171875,-0.0060262903571128845,-0.004048347473144531,0.015834689140319824,0.20634838938713074,-0.013354498893022537,0.010958526283502579,-1.4802129210962651,1.343531489668379,1.4509506149224758
2.267268180847168,-0.010299526154994965,-0.025371015071868896,0.0162200927734375,0.11192070692777634,-0.005259419791400433,-0.0053443871438503265,-1.4797756008898062,1.3250843470569011,1.43253328044719
2.2775042057037354,-0.008763648569583893,-0.04372763633728027,0.01886463351547718,-9.770807810127735e-05,0.01283462904393673,-0.023042690008878708,-1.4797780014738309,1.319998435004979,1.4273874558240371
2.289762020111084,-0.005065403878688812,-0.04788249731063843,0.017018316313624382,-0.07334432750940323,0.025186724960803986,-0.029107611626386642,-1.4801660545420925,1.3255193274190094,1.432721113064906
2.297689199447632,-0.004697516560554504,-0.03154730796813965,0.017447231337428093,-0.036000147461891174,0.02027319185435772,-0.029285777360200882,-1.48058176616386,1.3320273233879172,1.439013262541565
2.3072941303253174,-0.0020393729209899902,-0.002550065517425537,0.01380080170929432,0.03392462432384491,0.007953720167279243,-0.01656508259475231,-1.4808570473186917,1.333022013100082,1.4398550625437478
2.3173820972442627,0.002075493335723877,0.01566976308822632,0.014237461611628532,0.04450057074427605,0.0005983361043035984,-0.005703380797058344,-1.4808497555865878,1.3299669105556398,1.4367373726448822
2.3273839950561523,-0.00022190064191818237,-0.004320621490478516,0.020796475932002068,0.018518269062042236,0.008296824991703033,-0.010831723921000957,-1.4808646798806733,1.3289026932929535,1.4356170832137354
2.339224100112915,-0.009571962058544159,-0.030353426933288574,0.0223806481808424,-0.009791931137442589,0.014424758031964302,-0.00994728785008192,-1.4810495234044785,1.3307043655641264,1.437293535363873
2.3473873138427734,-0.008394747972488403,-0.025147318840026855,0.017986536026000977,-0.0020918333902955055,0.018318653106689453,-0.0016834459966048598,-1.4811870211991955,1.3340098054758793,1.440418213931433
2.3573570251464844,-0.0026344507932662964,-0.014133632183074951,0.006061553955078125,0.0609758123755455,0.022665198892354965,-0.0014600066933780909,-1.481222584132841,1.3338288457335898,1.4400074946482866
2.3674139976501465,-0.0029864758253097534,-0.0013333559036254883,-9.518861770629883e-05,0.16528508067131042,0.02137037180364132,0.02156515046954155,-1.480902426361502,1.3244432790871221,1.4303379306346689
2.377371311187744,0.0013721436262130737,0.019237935543060303,-0.006212830543518066,0.25845178961753845,0.015764949843287468,0.023036813363432884,-1.4801978510638831,1.3049439629412491,1.4105506146484006
2.3886260986328125,0.004816614091396332,0.01573812961578369,-0.010202288627624512,0.39953428506851196,0.04163707047700882,0.038803793489933014,-1.4790853169657827,1.2750332201273495,1.380221113544629
2.3975419998168945,0.0030138343572616577,0.01349031925201416,-0.010265527293086052,0.5341958999633789,0.05362342670559883,0.045608434826135635,-1.4773210468691276,1.2310939079090601,1.3355960500222142
2.407384157180786,-0.009916141629219055,0.03454399108886719,0.022768620401620865,0.6280163526535034,0.07610379159450531,0.10801173001527786,-1.4746169130503193,1.1812283155046026,1.2848116080075436
2.4174351692199707,-0.008181296288967133,0.02099621295928955,0.03195572271943092,0.8027561902999878,0.08088389784097672,0.09480564296245575,-1.4710091474119937,1.1241143640007596,1.2265797036928303
2.4274063110351562,-0.0054038166999816895,0.022293508052825928,0.012753903865814209,1.0673774480819702,0.0885990709066391,0.13376614451408386,-1.4659282837193428,1.053109262744358,1.1543389082356368
2.4393551349639893,-0.0032226145267486572,0.07405304908752441,-0.01477360725402832,1.3696041107177734,0.09780615568161011,0.18674281239509583,-1.4580440674978539,0.9672965099135452,1.0670444774684178
2.4475760459899902,-0.0020608901977539062,0.0882076621055603,-0.01650404930114746,1.5988472700119019,0.10980862379074097,0.22915253043174744,-1.4474665722283502,0.8790910785194671,0.977220418045004
2.458627223968506,-0.002491481602191925,0.056237220764160156,0.030545949935913086,1.6956028938293457,0.1100752055644989,0.2187395691871643,-1.4345240839110787,0.7963924260003902,0.8927135946666227
2.467520236968994,-0.01993221789598465,0.02258896827697754,0.09915179014205933,1.4693031311035156,0.14752987027168274,0.29518812894821167,-1.4212570990917517,0.7333227144852915,0.8276951598893872
2.47768497467041,-0.029384054243564606,-0.013141036033630371,0.12260894477367401,0.9283156991004944,0.12275846302509308,0.26712745428085327,-1.4101552178649335,0.6979602909358987,0.7905115276157064
2.488518238067627,-0.020914912223815918,-0.1271834373474121,0.10628651082515717,0.33325430750846863,0.12849415838718414,0.15483708679676056,-1.40396562273827,0.6844570437268402,0.7755869999662964
2.4978411197662354,-0.018399812281131744,-0.1762690544128418,0.07243214547634125,-0.1771136075258255,0.11005176603794098,0.1282012164592743,-1.4025814284118654,0.6894819014282756,0.7794450926632502
2.5074191093444824,-0.004682980477809906,-0.11888831853866577,0.03832882642745972,-0.3298245072364807,0.11513219028711319,0.1578737199306488,-1.403907054861296,0.7080269265770678,0.7971091498998742
2.517611026763916,0.00918513536453247,-0.08915436267852783,-0.01056823879480362,-0.20140260457992554,0.07600422948598862,0.10389624536037445,-1.4049527396217174,0.7250779502547421,0.8134140552097128
2.5275731086730957,0.002131126821041107,-0.020303845405578613,-0.02796483039855957,-0.16098976135253906,0.05737284570932388,0.20817407965660095,-1.4053062014034354,0.7390782967440871,0.8269361891343797
2.5386290550231934,0.022422999143600464,0.021378755569458008,-0.07072538137435913,-0.12395133078098297,0.03731711208820343,0.28672295808792114,-1.4045012090447633,0.7570757329202517,0.8446565251034199
2.5477442741394043,0.032232560217380524,-0.07608002424240112,-0.08645927160978317,-0.1681298315525055,0.028935035690665245,0.13216665387153625,-1.4041381453666117,0.7722466147236723,0.8597796046049473
2.557746171951294,0.0012834444642066956,-0.09407263994216919,-0.07975410670042038,-0.19361121952533722,0.06879030913114548,0.17425738275051117,-1.404429421085376,0.7865483772693525,0.8737595389666842
2.5675721168518066,0.005437806248664856,-0.022381901741027832,-0.04810374975204468,-0.09764329344034195,0.03383414074778557,0.1974175125360489,-1.4041235970332548,0.8016030499170378,0.888461088647233
2.5784201622009277,0.023343801498413086,0.014642477035522461,-0.006230294704437256,0.050126995891332626,-0.02698206901550293,0.180131733417511,-1.4028930676734,0.8102223158868601,0.897198810455296
2.5888562202453613,0.026479750871658325,0.0118599534034729,-0.01080198585987091,0.11270713806152344,-0.030624432489275932,0.1735859364271164,-1.4010190463349728,0.8133422860341307,0.9006814217534682
2.5976243019104004,0.01393832266330719,0.00413745641708374,-0.006874561309814453,0.14801666140556335,-0.023175302892923355,0.17382562160491943,-1.398873557316554,0.8145445008539746,0.9021842586315652
2.6076581478118896,0.003491610288619995,0.007232606410980225,0.011913836002349854,0.27837300300598145,-0.023793067783117294,0.1839812844991684,-1.3961441474414793,0.8126844636753117,0.9005248408052035
2.617943286895752,0.008223101496696472,0.04112255573272705,0.022645533084869385,0.5141317248344421,-0.032770317047834396,0.2203262448310852,-1.3919770786420227,0.804325126981146,0.8923080531316423
2.627812147140503,0.020568564534187317,0.08160841464996338,0.0009720325469970703,0.8607881665229797,-0.05621887370944023,0.26313936710357666,-1.3854646050402444,0.7866462819419379,0.8748006976591355
2.638617992401123,0.022673234343528748,0.06696325540542603,-0.030655279755592346,1.192276120185852,-0.01698092371225357,0.2398393750190735,-1.3763137573333182,0.7583237293435068,0.846411445547492
2.647782325744629,-0.007058486342430115,0.05362647771835327,-0.023207083344459534,1.5472556352615356,0.07546801120042801,0.24931730329990387,-1.3645855695543352,0.7219356394479112,0.8089822497524615
2.65850830078125,-0.032930344343185425,0.08613097667694092,0.01301354169845581,1.99793541431427,0.1592281460762024,0.31076735258102417,-1.3492566049325039,0.6803825822522954,0.7652454635649382
2.6678431034088135,-0.030552133917808533,0.12196922302246094,0.05012495815753937,2.4120707511901855,0.19928595423698425,0.36786580085754395,-1.3296445156805448,0.6361291326458246,0.7178970059324002
2.677988052368164,-0.021776393055915833,0.12492042779922485,0.08206349611282349,2.751093864440918,0.22242030501365662,0.39701542258262634,-1.3062576011498404,0.592651178586272,0.6708324767233798
2.688632011413574,-0.023405030369758606,0.0840410590171814,0.08581757545471191,3.08648943901062,0.28398412466049194,0.3999747633934021,-1.2795615587127405,0.5515652874329886,0.6255119868794641
2.698000192642212,-0.03780433535575867,0.07087534666061401,0.07160919904708862,3.579840898513794,0.3677583634853363,0.42014607787132263,-1.2488142151798598,0.5126204717946571,0.5812387640496582
2.708682060241699,-0.04265882074832916,0.12011975049972534,0.055259138345718384,4.319240570068359,0.45131853222846985,0.5175399780273438,-1.211963056072078,0.4755383361486508,0.5375792930516985
2.717794179916382,-0.03794966638088226,0.182153582572937,0.0594635009765625,5.196306228637695,0.5446455478668213,0.66396164894104,-1.1666135601646634,0.4412122453544965,0.4952337491586688
2.7278389930725098,-0.03671702742576599,0.2159002423286438,0.07554778456687927,6.1068220138549805,0.6074023842811584,0.780368983745575,-1.1120718148228297,0.41055558576493456,0.45510216159283506
2.7386322021484375,-0.033934175968170166,0.20739609003067017,0.06292724609375,7.0274338722229,0.6944520473480225,0.8458449244499207,-1.048213062029544,0.38352408752887424,0.4171302483630963
2.7477760314941406,-0.03842607140541077,0.18145591020584106,0.08559459447860718,7.753429889678955,0.7631129026412964,0.8494459986686707,-0.9761382985001128,0.360453123397111,0.38127198215650776
2.7577991485595703,-0.03899364173412323,0.22553777694702148,0.14224988222122192,8.384543418884277,0.7543708086013794,0.9119128584861755,-0.8971341030165945,0.34145180492889116,0.3482258612515059
2.76788330078125,-0.013706371188163757,0.24148708581924438,0.18581628799438477,8.546661376953125,0.712363064289093,0.933605968952179,-0.8134367165565697,0.3268015388941741,0.31902180115363327
2.7780022621154785,-0.012470453977584839,0.198857843875885,0.26997727155685425,8.208479881286621,0.6276004910469055,0.8678839802742004,-0.730771805715487,0.3160260746507918,0.2939278142222617
2.7887091636657715,-0.018766269087791443,0.05820786952972412,0.3192777633666992,7.452023983001709,0.668267548084259,0.7647218108177185,-0.6534889916334574,0.3088018635879191,0.27265255407972916
2.7979822158813477,-0.037279754877090454,-0.060929298400878906,0.3020009398460388,6.619039535522461,0.7663030624389648,0.6677430272102356,-0.5841239920214624,0.3057133131343036,0.2549199083291163
2.807924270629883,-0.05880621075630188,-0.0948256254196167,0.27166497707366943,5.619372367858887,0.7958601117134094,0.5695469379425049,-0.5237483290085866,0.305813093912719,0.2401415407588308
2.818451166152954,-0.04500693082809448,-0.12443870306015015,0.2639470100402832,4.5777435302734375,0.801649808883667,0.4942023754119873,-0.4734577180194377,0.30817269134076325,0.2283591639680807
2.829041004180908,-0.020876407623291016,-0.1723726987838745,0.22460877895355225,3.577977180480957,0.8136802315711975,0.41880354285240173,-0.43326869325379214,0.31231638435461034,0.21937888510903308
2.8390731811523438,-0.005881667137145996,-0.19599270820617676,0.16619980335235596,2.8491923809051514,0.8210182785987854,0.3508061170578003,-0.4017344274389555,0.31773640575806816,0.2125500777437927
2.847933292388916,0.004203975200653076,-0.1653573215007782,0.11944711208343506,2.395449161529541,0.7950417399406433,0.3052339553833008,-0.3758826754156025,0.3237756673620099,0.20700346325511987
2.8581411838531494,0.011341720819473267,-0.09790459275245667,0.1006615161895752,2.1447031497955322,0.699262797832489,0.2733801603317261,-0.35352912803859415,0.3295283230328918,0.20215629060051377
2.868230104446411,0.025715142488479614,-0.051137834787368774,0.08177590370178223,1.9992886781692505,0.6216468811035156,0.2765686511993408,-0.3330965585302764,0.33463793864163305,0.19772595361734335
2.8780221939086914,0.0328427255153656,-0.019717425107955933,0.04624587297439575,1.9516537189483643,0.5664693713188171,0.32817885279655457,-0.31347683707256363,0.33935845736017706,0.19384589764484028
2.8891172409057617,0.02437114715576172,0.0015771687030792236,0.02865844964981079,1.9421759843826294,0.5075353384017944,0.36147457361221313,-0.2939429732916647,0.3437195137321623,0.19044726424572528
2.898543119430542,0.017711788415908813,-0.01090317964553833,0.02087455987930298,1.9407202005386353,0.4298248589038849,0.3614250421524048,-0.27442053622676915,0.34750275451009477,0.1871293180052095
2.9080162048339844,0.020401090383529663,-0.02002015709877014,0.003001391887664795,2.0184600353240967,0.37876656651496887,0.3624085783958435,-0.25463545439241786,0.3505952036632738,0.18364020407874934
2.918182134628296,0.019502609968185425,-0.007882222533226013,-0.022185981273651123,2.060513734817505,0.33652353286743164,0.3806200921535492,-0.23413663631383994,0.35332319722538486,0.17996444929649882
2.928166151046753,0.012408703565597534,0.024755552411079407,-0.022265970706939697,2.0568900108337402,0.25897568464279175,0.39643168449401855,-0.21343344204630196,0.3555160711914963,0.17637696376163628
2.9395532608032227,0.012540042400360107,0.013506218791007996,-0.007949769496917725,1.9895814657211304,0.22363021969795227,0.38086044788360596,-0.1930588277626689,0.35718464757805635,0.17290175113829684
2.948172092437744,0.0001792311668395996,-0.017901703715324402,-0.015810012817382812,1.8799192905426025,0.23521888256072998,0.3437478840351105,-0.17361877427443903,0.35885306025435304,0.1694514514745242
2.958759307861328,-0.015554338693618774,-0.025928005576133728,-0.024010419845581055,1.6998237371444702,0.25077012181282043,0.30841201543807983,-0.1556604441113256,0.36074045768917573,0.1661300760991119
2.9680752754211426,-0.017002791166305542,-0.030101269483566284,-0.019320666790008545,1.4800664186477661,0.2737768590450287,0.25707322359085083,-0.13974755401513494,0.3629277322693102,0.16312444644293392
2.9787330627441406,-0.019371747970581055,-0.0421377569437027,-0.008774757385253906,1.2768588066101074,0.32919058203697205,0.22733983397483826,-0.12601282197937524,0.3655764644321726,0.1604036827048304
2.9899120330810547,-0.020263761281967163,-0.0012462437152862549,-0.021776139736175537,1.203410029411316,0.3495357036590576,0.2782547175884247,-0.11359668702780178,0.36878009183786303,0.15830015723928598
2.9981491565704346,-0.010271340608596802,0.05209529399871826,-0.02949625253677368,1.1349120140075684,0.305117130279541,0.3141978085041046,-0.10155203134884735,0.37191584983367904,0.15685457396951102
3.008139133453369,0.007377564907073975,0.040812209248542786,-0.018885552883148193,1.1047557592391968,0.2517619729042053,0.27695322036743164,-0.09006202121815256,0.37455144690595643,0.15553955078229578
3.018221139907837,0.012143075466156006,0.006403423845767975,-0.02550339698791504,1.0881285667419434,0.2249692678451538,0.2483394593000412,-0.07891401128058162,0.37680782397468243,0.15394920691479969
3.0283002853393555,0.01015278697013855,0.024269409477710724,-0.043092429637908936,1.0773290395736694,0.1811974048614502,0.2488512098789215,-0.0678847303054971,0.37871535874355394,0.15223681525673183
3.039436101913452,0.010048329830169678,0.039691220968961716,-0.043028950691223145,1.0819897651672363,0.1649734377861023,0.2238699495792389,-0.05698875501593669,0.38033403421754264,0.1504554403539678
3.0482780933380127,0.0012974441051483154,0.013946820050477982,-0.056730687618255615,1.0708510875701904,0.16505666077136993,0.21216918528079987,-0.046128089854293335,0.3818953308238461,0.1484258788624284
3.0585203170776367,0.004301846027374268,0.006754104048013687,-0.06922698020935059,0.993097186088562,0.14241792261600494,0.1887727826833725,-0.03577973725005221,0.383356159935634,0.14645352427174094
3.068282127380371,0.009433746337890625,-0.0016584713011980057,-0.04904443025588989,0.9032644033432007,0.15375418961048126,0.1435430943965912,-0.0263349429728082,0.38474711787199484,0.1444321872902722
3.0781891345977783,-0.01077878475189209,-0.03521151840686798,-0.039853692054748535,0.8255794644355774,0.20584402978420258,0.1098242774605751,-0.017863189881838472,0.3864937455699942,0.1423261788017067
3.0888490676879883,-0.03746560215950012,-0.04544443637132645,-0.03282594680786133,0.7150898575782776,0.25735506415367126,0.08666569739580154,-0.01031885544171271,0.38879009660071845,0.14034205406219522
3.098189115524292,-0.044228047132492065,-0.049626778811216354,-0.016153991222381592,0.5905162692070007,0.2979736030101776,0.03575538098812103,-0.004033496202389163,0.39156297223737924,0.13841310597388595
3.1084132194519043,-0.04146978259086609,-0.05495549738407135,0.0016655325889587402,0.46959856152534485,0.334185928106308,0.012874511070549488,0.0009374797763927587,0.39473531602768763,0.1365935122170977
3.118805170059204,-0.03941038250923157,-0.029638849198818207,0.01825261116027832,0.4139542281627655,0.3540451228618622,0.006861626170575619,0.00501391312578982,0.39818170909327727,0.13500255938122527
3.1299781799316406,-0.04162931442260742,-0.01647469960153103,0.04661417007446289,0.3760431110858917,0.3349492847919464,-0.0075103892013430595,0.008656665615042702,0.40166158817708114,0.1334709424974662
3.1390700340270996,-0.0380270779132843,-0.009746117517352104,0.06724005937576294,0.3401024341583252,0.30025362968444824,-0.02145123854279518,0.011906420999106222,0.404859937859038,0.13192534200222808
3.148466110229492,-0.024206161499023438,-0.0027771638706326485,0.06392312049865723,0.297684907913208,0.26657387614250183,-0.026804670691490173,0.014755753731152977,0.4077208689803417,0.13042776269899423
3.1583871841430664,-0.011125564575195312,0.002590598538517952,0.043081462383270264,0.24091537296772003,0.2421255260705948,-0.03471745550632477,0.01710257841871542,0.41027771876582003,0.12907244807653057
3.168488025665283,-0.0038221776485443115,-0.005600307136774063,0.022307097911834717,0.19292308390140533,0.23285256326198578,-0.037536200135946274,0.018921732267331147,0.4126625517525902,0.12787513127539146
3.1808271408081055,-0.002624332904815674,-0.011051129549741745,0.0024153590202331543,0.23261377215385437,0.23981380462646484,-0.0012322531547397375,0.020749710799180632,0.41507044042849905,0.12682783816395066
3.1912131309509277,-0.0016553401947021484,0.016511764377355576,-0.008883476257324219,0.28339430689811707,0.19439563155174255,0.028036898002028465,0.02316670125080171,0.4172714688274837,0.12593778988015134
3.1982381343841553,0.0036126673221588135,0.05092734470963478,0.0055710673332214355,0.3315812647342682,0.1326204240322113,0.04274287447333336,0.026150083489323368,0.41893692314483993,0.12499910902242589
3.2084031105041504,0.012186914682388306,0.05039091035723686,0.008217334747314453,0.32042574882507324,0.08438724279403687,0.05575774237513542,0.02938382315087534,0.4200312726227955,0.12410571002274878
3.218383312225342,0.011569321155548096,0.023398175835609436,0.006907463073730469,0.21136528253555298,0.07638657838106155,0.05023061856627464,0.03208597015180303,0.4208120883961125,0.12348719468007525
3.2285361289978027,-0.005358994007110596,-0.017388999462127686,0.003386855125427246,0.060352154076099396,0.1115235686302185,0.032060347497463226,0.033505361721994475,0.42174328053504534,0.12331116957583506
3.238858222961426,-0.015751123428344727,-0.039802249521017075,-0.0027517080307006836,-0.06252902746200562,0.14139597117900848,0.01739512011408806,0.03355307532135886,0.42301711792511726,0.1235570669499439
3.2484991550445557,-0.00782930850982666,-0.02715178206562996,-0.007284760475158691,-0.12277735024690628,0.12101534008979797,0.01463997270911932,0.03274485320246931,0.42434212173053315,0.12408785782964181
3.25850510597229,0.005873620510101318,-0.0027519874274730682,-0.0003253817558288574,-0.12564052641391754,0.091434545814991,0.0073935119435191154,0.031631374990131425,0.4253809674360621,0.12471860736683706
3.2687320709228516,0.01217392086982727,0.008813653141260147,-0.004062235355377197,-0.11745215207338333,0.06714611500501633,-0.0018252326408401132,0.030531685450322626,0.4261549945804192,0.12524853255576593
3.2799272537231445,0.008050024509429932,0.015502478927373886,-0.014479875564575195,-0.11412026733160019,0.049272309988737106,-0.0038617518730461597,0.029468567204782407,0.4267318157973175,0.12569885857465032
3.289489269256592,0.0030537545680999756,0.013297436758875847,-0.009090662002563477,-0.11597239971160889,0.038644611835479736,-0.007043057586997747,0.02840749432156621,0.42716118998537944,0.1261308179104037
3.2984421253204346,-0.004241198301315308,0.005615413188934326,6.270408630371094e-05,-0.12593980133533478,0.03564243018627167,-0.006870484445244074,0.026981021391707428,0.4275471062233878,0.12656668835867846
3.3089733123779297,-0.012106567621231079,0.00661015510559082,-0.0003534555435180664,-0.13622282445430756,0.040635719895362854,-0.0028050625696778297,0.026144415720544,0.42786352246673365,0.1270614907180527
3.3185973167419434,-0.013726681470870972,0.008437413722276688,-0.002013266086578369,-0.13900956511497498,0.04053798317909241,-0.010845944285392761,0.025575856884491387,0.4281450051417466,0.12758453108416398
3.331024169921875,-0.011363834142684937,0.004574466496706009,-0.0024219751358032227,-0.13822586834430695,0.03666596859693527,-0.02069585956633091,0.024749143701184938,0.42844000476255817,0.1280233501766656
3.3417840003967285,-0.012863457202911377,0.0010621622204780579,-0.0006159543991088867,-0.12441578507423401,0.03979571536183357,-0.032458242028951645,0.023601622471691133,0.42881799118242536,0.12833753830849975
3.3487319946289062,-0.014786869287490845,-0.0027518030256032944,-0.006860673427581787,-0.11602119356393814,0.04294374957680702,-0.04348612576723099,0.02232027222230924,0.4292585673670537,0.12849013218124136
3.3585290908813477,-0.010047227144241333,-0.00017232634127140045,-0.013743460178375244,-0.10258794575929642,0.037781476974487305,-0.046670470386743546,0.020977926770686193,0.4296545399189702,0.12853073369521326
3.3687222003936768,-0.002225041389465332,0.00010288134217262268,-0.014851033687591553,-0.10907652229070663,0.02478094771504402,-0.047238148748874664,0.019726995231858883,0.42995121253883545,0.12853431804121543
3.3787951469421387,-0.0010433197021484375,-0.009238101541996002,-0.00770491361618042,-0.12662889063358307,0.016186928376555443,-0.05875685438513756,0.018488203197346738,0.43010074893135164,0.12854128863716924
3.3890671730041504,-0.003076612949371338,-0.019913531839847565,-0.0016378164291381836,-0.16535142064094543,0.02130303904414177,-0.06230993568897247,0.016967811541163825,0.4302102040141674,0.12858721411392404
3.398635149002075,-0.0037705600261688232,-0.020607508718967438,0.003098011016845703,-0.22319553792476654,0.023096676915884018,-0.04881729558110237,0.015007102684484063,0.4303381775511027,0.12888604767271938
3.4086060523986816,0.0008159279823303223,-0.015512028709053993,0.010033488273620605,-0.3001658022403717,0.02276449091732502,-0.03233376517891884,0.012610284186953489,0.4304643864319739,0.1296071596054201
3.418600082397461,0.001756817102432251,-0.02883477509021759,0.013278424739837646,-0.3866751492023468,0.031872767955064774,-0.019431019201874733,0.009602296156693576,0.4306226444958608,0.13080572517005265
3.428692102432251,-0.0015699267387390137,-0.03979920968413353,0.016233325004577637,-0.4593556225299835,0.047946587204933167,-0.01173980813473463,0.006023006538501793,0.43087887540832454,0.13243670088879958
3.4387969970703125,-0.008524984121322632,-0.03848071023821831,0.016208946704864502,-0.5258837938308716,0.06867343932390213,-0.0017460302915424109,0.0018177874177965109,0.43133826814270937,0.13444563172238924
3.4486701488494873,-0.014009088277816772,-0.03818177804350853,0.016289949417114258,-0.5625737309455872,0.08976376056671143,0.014574353583157063,-0.0027508421697150674,0.4320516992916648,0.13679210548165774
3.458677291870117,-0.01563248038291931,-0.0484776496887207,0.015260040760040283,-0.5234641432762146,0.1159018874168396,0.030277416110038757,-0.007080577895360781,0.4330429115854667,0.13929242703556635
3.4687161445617676,-0.018102020025253296,-0.03744912147521973,0.007013380527496338,-0.3877090513706207,0.1218363493680954,0.045192185789346695,-0.011112646664778248,0.4342511958772965,0.1415785868526136
3.4787392616271973,-0.01526099443435669,-0.0011539235711097717,-0.0027298331260681152,-0.1788962036371231,0.10382672399282455,0.07541639357805252,-0.013483396159519654,0.43543932278765396,0.14333137203881158
3.4889869689941406,-0.008909523487091064,0.03145356848835945,-0.006856560707092285,0.04487745836377144,0.05197732523083687,0.09404904395341873,-0.013697584756483751,0.43624451954786714,0.144377431556503
3.4986400604248047,-0.0018458962440490723,0.03552282974123955,-0.003301382064819336,0.18883968889713287,0.009462622925639153,0.0923163890838623,-0.01217641416342217,0.4365397624831749,0.14470846511132823
3.509514093399048,-0.002121955156326294,0.02510976791381836,-0.0016592144966125488,0.2565106153488159,0.01817968115210533,0.08361051976680756,-0.009741427853837118,0.436646705040262,0.14454502354501478
3.5187082290649414,-0.009054392576217651,0.010838793590664864,-0.006725728511810303,0.236949160695076,0.03567292168736458,0.056954674422740936,-0.007151346605309133,0.43691138857067446,0.1441163749497806
3.5287342071533203,-0.01397472620010376,-0.003146455157548189,2.8252601623535156e-05,0.1442095786333084,0.0673941895365715,0.027613775804638863,-0.005221639533188347,0.4374188623142697,0.14367299334295977
3.5407772064208984,-0.012916475534439087,-0.012352243065834045,0.007407426834106445,0.039148662239313126,0.10383102297782898,0.004394473508000374,-0.004326095068524816,0.43827014909519496,0.14343071609975747
3.5487570762634277,-0.007592916488647461,-0.011372149921953678,0.0028688907623291016,-0.01949014700949192,0.12255402654409409,-0.015493533574044704,-0.004307310881928393,0.439435134842286,0.14336103889688892
3.5587751865386963,0.0023894309997558594,0.002381520811468363,-0.0010068416595458984,-0.010307835415005684,0.10211000591516495,-0.030568622052669525,-0.004561205273225082,0.4405790995982751,0.14322630046029208
3.5688540935516357,0.016865313053131104,0.017848726361989975,-0.0006687045097351074,0.02081785909831524,0.058928534388542175,-0.03987019136548042,-0.004673230865662458,0.4413944691084035,0.1428902963449278
3.5787951946258545,0.027163207530975342,0.026256512850522995,-0.001978158950805664,0.05529887229204178,0.028781814500689507,-0.042786888778209686,-0.004505182263026253,0.44181803154396904,0.14233716664071505
3.5892751216888428,0.02694493532180786,0.02694874070584774,-0.003738105297088623,0.08295886218547821,0.006437005940824747,-0.04179523512721062,-0.004316499466090517,0.44197467572210053,0.14166181463745353
3.5989511013031006,0.018053293228149414,0.019176693633198738,-0.00017249584197998047,0.08164645731449127,-0.003387661650776863,-0.04422963038086891,-0.003894569816551121,0.44191853612536763,0.14091942924436324
3.6087779998779297,0.00961330533027649,0.0008889234159141779,0.007851243019104004,0.05792796239256859,-0.006022104527801275,-0.05399703606963158,-0.0034445407035266387,0.4417847890508855,0.14016549235566286
3.618885040283203,0.0049114227294921875,-0.0060164304450154305,0.011182129383087158,0.049900662153959274,-0.008219745010137558,-0.05588148906826973,-0.0029951603152541316,0.4416346185614435,0.13943204635764705
3.629683017730713,0.004085540771484375,0.001956030959263444,0.01077359914779663,0.05846511945128441,-0.01860758289694786,-0.056928057223558426,-0.0025605396803940568,0.44145050383722884,0.1386793042829993
3.6392621994018555,0.001529097557067871,0.00508847227320075,0.006552994251251221,0.06270114332437515,-0.029692724347114563,-0.06061360612511635,-0.0023425262691099597,0.4412231134010381,0.13787686597713875
3.6489620208740234,0.001227647066116333,-0.000564192421734333,0.008029699325561523,0.06885050237178802,-0.0312044657766819,-0.06590568274259567,-0.002379958926407455,0.44101654819528713,0.1370248196068721
3.6591153144836426,-0.001941770315170288,-0.004249304533004761,0.00969839096069336,0.07176773250102997,-0.03230861574411392,-0.06481032073497772,-0.002525028801685088,0.44085993393028927,0.13612026771828203
3.669051170349121,-0.003950208425521851,-0.0005308771505951881,0.01197892427444458,0.06970808655023575,-0.022924743592739105,-0.053343020379543304,-0.0026365589646214567,0.4407356559294994,0.1352677637454863
3.6791131496429443,-0.007787883281707764,-0.00011938321404159069,0.013492226600646973,0.056629836559295654,-0.00694924034178257,-0.05064789950847626,-0.0026523098946124118,0.4406935800964853,0.13453359742640486
3.689350128173828,-0.009559303522109985,-0.0022897382732480764,0.016361713409423828,0.0570962056517601,-0.002807802055031061,-0.04768263176083565,-0.00239651723543333,0.44072856636432123,0.13384785374952457
3.698965072631836,-0.009057283401489258,0.0012255276087671518,0.024159371852874756,0.06677946448326111,-0.010839629918336868,-0.04635158181190491,-0.0019482702409090184,0.44072978996265805,0.1331665023222762
3.7089431285858154,-0.006950408220291138,0.001539452699944377,0.03174251317977905,0.06865029036998749,-0.012156207114458084,-0.04893910884857178,-0.0015733071543338798,0.4406607488673178,0.13244648285988267
3.718834161758423,-0.007501959800720215,-0.005345017649233341,0.03320497274398804,0.051330164074897766,-0.005799242295324802,-0.04973992332816124,-0.0013319231078035567,0.4405955600761096,0.13174322244571965
3.7288260459899902,-0.008229225873947144,-0.008305186405777931,0.031942009925842285,0.031233951449394226,0.0064880503341555595,-0.04810846969485283,-0.0011640422729032047,0.44062350510936926,0.13112111386709402
3.7391343116760254,-0.007410943508148193,-0.011047168634831905,0.027861595153808594,0.019900333136320114,0.024381563067436218,-0.04673054814338684,-0.001113665563572125,0.44078159591306265,0.13059448965171855
3.7488911151885986,-0.006119847297668457,-0.01193937286734581,0.022258460521697998,0.029725536704063416,0.03364217281341553,-0.04289399832487106,-0.0011055997917933744,0.4410749534946596,0.13008822830564998
3.7589111328125,-0.002184063196182251,-0.007533386815339327,0.016026616096496582,0.05428707227110863,0.04015200212597847,-0.03680787980556488,-0.0009110389037274674,0.4414472318274667,0.1295482521296106
3.769449234008789,0.003219395875930786,0.0024344343692064285,0.010208964347839355,0.07449007034301758,0.04002097621560097,-0.02741224505007267,-0.00044944370004156063,0.44185010875918523,0.1289736181450466
3.779137134552002,0.009565860033035278,0.004989582113921642,0.005876779556274414,0.07352723181247711,0.037459325045347214,-0.01578110083937645,0.00012206622984760206,0.4422396281141763,0.12845723094767936
3.7893590927124023,0.014945507049560547,-0.0019972731824964285,0.006073296070098877,0.04962232708930969,0.03987472504377365,-0.005719466134905815,0.0006120168518501236,0.4426355278024744,0.1280836680804976
3.79909610748291,0.015088319778442383,-0.01075935922563076,0.008046984672546387,0.017745355144143105,0.04678908735513687,0.0010931659489870071,0.000928906603914654,0.4430855288364822,0.12792275496969804
3.809051990509033,0.015850692987442017,-0.014835868962109089,0.009545445442199707,-0.006741180084645748,0.04870017617940903,0.017045874148607254,0.0010638217484625445,0.44357606288295326,0.12798243894514894
3.8190603256225586,0.015972256660461426,-0.011165393516421318,0.0061070919036865234,-0.004150723107159138,0.0432358980178833,0.02688492275774479,0.0011942616140683776,0.4440497755949825,0.12820731143010328
3.8291172981262207,0.0192812979221344,-0.008876748383045197,0.007440626621246338,0.008158856071531773,0.02124577760696411,0.02575520984828472,0.0014229669291151254,0.44439018838832417,0.12843500803691446
3.839308261871338,0.021254897117614746,-0.005026921629905701,0.014585793018341064,0.023986555635929108,-0.003973823040723801,0.030293770134449005,0.00174801378280145,0.44448612330044596,0.12861755411496878
3.849234104156494,0.022133231163024902,-0.003037288784980774,0.010833382606506348,0.03017883561551571,-0.021963298320770264,0.030645783990621567,0.0020744394070641692,0.44437546155854457,0.12876728538816756
3.859415054321289,0.0209217369556427,-0.006432926747947931,0.004424035549163818,0.021257247775793076,-0.028810551390051842,0.025357279926538467,0.0023256518540414363,0.44416277071120347,0.1289024520331576
3.8692171573638916,0.017765730619430542,-0.006483998615294695,-0.00011175870895385742,0.011824382469058037,-0.028945263475179672,0.025185665115714073,0.002579762676375785,0.4439574456651561,0.12905603534098473
3.879178047180176,0.012604355812072754,-0.008994221687316895,-0.00047069787979125977,-0.0030397854279726744,-0.036013294011354446,0.02673749066889286,0.002877151142714947,0.44372564664341396,0.12927339109761624
3.88934326171875,0.011634796857833862,-0.006956322118639946,0.0028066635131835938,-0.022431792691349983,-0.038984403014183044,0.025045637041330338,0.0030534822526904516,0.4434478145435774,0.1295575147919021
3.8992300033569336,0.00869905948638916,-0.009816989302635193,0.005169928073883057,-0.03018132597208023,-0.03552362322807312,0.023900479078292847,0.0030614713475752495,0.44316738942859163,0.12988316411033254
3.909248113632202,0.00307580828666687,-0.012571108527481556,0.0070691704750061035,-0.035780537873506546,-0.027129830792546272,0.023205606266856194,0.0029623778517548975,0.4429734284562097,0.1302399813925926
3.9192121028900146,-0.0019800662994384766,-0.00926169566810131,0.0080108642578125,-0.03456134349107742,-0.021800845861434937,0.027245353907346725,0.002808047525159755,0.44287767121966914,0.13061192154253853
3.92926025390625,-0.0035329461097717285,-0.008146326057612896,0.009118080139160156,-0.03087807446718216,-0.017196904867887497,0.033343780785799026,0.0026569340518615113,0.44282290138632585,0.13103441331556998
3.9393961429595947,-0.00459975004196167,-0.012485796585679054,0.011719942092895508,-0.017781713977456093,-0.010904123075306416,0.0326329842209816,0.002650958692004196,0.442804569121776,0.13143267775290957
3.949331283569336,-0.00741913914680481,-0.0149913989007473,0.013682365417480469,-0.005438411608338356,-0.007951786741614342,0.041191477328538895,0.002785124802144105,0.44281774712730576,0.13181503920742893
3.9593610763549805,-0.008240282535552979,-0.011040201410651207,0.018327653408050537,0.013807721436023712,-0.015841402113437653,0.044335074722766876,0.0031352534077202492,0.4427644659726183,0.132179205188524
3.969287157058716,-0.006424814462661743,-0.010240859352052212,0.02016150951385498,0.036338530480861664,-0.018388627097010612,0.04302048310637474,0.003644681416837376,0.44264743571913623,0.1324577370763625
3.9793200492858887,-0.005413621664047241,-0.004493319895118475,0.009590983390808105,0.04581405594944954,-0.018703412264585495,0.04524954780936241,0.004326305525975412,0.4425259692684626,0.13267994241281958
3.9897122383117676,-0.002835780382156372,-0.0004177992232143879,0.002059340476989746,0.04124215990304947,-0.02741217240691185,0.04064830020070076,0.005060160772513649,0.44232597553962766,0.13287130759466825
3.99931001663208,-0.004650205373764038,-0.010089469142258167,0.0011650323867797852,0.03241883963346481,-0.02754240110516548,0.02909736894071102,0.005642410359076882,0.44205579764315617,0.13303087613789924
4.0093371868133545,-0.007397711277008057,-0.009194381535053253,0.00014823675155639648,0.017639808356761932,-0.02599284052848816,0.026841938495635986,0.006064479519457981,0.4417878889854634,0.1331726035965812
4.01952600479126,-0.010274350643157959,-0.004080644343048334,0.0017012357711791992,-0.004296914208680391,-0.01763557270169258,0.020976059138774872,0.006341184968460838,0.4415780977404003,0.13335373202599518
4.029364109039307,-0.0126056969165802,-0.005667069461196661,0.0012336373329162598,-0.024722278118133545,-0.006688250228762627,0.017599331215023994,0.006448486632042947,0.44145670092363554,0.13360084074535386
4.039521217346191,-0.014020919799804688,-0.009768107905983925,0.0030437707901000977,-0.029007837176322937,0.0013350548688322306,0.014757206663489342,0.006375767768955296,0.44143533602912743,0.13385488679676888
