timestamp,accel_x,accel_y,accel_z,rotation_x,rotation_y,rotation_z, pitch,roll,yaw
0.043587684631347656,0.012440875172615051,0.00443677231669426,0.012775242328643799,0.009163867682218552,0.007860909216105938,0.008431938476860523,-0.05531445320693554,-0.05347228800668101,-0.0014796242853666647
0.05181598663330078,0.012724500149488449,0.006547108292579651,0.011807560920715332,0.005307210609316826,0.010010701604187489,0.003945683594793081,-0.055248696225554755,-0.05337395401940741,-0.0014037261692243879
0.0641927719116211,0.011807311326265335,0.00542372465133667,0.010776102542877197,-0.0014572186628356576,0.007977910339832306,-0.00046371237840503454,-0.05522763821821853,-0.0532804075359923,-0.0013897074855732533
0.06535673141479492,0.011325515806674957,0.006537195295095444,0.01010507345199585,-0.009758724831044674,0.005107999779284,-0.002784817013889551,-0.055289181544029654,-0.05321057264486305,-0.0014150790442524
0.0751798152923584,0.012047845870256424,0.007235433906316757,0.009216904640197754,-0.010339559987187386,0.0066731395199894905,-0.006579022388905287,-0.05539982947472657,-0.05315486523779239,-0.0014717468704282628
0.08034086227416992,0.011147812008857727,0.005272075533866882,0.0066814422607421875,-0.01334613561630249,0.0077452389523386955,-0.009593028575181961,-0.055517060530210195,-0.053078928289159825,-0.0015686232873038982
0.08984899520874023,0.010371137410402298,0.007226239889860153,0.0052596330642700195,-0.010546620935201645,0.007143897470086813,-0.012733428739011288,-0.0556382780665269,-0.053004298533195826,-0.0016887881258900897
0.09993886947631836,0.011260632425546646,0.007833771407604218,0.0061457157135009766,-0.00028043449856340885,0.00829553697258234,-0.013189894147217274,-0.05568695085435842,-0.05293241931800289,-0.0018164427338915167
0.10990190505981445,0.010063670575618744,0.007586576044559479,0.004765570163726807,0.007676824927330017,0.01362079381942749,-0.013495092280209064,-0.05564416249288184,-0.05281836883979,-0.0019495838266684754
0.11994385719299316,0.007029958069324493,0.010418962687253952,0.004503607749938965,0.009823199361562729,0.01613437384366989,-0.01708306185901165,-0.05555822190260839,-0.05266787510363906,-0.0020935508997728808
0.12992191314697266,0.006891809403896332,0.006663214415311813,0.008165180683135986,0.00964316911995411,0.01980713941156864,-0.02027086541056633,-0.05545333243361141,-0.05249839990695609,-0.002270547093692686
0.1400148868560791,0.0063172802329063416,0.0045986175537109375,0.008805692195892334,0.006086451001465321,0.020258013159036636,-0.020400933921337128,-0.05536631091046405,-0.05230453221564496,-0.0024741344908247856
0.14986586570739746,0.004411965608596802,0.006150711327791214,0.008165478706359863,0.009084904566407204,0.022415438666939735,-0.017758812755346298,-0.05527892594509214,-0.052092073810938354,-0.002656728357444408
0.15997600555419922,0.00504675880074501,0.00468827411532402,0.007830381393432617,0.009047753177583218,0.020896904170513153,-0.019917890429496765,-0.05518482269990407,-0.05188678090062093,-0.0028466715381934987
0.17000389099121094,0.005089573562145233,0.004840537905693054,0.006166636943817139,0.009197688661515713,0.01919780857861042,-0.02042575553059578,-0.05509345139668644,-0.05169990848464182,-0.0030532141537445187
0.18009185791015625,0.00609767809510231,0.006767746061086655,0.004701197147369385,0.008614989928901196,0.0181412436068058,-0.01846412569284439,-0.05499715877579467,-0.05151703881615194,-0.0032399103037866056
0.19007182121276855,0.006478123366832733,0.005163419991731644,0.0034595727920532227,0.009706619195640087,0.015296189114451408,-0.016192447394132614,-0.05513685200124513,-0.051179765656514054,-0.003394697799550981
0.20014572143554688,0.007605466991662979,0.0052933357656002045,0.0023638010025024414,0.01667814329266548,0.014158220961689949,-0.014886327087879181,-0.055312380477779595,-0.050933613725841105,-0.0035350964955946883
0.21043777465820312,0.008238162845373154,0.007302958518266678,0.0013524293899536133,0.016047772020101547,0.01620539277791977,-0.010805033147335052,-0.05533220313062746,-0.050695946688116514,-0.0036480615569478903
0.22006893157958984,0.006007503718137741,0.006923973560333252,0.002491891384124756,0.010550991632044315,0.010103512555360794,-0.010899681597948074,-0.05532971763165956,-0.05049413062629403,-0.0037454983803760942
0.23111200332641602,0.005604971200227737,0.004951648414134979,0.005789041519165039,0.0059546418488025665,0.003714323043823242,-0.009582748636603355,-0.05541007552092152,-0.05038142407536358,-0.0038397414789954278
0.24027395248413086,0.0064267925918102264,0.0048072487115859985,0.007008194923400879,-0.002784288488328457,0.0008775237947702408,-0.012052084319293499,-0.05550885282421309,-0.05030303358740106,-0.003942697344464601
0.25035691261291504,0.005291387438774109,0.008010592311620712,0.00639110803604126,-0.00870289746671915,-0.0006985347718000412,-0.011414790526032448,-0.055677958305049104,-0.050251324020731854,-0.004057805004925208
0.2601346969604492,0.004538819193840027,0.006483100354671478,0.0062898993492126465,-0.008598201908171177,0.0008038431406021118,-0.012469561770558357,-0.055924092465111784,-0.05017060586542972,-0.004164580363659531
0.2702507972717285,0.004015319049358368,0.006844840943813324,0.006605386734008789,-0.008823239244520664,0.003225988009944558,-0.013638690114021301,-0.05611196470255044,-0.050059302437238676,-0.004291003996374727
0.28020572662353516,0.0035134032368659973,0.009161140769720078,0.00706028938293457,-0.004480189643800259,0.002615502802655101,-0.013881144113838673,-0.056283120623167496,-0.049923699852277195,-0.0044237233713803285
0.2902698516845703,0.004176914691925049,0.009090986102819443,0.007683157920837402,-0.0025805565528571606,0.002047184156253934,-0.014405520632863045,-0.05646036870127242,-0.0497785821218729,-0.004555235643042983
0.30009984970092773,0.004074163734912872,0.004971008747816086,0.007755756378173828,-0.005368553567677736,0.004136167466640472,-0.013046935200691223,-0.05662858807487336,-0.049660715028813814,-0.004694898597881912
0.31027698516845703,0.0057259127497673035,0.0038350969552993774,0.006381034851074219,-0.005186393391340971,0.00529544148594141,-0.013254395686089993,-0.05675762632810631,-0.04954247010878808,-0.004827427202293537
0.3203608989715576,0.005688518285751343,0.003897741436958313,0.007509708404541016,-0.0008197911083698273,0.004196221940219402,-0.011815222911536694,-0.05687828212593723,-0.04941349614258449,-0.0049505183893701595
0.33063793182373047,0.0066454410552978516,0.002079073339700699,0.009765625,0.0055739255622029305,0.0031155110336840153,-0.01284773088991642,-0.0570034264725673,-0.049317641069144616,-0.00507278070742639
0.34045982360839844,0.009450696408748627,0.003088153898715973,0.009385406970977783,0.005946135614067316,0.0049128783866763115,-0.010690463706851006,-0.05706256023911645,-0.049223623216970144,-0.005180658093278106
0.35263991355895996,0.00970173254609108,0.004537265747785568,0.006090044975280762,0.003631316591054201,0.005689722485840321,-0.007930896244943142,-0.05713945076296639,-0.049123641730525934,-0.005259772755760144
0.3605637550354004,0.00834374874830246,-0.0015887245535850525,0.008069157600402832,0.00333856837823987,0.004812477622181177,-0.00700848363339901,-0.05728423231409863,-0.04904758330699572,-0.005331729067552507
0.37072086334228516,0.008634891360998154,-0.0027805492281913757,0.008430063724517822,-0.0011866746935993433,0.004891839809715748,-0.003634525230154395,-0.05745399530838861,-0.04895747722450125,-0.00538446265019894
0.38040876388549805,0.011462140828371048,0.0006144382059574127,0.007481694221496582,-0.001036372734233737,0.0030387237202376127,-0.0012178663164377213,-0.05756872006888113,-0.04887037082936157,-0.005404180923764038
0.39160585403442383,0.01088760420680046,4.915893077850342e-05,0.009297072887420654,-0.0025828704237937927,0.0032608313485980034,-0.0019742040894925594,-0.05766113366083793,-0.04876883203554969,-0.005410926976165876
0.4022848606109619,0.00855058804154396,-0.0026628337800502777,0.008381843566894531,5.9118494391441345e-05,0.003174455836415291,0.000212943647056818,-0.057748761205767635,-0.048659531747535074,-0.005411080943746716
0.41054296493530273,0.009448882192373276,0.0005991086363792419,0.007333934307098389,0.004785430617630482,0.0033110762014985085,-0.0008749576518312097,-0.05776748805904535,-0.04853518588514542,-0.005402026574534288
0.4207298755645752,0.009723436087369919,0.0034324824810028076,0.007402956485748291,0.009124602191150188,0.0020166465546935797,0.0005056250374764204,-0.05775697256459572,-0.04838203207742087,-0.005391218337147788
0.4307270050048828,0.007640406489372253,0.0001722201704978943,0.009580433368682861,0.016311142593622208,0.004190585110336542,0.0017032487085089087,-0.0577059944654093,-0.04822101179248415,-0.005364165976587486
0.44103288650512695,0.005999751389026642,0.0008712410926818848,0.00787508487701416,0.01381894014775753,0.007570091634988785,0.001620424329303205,-0.0575254675831811,-0.048044197980457705,-0.005330733560528468
0.45322370529174805,0.004318349063396454,0.0023523569107055664,0.005573630332946777,0.011639408767223358,0.005190290976315737,0.005291858222335577,-0.057356331227896365,-0.0478724705691988,-0.0052822258884424435
0.4604787826538086,0.006778601557016373,0.0028618089854717255,0.003083646297454834,0.006074533332139254,0.001614465145394206,0.004561193287372589,-0.05728926989027829,-0.04769226786294022,-0.00522718638018647
0.4713559150695801,0.00931878387928009,0.0015410147607326508,0.004005730152130127,0.0012643318623304367,-0.0036085261963307858,0.0055201975628733635,-0.05728254294251811,-0.04756178386962653,-0.00517501229288218
0.4805879592895508,0.00731348991394043,0.0008944310247898102,0.004057049751281738,-0.00040503707714378834,-0.00338446581736207,0.010853070765733719,-0.05724240995848824,-0.04749405551215525,-0.005092740198509477
0.4904918670654297,0.008035410195589066,0.004389103502035141,0.005202233791351318,-0.0022753749508410692,-0.007494256366044283,0.011250946670770645,-0.057287856768865275,-0.0474224496165684,-0.0049726933577838115
0.5026888847351074,0.0061026811599731445,0.003329206258058548,0.004767715930938721,-0.01091170683503151,-0.010888366028666496,0.01202656701207161,-0.057447747768333585,-0.04738213128320505,-0.0048487762034123815
0.5105388164520264,0.005329955369234085,0.0010600723326206207,0.00629878044128418,-0.009879998862743378,-0.01770659163594246,0.012201003730297089,-0.057580872398148256,-0.04743388717008309,-0.004723666203518686
0.52056884765625,0.006159629672765732,0.0010203272104263306,0.005388081073760986,-0.005027285777032375,-0.01680830679833889,0.015294638462364674,-0.05768181504933917,-0.04753168777774252,-0.00458312117558834
0.5305538177490234,0.002704523503780365,0.0043335407972335815,0.004558265209197998,0.0036250578705221415,-0.008906175382435322,0.012156635522842407,-0.05772560695343207,-0.04760167642522117,-0.004422606985957392
0.5406908988952637,0.0014875419437885284,0.0019270256161689758,0.00156402587890625,-0.002723801415413618,-0.013167809695005417,0.014284447766840458,-0.0577823701513449,-0.04760556526440092,-0.00430611151461733
0.5530128479003906,0.004419378936290741,0.007898036390542984,0.0015288591384887695,0.0003502853214740753,-0.023137353360652924,0.019120216369628906,-0.05782338763311644,-0.0476537405966695,-0.004121539261928274
0.560828685760498,0.006312478333711624,0.00561857596039772,0.004222571849822998,-0.0021154023706912994,-0.023932041600346565,0.017354486510157585,-0.057844586002049565,-0.04777722474427022,-0.0039379242083117435
0.570659875869751,0.003587096929550171,0.0025227442383766174,0.0015535354614257812,-0.008180486038327217,-0.02764129266142845,0.01984960213303566,-0.05798043896149977,-0.04790597592296207,-0.0037422648447077117
0.5811598300933838,0.004395604133605957,0.003843028098344803,0.003288745880126953,-0.011704079806804657,-0.032760508358478546,0.02135748229920864,-0.05814052686363001,-0.048120446422537495,-0.003533897413658207
0.5906128883361816,0.0038244985044002533,0.005583200603723526,0.00407642126083374,-0.013092119246721268,-0.035999979823827744,0.023777764290571213,-0.05829270398634408,-0.04837446288690576,-0.003312703103291802
0.6021647453308105,0.002481479197740555,0.005301710218191147,0.004343509674072266,-0.01566758006811142,-0.03712689131498337,0.026869427412748337,-0.05846767939414421,-0.04863486280151616,-0.0030584599982011757
0.6106457710266113,0.0022155754268169403,0.0013716667890548706,0.005045771598815918,-0.021220270544290543,-0.03859163075685501,0.02768035978078842,-0.05872078892077488,-0.048950432195671106,-0.002790067403918461
0.6207737922668457,0.0025653690099716187,-0.0001964569091796875,0.008262872695922852,-0.024541715160012245,-0.04352837800979614,0.027836529538035393,-0.05897709649302121,-0.04931730076753135,-0.0025207237847687633
0.6309900283813477,0.00290505588054657,-1.3522803783416748e-06,0.012770354747772217,-0.02921103686094284,-0.042448464781045914,0.02733186073601246,-0.05936250253812752,-0.04965912689405081,-0.0022557369868458966
0.6407737731933594,0.0005460716784000397,-0.00037986040115356445,0.01476132869720459,-0.034359391778707504,-0.038161665201187134,0.03125634789466858,-0.05977226028931318,-0.04994198645236946,-0.0019745727319383046
0.6526999473571777,-0.00162443146109581,0.00031330063939094543,0.011767804622650146,-0.024540850892663002,-0.032815903425216675,0.028580935671925545,-0.060102025333951446,-0.05021470360164512,-0.001684010357248552
0.6608986854553223,-0.0033321306109428406,0.002980519086122513,0.00915306806564331,-0.004260179121047258,-0.020355060696601868,0.025819184258580208,-0.060303828222007735,-0.0503849720006784,-0.0014146044159920159
0.6711208820343018,-0.004517029970884323,0.0060429200530052185,0.004206240177154541,0.015404070727527142,-0.00458781560882926,0.0224689282476902,-0.06032373935537541,-0.05042095026504937,-0.001164143023703105
0.6807999610900879,-0.004583481699228287,0.007180292159318924,-0.0010289549827575684,0.02990611270070076,0.006638118997216225,0.01850140281021595,-0.060162636263917366,-0.05033849376500236,-0.0009409564215304093
0.6907777786254883,-0.0007408857345581055,0.005472075194120407,-0.0011103153228759766,0.032824140042066574,0.009935379028320312,0.012166009284555912,-0.05985613913629742,-0.050197194189246085,-0.000765744631811448
0.7026576995849609,0.0036902129650115967,0.0022062472999095917,0.0011110305786132812,0.02634967863559723,0.004995969124138355,0.00199390621855855,-0.059550868574502425,-0.05007990174850312,-0.0006747651478111509
0.7111167907714844,0.006109297275543213,0.00038040801882743835,0.006848573684692383,0.015555087476968765,0.0014992386568337679,-0.003369966521859169,-0.05934692640034864,-0.05001099549088341,-0.0006754855583631674
0.7208800315856934,0.008516494184732437,-0.00018914416432380676,0.007080495357513428,0.005000697448849678,-0.00774898799136281,-0.009356645867228508,-0.05926020075951541,-0.05005294697713772,-0.0007289322289383676
0.7308449745178223,0.010289255529642105,-0.001251228153705597,0.0043280720710754395,0.0015047655906528234,-0.009335964918136597,-0.013930092565715313,-0.059254155887441956,-0.050178113130574666,-0.0008471336638587267
0.7409038543701172,0.010124824941158295,-0.001337159425020218,-0.0014966726303100586,0.0025031683035194874,-0.010004906915128231,-0.012299386784434319,-0.05930966630965917,-0.05033474964227353,-0.0009798119560235378
0.7526638507843018,0.007961440831422806,-0.0018896684050559998,-0.0016133785247802734,0.012662328779697418,-0.0062301428988575935,-0.008115293458104134,-0.05934343987235321,-0.05049128233047417,-0.00108255202229717
0.7610077857971191,0.006026793271303177,0.0017614886164665222,-0.0010648369789123535,0.02638295106589794,-0.00510047422721982,-0.0058159735053777695,-0.059262696279552454,-0.05060141070020563,-0.001144651608836048
0.770805835723877,0.006548494100570679,0.0012288428843021393,-0.003496825695037842,0.03172685205936432,-0.004315906669944525,-0.0007447822717949748,-0.05906256707029243,-0.05064963107137162,-0.0011637038998088252
0.7808988094329834,0.008813545107841492,-0.0034586749970912933,-1.919269561767578e-05,0.023993680253624916,-0.00742323836311698,0.002861137967556715,-0.05882107815628598,-0.05065568050358964,-0.0011333551124599473
0.7910938262939453,0.0069233812391757965,-0.007583819329738617,0.007437467575073242,0.01613415963947773,-0.011430762708187103,0.006859607994556427,-0.05864293373631789,-0.050657081694153006,-0.0010714418706702603
0.8023288249969482,0.007631227374076843,-0.00965346023440361,0.011988282203674316,0.00485558807849884,-0.01547916792333126,0.01109270192682743,-0.05856095047529374,-0.05067809815356626,-0.0009700048280224254
0.810889720916748,0.008551154285669327,-0.010316126048564911,0.014597177505493164,0.002466999227181077,-0.018649661913514137,0.0171109139919281,-0.058536927447241024,-0.05071305312155801,-0.0008244988605313509
0.8210020065307617,0.0075880251824855804,-0.008489318192005157,0.01543492078781128,0.0036962477024644613,-0.019856516271829605,0.021568194031715393,-0.05851061236211285,-0.05077236381301871,-0.0006219706981908802
0.8310647010803223,0.00678335502743721,-0.0024510659277439117,0.015403687953948975,0.008154112845659256,-0.018712155520915985,0.027586936950683594,-0.05845370913684726,-0.05085276908904843,-0.0003573921351473741
0.8412299156188965,0.004149541258811951,-0.0030649080872535706,0.01648533344268799,0.011955325491726398,-0.016005096957087517,0.029965300112962723,-0.05841135076286539,-0.050935142247731095,-5.80755249477862e-05
0.8525989055633545,0.0020678117871284485,-0.005867917090654373,0.016855061054229736,0.008547012694180012,-0.00874372199177742,0.0327773317694664,-0.05833031110083961,-0.0509589537632339,0.00026201572559167815
0.8614099025726318,0.0032242126762866974,-0.0021055638790130615,0.01563936471939087,-0.001456869300454855,-0.012931320816278458,0.036954183131456375,-0.05826046420395742,-0.0509401658203784,0.0006200878165824106
0.8712158203125,0.006578020751476288,0.0005782768130302429,0.015577077865600586,-0.008535285480320454,-0.019300270825624466,0.037558719515800476,-0.05823160394810995,-0.05099816869293016,0.0009873772462706829
0.8811228275299072,0.006029829382896423,-0.0008857473731040955,0.01783156394958496,-0.010800603777170181,-0.01933426968753338,0.038520921021699905,-0.05821549946084709,-0.051091076002922224,0.0013648573399028864
0.8911068439483643,0.003939758986234665,0.0013993382453918457,0.015431702136993408,-0.01602785475552082,-0.015924625098705292,0.038813866674900055,-0.05823452346301183,-0.0511527387020415,0.0017465670860582997
0.9025540351867676,0.004248276352882385,0.006964042782783508,0.0153159499168396,-0.01923736371099949,-0.015667274594306946,0.039444342255592346,-0.05833099370247841,-0.051217598802651705,0.002135389251401454
0.91119384765625,0.00500507652759552,0.005751654505729675,0.017359495162963867,-0.02116416022181511,-0.016759969294071198,0.03812661021947861,-0.05853665288774752,-0.051303880382347185,0.002517172570490549
0.921212911605835,0.0021797679364681244,0.004840336740016937,0.015296220779418945,-0.0268365778028965,-0.013557741418480873,0.03455584496259689,-0.05876171074432726,-0.051409261755884124,0.0028695038888727938
0.9311389923095703,-4.18052077293396e-05,0.007029011845588684,0.015812158584594727,-0.025647742673754692,-0.011239992454648018,0.03339150920510292,-0.05898430957601829,-0.051507990131316454,0.003195876702109576
0.9412198066711426,-0.0016554147005081177,0.007316328585147858,0.014759182929992676,-0.01751488260924816,-0.004947297740727663,0.03113298863172531,-0.059200914890658506,-0.051558412801649835,0.0035124430126121414
0.9528326988220215,-0.0012406893074512482,0.00831153616309166,0.011562526226043701,-0.01124659925699234,-0.00017784209921956062,0.025368843227624893,-0.05936566287283883,-0.05151574302025452,0.003796051499819856
0.9611618518829346,0.0010418184101581573,0.009555850178003311,0.008825540542602539,-0.012295435182750225,-0.005458225030452013,0.021155191585421562,-0.059479580582644125,-0.051494457901404854,0.004026073089811899
0.9712398052215576,0.0017305165529251099,0.008122269064188004,0.011803805828094482,-0.018279025331139565,-0.01017441600561142,0.013210713863372803,-0.05964698325826975,-0.05154294501363617,0.004194291238769867
0.9811797142028809,0.002507515251636505,0.004433047026395798,0.012377738952636719,-0.0291071068495512,-0.009127084165811539,0.013261101208627224,-0.059949293225751876,-0.05160390670263146,0.00430734819846198
0.9912776947021484,0.0008604563772678375,0.004676949232816696,0.010735809803009033,-0.0330166257917881,-0.008822951465845108,0.014387617819011211,-0.06031640438558567,-0.051651857998813236,0.004432295760426963
1.0023260116577148,0.002102065831422806,0.00030870363116264343,0.009824097156524658,-0.030363285914063454,-0.010806385427713394,0.009366601705551147,-0.060687528141279784,-0.051735227719001776,0.004534980266159653
1.011582851409912,0.0040796734392642975,0.0034169666469097137,0.005833446979522705,-0.01800195686519146,-0.007205258589237928,0.010608432814478874,-0.0609978069386977,-0.0518219960054171,0.004626611858354643
1.021270751953125,0.0045074597001075745,0.007079731673002243,0.0017431378364562988,-0.008753681555390358,-0.003951275255531073,0.011740010231733322,-0.06121117289708604,-0.051884446716480986,0.004742210190238558
1.031132698059082,0.0032855644822120667,0.002735365182161331,0.004019618034362793,-0.005896908231079578,-0.004404012579470873,0.014227136969566345,-0.06137493382592363,-0.051929694212140075,0.004879395335703796
1.0412850379943848,0.003978312015533447,-0.001247495412826538,0.008063197135925293,-0.015828683972358704,-0.005688500124961138,0.016466163098812103,-0.06160456904069887,-0.05195186295636511,0.005031109446322068
1.0526108741760254,0.003350652754306793,-0.003107726573944092,0.008988916873931885,-0.022501235827803612,-0.005542292725294828,0.017255524173378944,-0.061908985328096765,-0.05198140233912156,0.005196832097276596
1.0612928867340088,0.003465082496404648,-0.006957210600376129,0.008190274238586426,-0.02705039642751217,-0.006292726378887892,0.016680972650647163,-0.062219027442841135,-0.05200535808005659,0.0053593742235149445
1.0714750289916992,0.004301797598600388,-0.0035028979182243347,0.0030091404914855957,-0.026721229776740074,-0.008938044309616089,0.019016830250620842,-0.06254953651956859,-0.05206514701236757,0.005527952108335981
1.0814208984375,0.0049271248281002045,0.0011363700032234192,-0.00018221139907836914,-0.020603066310286522,-0.009021000936627388,0.01966850645840168,-0.06277827115121867,-0.052126846731961926,0.00571204970473754
1.091458797454834,0.0039011426270008087,1.9766390323638916e-05,0.0008241534233093262,-0.016814187169075012,-0.00831499695777893,0.021764680743217468,-0.06301032496073079,-0.05215457109333612,0.0059101329942584015
1.1022918224334717,0.002444278448820114,-0.00012777745723724365,0.0007017850875854492,-0.011245434172451496,-0.008506701327860355,0.023475443944334984,-0.06324989524008642,-0.052163367060493876,0.006141427735595379
1.1112968921661377,0.0013806968927383423,-0.0015313699841499329,0.0019093751907348633,-0.013605527579784393,-0.015170728787779808,0.023828312754631042,-0.063402577326901,-0.05222966361697512,0.006374331019304209
1.1213228702545166,0.00263846293091774,-0.002513118088245392,0.0035278797149658203,-0.019413314759731293,-0.018335718661546707,0.02759615145623684,-0.06354538047335855,-0.052328570303433186,0.006621873039481422
1.1312928199768066,0.0035096704959869385,-0.0013048425316810608,0.005723416805267334,-0.025022465735673904,-0.018433989956974983,0.02958127297461033,-0.06371071800926724,-0.05245306781124642,0.00689644784845351
1.1414589881896973,0.0019737333059310913,-0.004287250339984894,0.005279242992401123,-0.027936313301324844,-0.018797822296619415,0.0308535173535347,-0.06387058650299209,-0.052581316348291704,0.007181326765684879
1.1521120071411133,0.0023806579411029816,-0.002961680293083191,0.0032593607902526855,-0.027177844196558,-0.019527792930603027,0.03629568591713905,-0.06410188764186822,-0.05269950308632762,0.007506371385010006
1.1615028381347656,0.005618549883365631,0.0001213178038597107,0.0035880208015441895,-0.01861947774887085,-0.02032914012670517,0.03371274098753929,-0.06434581155092606,-0.05282586511101565,0.007860896734924771
1.1724348068237305,0.004454024136066437,0.0004718899726867676,0.003726482391357422,-0.007942331954836845,-0.018417254090309143,0.03754476457834244,-0.06446851026395421,-0.05294390627630678,0.008217773221256606
1.1813879013061523,0.004274379462003708,0.0011869817972183228,0.0036087632179260254,-0.007370984181761742,-0.01687910221517086,0.03913291543722153,-0.06454703946866179,-0.05305483428359171,0.008602493370980527
1.191396713256836,0.005434475839138031,0.0013777092099189758,0.005854308605194092,-0.012360150925815105,-0.020890088751912117,0.03931533917784691,-0.06463114866332036,-0.05319336464558105,0.008993965910525918
1.202244758605957,0.0047274306416511536,-0.0010230392217636108,0.009120047092437744,-0.012305039912462234,-0.023845532909035683,0.04167979955673218,-0.06472801070453392,-0.053356972827571326,0.009402964058978697
1.2114458084106445,0.006591346114873886,-0.0003335699439048767,0.008765339851379395,-0.022518528625369072,-0.02184070460498333,0.047609593719244,-0.06489338635839872,-0.053513020505961184,0.009840423556830223
1.2216477394104004,0.005971688777208328,0.0014950260519981384,0.008804738521575928,-0.028621261939406395,-0.02180572785437107,0.05105588585138321,-0.06509463648348608,-0.05367283468995455,0.010314568664324755
1.2315349578857422,0.004261482506990433,-0.0031918808817863464,0.009860873222351074,-0.03545040637254715,-0.022622786462306976,0.05612574517726898,-0.06538763109162758,-0.05382577251473626,0.010830602316783488
1.2416119575500488,0.004981350153684616,-0.0010337680578231812,0.013582944869995117,-0.040327850729227066,-0.019993357360363007,0.06196723133325577,-0.06577858324900439,-0.05393706864854572,0.011404900417171633
1.2523317337036133,0.003688514232635498,0.0023522377014160156,0.012691855430603027,-0.05027768760919571,-0.017937397584319115,0.06738276779651642,-0.06625408800464773,-0.054034833179348964,0.012025541271681234
1.261875867843628,0.001993224024772644,0.0012445226311683655,0.013335347175598145,-0.055552996695041656,-0.01989717409014702,0.06990163028240204,-0.06682902057842449,-0.05412722812872769,0.01269138131584051
1.2715020179748535,0.0024491436779499054,-0.00032486021518707275,0.012686848640441895,-0.04261935502290726,-0.010893826372921467,0.08719193935394287,-0.06736200415856543,-0.05417326415911671,0.013433662458290429
1.2815537452697754,0.007712278515100479,0.005616962909698486,0.007758677005767822,-0.0480043962597847,-0.016038430854678154,0.08264017105102539,-0.06778404835926731,-0.054204289067185524,0.014283044910055297
1.2915968894958496,0.010183971375226974,0.005606524646282196,0.01110750436782837,-0.057971011847257614,-0.018924765288829803,0.09017132967710495,-0.06831452596718762,-0.054251975078925554,0.0151134407006142
1.302372932434082,0.007818255573511124,-0.005200251936912537,0.015738189220428467,-0.08127729594707489,-0.02406209334731102,0.09887491166591644,-0.06903694410903163,-0.05433065153577853,0.016040804001503213
1.3116579055786133,0.012254152446985245,0.0025344938039779663,0.014219462871551514,-0.0987393781542778,-0.03704633563756943,0.09442264586687088,-0.06987967217755395,-0.054528557369009155,0.01696026594699852
1.3217477798461914,0.011827997863292694,0.005078576505184174,0.01611495018005371,-0.149984672665596,-0.04635030776262283,0.1024588942527771,-0.07110755407729337,-0.054840793321825856,0.017877545173758485
1.3318498134613037,0.011304311454296112,0.005511477589607239,0.014904558658599854,-0.1875927746295929,-0.041907355189323425,0.1080041229724884,-0.07283060170884127,-0.05517980057465722,0.018818344043164965
1.3422179222106934,0.008995328098535538,0.003613285720348358,0.015808165073394775,-0.19598326086997986,-0.06153862550854683,0.14122998714447021,-0.07476457128786285,-0.05558122278655994,0.019967628902327627
1.35292387008667,0.020759128034114838,0.00997324287891388,0.012883961200714111,-0.2362649142742157,-0.07997116446495056,0.15165385603904724,-0.07687932850754761,-0.05617189116434363,0.021332151531633845
1.3619608879089355,0.01946297287940979,-7.834285497665405e-05,0.0033409595489501953,-0.2762206196784973,-0.07660070806741714,0.17115245759487152,-0.07947729525006353,-0.056751444112176454,0.02277396971736346
1.3724238872528076,0.013625010848045349,-0.018049508333206177,-0.0052751898765563965,-0.32936903834342957,-0.11113658547401428,0.215368390083313,-0.08253539807586041,-0.05741585233590442,0.024569019759400887
1.3819048404693604,0.030033066868782043,0.008247733116149902,-0.014449894428253174,-0.3578187823295593,-0.16109539568424225,0.2513849437236786,-0.08585196077650357,-0.05848000806683974,0.026720913538857007
1.3948497772216797,0.03789385035634041,0.017441406846046448,-0.01149076223373413,-0.36340847611427307,-0.21147841215133667,0.2674504518508911,-0.08939771426497731,-0.05997406821869999,0.029134685425438296
1.4047679901123047,0.03314375504851341,0.0015688762068748474,-0.014506816864013672,-0.3599601089954376,-0.2827998101711273,0.25880518555641174,-0.09300191097884214,-0.06203125671304261,0.03156748164350835
1.4118528366088867,0.03503919392824173,0.006867393851280212,-0.030866801738739014,-0.37195682525634766,-0.3668521046638489,0.26796990633010864,-0.09661549754672072,-0.06488243668326936,0.03397782949304879
1.4218497276306152,0.045108385384082794,0.028515174984931946,-0.06108742952346802,-0.3731946349143982,-0.4759614169597626,0.27084022760391235,-0.10054526972738624,-0.06884095023659985,0.03643905959713164
1.4317078590393066,0.046391263604164124,0.023290351033210754,-0.08320820331573486,-0.3624538481235504,-0.5974804162979126,0.26410427689552307,-0.10441711883446794,-0.07396085925325012,0.03886967951510862
1.441816806793213,0.04021700471639633,0.01506970077753067,-0.09848558902740479,-0.315864622592926,-0.7297245860099792,0.25740233063697815,-0.10801940039409887,-0.08038347788535205,0.04121589420145111
1.4529457092285156,0.03714528679847717,0.03390384465456009,-0.09704720973968506,-0.25766897201538086,-0.8429821729660034,0.2479878067970276,-0.1111000976686878,-0.08800221683593668,0.04350760474330121
1.461784839630127,0.023961901664733887,0.02860771119594574,-0.09065794944763184,-0.16928432881832123,-0.9715312123298645,0.24966761469841003,-0.1134661814256418,-0.09681732030733484,0.0457931191200619
1.4717838764190674,0.005921579897403717,-0.0024117082357406616,-0.09283202886581421,-0.10023682564496994,-1.0999315977096558,0.2589396834373474,-0.11504644132834552,-0.10689762110188765,0.04823206140290923
1.4820070266723633,-0.009180352091789246,-0.03018718957901001,-0.09868496656417847,-0.08914031833410263,-1.2161616086959839,0.25721475481987,-0.11624914925193992,-0.11818754839582225,0.05070350519326514
1.491872787475586,-0.03422251343727112,-0.07558390498161316,-0.1302056908607483,-0.08547341078519821,-1.3305888175964355,0.2471887618303299,-0.11738788060853296,-0.13082076383796645,0.0530217767323094
1.5025818347930908,-0.05617021024227142,-0.11236061900854111,-0.141859233379364,-0.051289092749357224,-1.5229294300079346,0.29665201902389526,-0.11846652130179863,-0.14474767084744997,0.055703804196753436
1.5118439197540283,-0.06360030174255371,-0.11448073387145996,-0.12311619520187378,-0.021344240754842758,-1.6635304689407349,0.2813319265842438,-0.11926475325976,-0.16037344647277196,0.05855149888432682
1.521864891052246,-0.10622282326221466,-0.1291496604681015,-0.09118330478668213,0.002297605387866497,-1.7624505758285522,0.27800416946411133,-0.11982328233710325,-0.1772018948402411,0.061297844698123015
1.5317819118499756,-0.15530472993850708,-0.14949896931648254,-0.0820649266242981,0.0029239808209240437,-1.8689876794815063,0.29796910285949707,-0.12030914837171136,-0.1950323494779751,0.06416660179212522
1.5421009063720703,-0.18735212087631226,-0.17153555154800415,-0.07587164640426636,-0.029583662748336792,-1.9715371131896973,0.3212568461894989,-0.12109596763631901,-0.2138854835092919,0.06717711371402513
1.5529828071594238,-0.21211783587932587,-0.1935957372188568,-0.04061532020568848,0.02718427963554859,-2.066758394241333,0.3548251986503601,-0.12184513835615343,-0.23373861408669847,0.07051266609160399
1.5620808601379395,-0.23548732697963715,-0.1835637092590332,-0.022989094257354736,0.02631264366209507,-2.094841480255127,0.3812590539455414,-0.12243763430357738,-0.2541851987953637,0.0741707867412779
1.5720219612121582,-0.2815984785556793,-0.1914338916540146,-0.01991802453994751,0.03118249960243702,-2.091965675354004,0.42855891585350037,-0.12323373793363891,-0.274633040668124,0.07817030621169263
1.5818939208984375,-0.31614384055137634,-0.2418903410434723,-0.013714611530303955,0.04368417710065842,-2.094101667404175,0.49070411920547485,-0.12418266684317451,-0.2950483360345177,0.08273723378121754
1.5919709205627441,-0.3312542736530304,-0.25912562012672424,-0.0040337443351745605,0.1336686611175537,-2.0165512561798096,0.5460387468338013,-0.12483671588570586,-0.3151908878841198,0.08791975479798281
1.6022708415985107,-0.3305695950984955,-0.3014906644821167,-0.016942977905273438,0.10585671663284302,-2.0069870948791504,0.516518235206604,-0.1254585898089164,-0.3348034220214362,0.09341441602701399
1.6120188236236572,-0.31532078981399536,-0.3490173816680908,-0.015134990215301514,0.18697687983512878,-2.057201385498047,0.48773637413978577,-0.12591554431731905,-0.3547344018223456,0.09842076222270417
1.62202787399292,-0.35295867919921875,-0.35155999660491943,-0.03317135572433472,0.40176302194595337,-1.9316062927246094,0.6041805744171143,-0.1250178824644296,-0.3740219786717657,0.10476900243221958
1.6321439743041992,-0.38560226559638977,-0.3063884675502777,-0.03660845756530762,0.6309009194374084,-1.7986663579940796,0.6138204336166382,-0.12249059848396283,-0.3918097571754347,0.11236383086950807
1.642927885055542,-0.39092323184013367,-0.40813684463500977,0.08556115627288818,1.0114728212356567,-1.632986068725586,0.7090961933135986,-0.11752906090624904,-0.4080476667302832,0.12171857906015704
1.6525659561157227,-0.3617720901966095,-0.43892768025398254,0.1791999340057373,1.073006510734558,-1.4303770065307617,0.7968982458114624,-0.11084655847197926,-0.42195011454557635,0.13274680158426702
1.6620240211486816,-0.35570162534713745,-0.4036306142807007,0.2271755337715149,0.959526538848877,-1.225274682044983,0.9482297301292419,-0.10510284486837806,-0.43396129857384347,0.1452123440407044
1.6720390319824219,-0.3783111572265625,-0.4739639461040497,0.32951462268829346,0.7844737768173218,-1.0133826732635498,1.0461368560791016,-0.10138071473135898,-0.4439190526006308,0.15798547476010003
1.6820249557495117,-0.4094611704349518,-0.5392170548439026,0.4463884234428406,0.7221441864967346,-0.7683899998664856,1.1399726867675781,-0.09930155810775518,-0.45167110775311686,0.17112737033523773
1.692060947418213,-0.42279455065727234,-0.4947858452796936,0.4679742455482483,0.6489418745040894,-0.44093093276023865,1.2549527883529663,-0.09827665057373353,-0.45643625789631853,0.18489649802825228
1.7027039527893066,-0.4484681785106659,-0.46724048256874084,0.42238521575927734,0.630087673664093,-0.14213818311691284,1.45534348487854,-0.09858004232059221,-0.45789411666341107,0.1998916076359176
1.7118098735809326,-0.48383674025535583,-0.5018752813339233,0.44538670778274536,0.7176369428634644,0.2104789912700653,1.577452301979065,-0.09914470456114421,-0.4559581634172854,0.2167681858144622
1.722005844116211,-0.5059752464294434,-0.4607483446598053,0.4911472201347351,0.7598296999931335,0.5476101040840149,1.7308237552642822,-0.09972290895377649,-0.45037704621800007,0.23478974119090995
1.7318768501281738,-0.5041600465774536,-0.44145458936691284,0.5326611399650574,0.8711897730827332,0.8946657776832581,1.9185214042663574,-0.10025293971713428,-0.4411727127143479,0.25494327719339493
1.742055892944336,-0.42948415875434875,-0.37744808197021484,0.5410404205322266,0.9812288880348206,1.2136290073394775,2.33587646484375,-0.10077854192974817,-0.4283455359494141,0.2779765549193475
1.7521448135375977,-0.33180665969848633,-0.3082617521286011,0.5564889311790466,0.7959301471710205,1.5762618780136108,2.434925079345703,-0.10223263033598248,-0.41178795095448995,0.30415922785278815
1.7618489265441895,-0.31620222330093384,-0.42942577600479126,0.5549160242080688,0.2851361334323883,1.8881651163101196,2.5158872604370117,-0.10681398191017716,-0.3917486434471162,0.3289154174618938
1.771918773651123,-0.275163471698761,-0.49529343843460083,0.5685267448425293,0.04196393862366676,2.164085865020752,2.784062623977661,-0.1152998568296792,-0.36873852633818394,0.35437564502256147
1.7819299697875977,-0.049145668745040894,-0.3320311903953552,0.4786807894706726,-0.06339824944734573,2.4679667949676514,2.939760208129883,-0.12549712045813396,-0.3423283188415698,0.3812415311872861
1.7920598983764648,0.05420967936515808,-0.28003305196762085,0.3535742163658142,-0.00047521130181849003,2.808826208114624,3.190622568130493,-0.13581226548927583,-0.3121428251313238,0.4103824922336938
1.802790880203247,0.19948267936706543,-0.2055376172065735,0.304002046585083,0.08093441277742386,3.1690826416015625,3.421623945236206,-0.14490234198147936,-0.277736140411108,0.4425245488541992
1.8120179176330566,0.30636411905288696,-0.1603102684020996,0.2964434027671814,0.05627327039837837,3.5316519737243652,3.649528741836548,-0.15326512396994205,-0.23906882405633778,0.4773316350729533
1.8220179080963135,0.4503232538700104,-0.15729796886444092,0.2837905287742615,-0.14708486199378967,3.9514026641845703,3.765273332595825,-0.1615861978449279,-0.19586878944856037,0.51402995782935
1.8321657180786133,0.624489426612854,-0.08922192454338074,0.2682884931564331,-0.33166804909706116,4.262050151824951,3.901743173599243,-0.17067698719981866,-0.1484383533616405,0.5519159534210194
1.842257022857666,0.8277507424354553,-0.04857589304447174,0.23044729232788086,-0.4458325207233429,4.5335164070129395,3.908019781112671,-0.1793269205857441,-0.097533332216066,0.5909705662433273
1.8534049987792969,1.0555932521820068,0.021299093961715698,0.16613119840621948,-0.5077552795410156,4.631222248077393,3.926304817199707,-0.18695687542905007,-0.04438769824957297,0.6303941735616475
1.862504005432129,1.2524737119674683,0.049528419971466064,0.12373805046081543,-0.45207464694976807,4.643955707550049,3.8734130859375,-0.19251876545340166,0.00959017210297613,0.6700724450918587
1.8732798099517822,1.439511775970459,0.1312132626771927,0.017833173274993896,-0.23552608489990234,4.508088111877441,3.8054537773132324,-0.19462882606998935,0.0630938092126512,0.7093976875640798
1.8821368217468262,1.5027148723602295,0.2140744924545288,-0.11209183931350708,0.08359412103891373,4.217573642730713,3.6200356483459473,-0.19204165232392087,0.114096908421589,0.7472517754930673
1.8920679092407227,1.4583576917648315,0.2890942096710205,-0.24697184562683105,0.2901667356491089,3.7544057369232178,3.3337693214416504,-0.18535419097990935,0.1607051648683772,0.7821290095246535
1.9021849632263184,1.3008384704589844,0.2970190644264221,-0.32005006074905396,0.3156624436378479,3.138929843902588,2.8873493671417236,-0.17646015114984562,0.20078196798358242,0.8128696052146301
1.9121580123901367,1.0386635065078735,0.37214046716690063,-0.2778138518333435,-0.08051125705242157,2.3881661891937256,2.1561977863311768,-0.16971947771748816,0.23284832642461833,0.8377081186920097
1.9221467971801758,0.7614214420318604,0.47754383087158203,-0.22106939554214478,-0.41673460602760315,1.5464646816253662,1.3832646608352661,-0.1680057171717498,0.2555452332678814,0.855822474099711
1.93212890625,0.555827796459198,0.6034512519836426,-0.20725834369659424,-0.3272942006587982,0.887977123260498,0.7106398344039917,-0.1687878151175112,0.2693604306451772,0.8668952563344956
1.9424018859863281,0.39896172285079956,0.6339397430419922,-0.2214863896369934,0.009199537336826324,0.4412594437599182,0.16698764264583588,-0.1694674443650915,0.27666485044410893,0.8713428295076242
1.9527339935302734,0.2825661897659302,0.4675777852535248,-0.25394201278686523,0.5834676027297974,0.24577195942401886,-0.09104149043560028,-0.16658411761691816,0.2798424901669356,0.8707820636198189
1.9623358249664307,0.23271462321281433,0.32429155707359314,-0.2489808201789856,1.0838955640792847,0.22792109847068787,-0.17157799005508423,-0.15887430718863588,0.281490358995928,0.8670286565807759
1.9723708629608154,0.14498379826545715,0.1873353272676468,-0.1780177354812622,1.2957199811935425,0.3231546878814697,-0.09704276919364929,-0.14756566568922652,0.2834839059113966,0.8622688071152655
1.9822008609771729,0.1197405457496643,0.10911156237125397,-0.09841799736022949,1.097519040107727,0.38779884576797485,0.01505505945533514,-0.13593577385173425,0.2865366776589522,0.8583538930515688
1.9922459125518799,0.12212231755256653,0.06545260548591614,-0.012057304382324219,0.5115727186203003,0.34558266401290894,0.13683955371379852,-0.12782752470651954,0.2900694819252919,0.8567424210368432
2.003811836242676,0.14598792791366577,0.06656904518604279,0.08995634317398071,-0.28423115611076355,0.23014315962791443,0.20691637694835663,-0.12613287289897818,0.29316758999546394,0.8581083062477014
2.0123510360717773,0.1394253671169281,0.06834745407104492,0.1651284098625183,-1.0223392248153687,0.07029889523983002,0.21535299718379974,-0.1319405764467558,0.2951657216333302,0.8621119138332759
2.022341728210449,0.12287774682044983,0.05820462107658386,0.14676517248153687,-1.4951493740081787,-0.060493070632219315,0.1920289844274521,-0.14355150333721226,0.2959854276649074,0.8678875229023051
2.032277822494507,0.1020413339138031,0.05832913517951965,0.07564061880111694,-1.5644989013671875,-0.1193595826625824,0.1411317139863968,-0.1579798145947021,0.29595244088915984,0.8741029038003648
2.042402744293213,0.07190367579460144,0.034593209624290466,0.009343147277832031,-1.2750871181488037,-0.11680587381124496,0.09203170239925385,-0.1713993791339388,0.29563116324901145,0.87948229522695
2.0536139011383057,0.07556384801864624,0.01701931655406952,-0.06279611587524414,-0.8410782217979431,-0.10292308032512665,0.027674289420247078,-0.1813456269257871,0.29516816746641045,0.8832231274313765
2.062419891357422,0.07506921887397766,-0.0019276589155197144,-0.08170062303543091,-0.47615665197372437,-0.08714092522859573,-0.07469815760850906,-0.18765867449092077,0.29454316201845215,0.8849411678701089
2.072453022003174,0.05908447504043579,0.002372056245803833,-0.044274091720581055,-0.23240500688552856,-0.08067982643842697,-0.17397068440914154,-0.1913287006718173,0.2936780220644654,0.884744488904769
2.0823659896850586,0.06052544713020325,0.008149728178977966,0.004165172576904297,-0.1123390793800354,-0.0911044254899025,-0.2182699739933014,-0.19347951458717846,0.29253087318560844,0.8832738069446433
2.0923268795013428,0.074504554271698,-0.009409740567207336,0.053699374198913574,-0.031304147094488144,-0.07985762506723404,-0.20974145829677582,-0.1947978807405023,0.29127506704632966,0.8813818968275798
2.1027488708496094,0.0742940604686737,-0.030108675360679626,0.08568888902664185,0.017452256754040718,-0.017917336896061897,-0.19515441358089447,-0.19542821069941488,0.29039981389439296,0.8793852605802832
2.112384796142578,0.04168853163719177,-0.06415671110153198,0.09034836292266846,0.0336405448615551,0.0515911690890789,-0.12509198486804962,-0.19565176952413477,0.2902317895675885,0.8777427077716954
2.122562885284424,0.03872966766357422,-0.10297234356403351,0.07366049289703369,0.028430521488189697,0.13183438777923584,-0.04786526411771774,-0.19557121120692686,0.2909724373105219,0.8768018350202285
2.132417917251587,0.033389121294021606,-0.11862120032310486,0.06024271249771118,-0.015271950513124466,0.18785451352596283,0.010293114930391312,-0.19556443194739948,0.2925637257421452,0.8766099294097329
2.142411708831787,0.036514103412628174,-0.11667500436306,0.05157935619354248,-0.06073545292019844,0.18950997292995453,0.04993560165166855,-0.19585150715298494,0.294566804822239,0.8770322609735187
2.1531689167022705,0.043732792139053345,-0.09541460871696472,0.04015302658081055,-0.10370955616235733,0.16379821300506592,0.05120539665222168,-0.1964687792684312,0.2965054498827221,0.8778018784171109
2.162621021270752,0.04166382551193237,-0.07328647375106812,0.03037869930267334,-0.1580004245042801,0.11713653057813644,0.047325436025857925,-0.19760170712999736,0.2980815760268979,0.8786695818320684
2.1726508140563965,0.03765976428985596,-0.06955073773860931,0.02019280195236206,-0.15866167843341827,0.09103941917419434,0.04030081629753113,-0.19902073243367563,0.29929970689722174,0.8795779614417965
2.182626724243164,0.02582135796546936,-0.06993989646434784,0.0015549659729003906,-0.08021065592765808,0.07553307712078094,0.03727461397647858,-0.20008717866302017,0.30025998648879354,0.8803223301251031
2.1926369667053223,0.015124857425689697,-0.053167492151260376,-0.023270249366760254,0.014867658726871014,0.0820370465517044,0.03843708336353302,-0.20027096114197515,0.30113562359831814,0.88079623130284
2.204162836074829,0.012156516313552856,-0.03299073874950409,-0.04309093952178955,0.0907023623585701,0.09536527842283249,0.027738258242607117,-0.19964346620247855,0.3020667285265399,0.8809603173837125
2.212826728820801,0.017382413148880005,-0.02084733545780182,-0.04176902770996094,0.1493624895811081,0.09692083299160004,0.01395107340067625,-0.19804287013700717,0.30306697872462934,0.8808109303638233
2.2230708599090576,0.03346359729766846,0.004072457551956177,-0.03725498914718628,0.1737007051706314,0.09455057233572006,-0.011715195141732693,-0.19597116551037375,0.30403156146102966,0.8803423276237408
2.2326228618621826,0.03735968470573425,0.027046307921409607,-0.022259652614593506,0.16217879951000214,0.08336769789457321,-0.02730880118906498,-0.19403300273322788,0.30490035803757615,0.8796343097762037
2.242642879486084,0.034226059913635254,0.01565614342689514,-0.009175002574920654,0.13708028197288513,0.07683784514665604,-0.02291480079293251,-0.19239214441643637,0.3056854667341817,0.878938170458105
2.252880811691284,0.03261971473693848,0.004552781581878662,-0.02198028564453125,0.12117349356412888,0.07251846790313721,0.0012810842599719763,-0.1909414601868438,0.3064323061857181,0.8784503725874523
2.2626729011535645,0.024369001388549805,-0.005997031927108765,-0.03563892841339111,0.10532885044813156,0.0701761245727539,0.024341236799955368,-0.18953350395593777,0.3071405359664722,0.8782454426586792
2.272794723510742,0.010846614837646484,-0.0006939619779586792,-0.03155940771102905,0.07540104538202286,0.05714288353919983,0.037738535553216934,-0.1883910151908163,0.3077590761139056,0.878267479547259
2.282623767852783,0.002181798219680786,-0.004775539040565491,-0.024299442768096924,0.06237630918622017,0.050079867243766785,0.03974751755595207,-0.1874666748772976,0.30827127898115525,0.8784322571315197
2.2927427291870117,0.0026911795139312744,0.0006741583347320557,-0.028903186321258545,0.04269155114889145,0.03848233446478844,0.04384612292051315,-0.18673443780187338,0.3087424644351799,0.8786718072012433
2.303055763244629,0.007825493812561035,0.008064374327659607,-0.040219783782958984,0.02915986068546772,0.025713631883263588,0.03975609317421913,-0.18631011615881196,0.3092306481318599,0.878985979719416
2.3127689361572266,0.009744763374328613,0.01927982270717621,-0.03865998983383179,0.0005151682998985052,0.010163700208067894,0.02204580418765545,-0.18634093337794724,0.3096599105073701,0.8792827547344119
2.3226728439331055,0.003870248794555664,0.023996829986572266,-0.025546491146087646,-0.005211460404098034,-0.006789450999349356,0.013077822513878345,-0.18647862154710462,0.3098637446918128,0.8794846953899598
2.3328347206115723,0.0025708377361297607,0.01874352991580963,-0.02675473690032959,-0.0007035275921225548,-0.019672226160764694,0.008484669029712677,-0.1865140117452528,0.30985215334213795,0.8796125640148715
2.3429758548736572,0.001683562994003296,0.014052212238311768,-0.023725450038909912,0.012926646508276463,-0.020082753151655197,0.009954254142940044,-0.18638125757316967,0.309699809698579,0.8796888339421503
2.353147029876709,-0.0025404691696166992,0.011654213070869446,-0.023181676864624023,0.020669255405664444,-0.022974679246544838,0.010791285894811153,-0.1861662900468234,0.3094883799011995,0.8797296193994218
2.3629848957061768,-0.002259969711303711,0.0076309144496917725,-0.02667999267578125,0.026689298450946808,-0.025747383013367653,0.011492389254271984,-0.18586617440562905,0.3092196019606082,0.8797588442810494
2.373441696166992,0.0005946159362792969,0.005286648869514465,-0.025656044483184814,0.023467671126127243,-0.0338420644402504,0.012062040157616138,-0.18554996687876285,0.30888969431940194,0.8797994850410402
2.38297700881958,0.0008287727832794189,0.008813753724098206,-0.0077141523361206055,0.008696099743247032,-0.042960505932569504,0.006186360493302345,-0.18536130375571422,0.3084979904968354,0.8798391501981665
2.3933987617492676,-0.00315093994140625,0.012906298041343689,0.0016157031059265137,-0.017516596242785454,-0.05206878110766411,-0.005150982178747654,-0.18548225818589908,0.30804597396288563,0.8798676325087237
2.403143882751465,-0.002910017967224121,0.014671072363853455,-0.002159416675567627,-0.04315701127052307,-0.060942523181438446,-0.011323337443172932,-0.18593784202136468,0.307490126310858,0.8799028359616402
2.4128408432006836,0.00011041760444641113,0.008171945810317993,0.003915011882781982,-0.051303353160619736,-0.06184293329715729,-0.01875275745987892,-0.18655779493237012,0.30686017076740296,0.879905418429079
2.422837734222412,-0.006332874298095703,-0.001035347580909729,0.015847444534301758,-0.02353813499212265,-0.04413504898548126,-0.014862040057778358,-0.187076610548638,0.3062928993616064,0.8798544825012783
2.432886838912964,-0.012156814336776733,-0.005290612578392029,0.02077871561050415,0.02098725363612175,-0.006859314162284136,-0.007077087182551622,-0.18719887750011904,0.305952946090997,0.8797280905603534
2.4430618286132812,-0.01353350281715393,-0.009381279349327087,0.016821742057800293,0.06188587099313736,0.02575797215104103,0.007046774961054325,-0.18682750926403452,0.30593436228296395,0.8795729548041529
2.453457832336426,-0.008680850267410278,-0.014965280890464783,0.012089431285858154,0.09378734230995178,0.04895623400807381,0.01925497129559517,-0.18600380710377196,0.3062268663640808,0.8794498614157776
2.4629628658294678,-0.000753939151763916,-0.013402774930000305,0.010875105857849121,0.0765320211648941,0.04923418164253235,0.023602955043315887,-0.18526787452034896,0.30674498676416656,0.8793985783941186
2.4729747772216797,0.004266530275344849,-0.01026269793510437,0.025862514972686768,0.038628049194812775,0.03634341433644295,0.012500235810875893,-0.184945173303134,0.3071814759115624,0.8794067214500892
2.483032703399658,0.001985222101211548,0.003872603178024292,0.04770326614379883,-0.009378508664667606,0.02511468715965748,0.009083347395062447,-0.18511016251610576,0.30747639996012976,0.8794521724608357
2.493114948272705,0.002096831798553467,0.0035487860441207886,0.04917800426483154,-0.02170947752892971,0.03464400768280029,0.013683158904314041,-0.18540857492758964,0.3078311205120636,0.8796273401188566
2.504307746887207,0.004968315362930298,0.0009849369525909424,0.036790549755096436,-0.017998944967985153,0.039821505546569824,0.03127243369817734,-0.18561078906369086,0.3082149040482862,0.8798993942611611
2.513035774230957,0.004912346601486206,0.0008353739976882935,0.029513657093048096,-0.007530324626713991,0.056539230048656464,0.04482872411608696,-0.18559217622725424,0.3086809268383347,0.880288591721729
2.523195743560791,-0.0012788176536560059,0.002192273736000061,0.027245044708251953,-0.026612672954797745,0.05453786626458168,0.048406947404146194,-0.18553122632012503,0.30921089781655514,0.8807548715482029
2.5330100059509277,-0.005360156297683716,0.0010918974876403809,0.0289495587348938,-0.0215862225741148,0.06026525795459747,0.0439690537750721,-0.18550195734874764,0.30980366096037953,0.8812836403514812
2.542933940887451,-0.010904550552368164,0.011508077383041382,0.025696098804473877,-0.01611395925283432,0.054688066244125366,0.03987257927656174,-0.18544552143555773,0.31045820769074023,0.8817364338831117
2.553297996520996,-0.005918651819229126,0.020293444395065308,-0.002463817596435547,-0.01624445430934429,0.033874399960041046,0.035524170845746994,-0.18543375775904294,0.3110484938273347,0.882178698400571
2.5631790161132812,-0.0014896988868713379,0.02608373761177063,-0.010239362716674805,-0.030058270320296288,0.008793547749519348,0.01708177849650383,-0.18569034308309185,0.3114349325026859,0.8825234573060508
2.5739078521728516,-0.005234658718109131,0.03309193253517151,0.007984340190887451,-0.053131379187107086,-0.01698438636958599,-0.002649741480126977,-0.18618270687864466,0.3115369909761189,0.8827418988092965
2.5836219787597656,0.0003127753734588623,0.026484400033950806,0.025496363639831543,-0.06508170068264008,-0.03160252049565315,-0.017909761518239975,-0.18686642782848,0.3114063309115541,0.8828451436628113
2.5931408405303955,-0.0012336671352386475,0.021015405654907227,0.03284502029418945,-0.06262919306755066,-0.02640855871140957,-0.030287068337202072,-0.1876028131295463,0.31119586622924345,0.8828246534502833
2.603299856185913,-0.005395174026489258,0.013454511761665344,0.02371746301651001,-0.03801627829670906,-0.019812840968370438,-0.030116252601146698,-0.1882320399046463,0.31098517813782167,0.8826977156416034
2.613163948059082,-0.004647970199584961,0.005856841802597046,0.012890040874481201,-0.012845410965383053,-0.0049886214546859264,-0.029897339642047882,-0.18860361670880474,0.310845275084862,0.8824944509706119
2.6232128143310547,-0.006434202194213867,0.005309388041496277,0.01813417673110962,-0.00030009192414581776,0.006297944113612175,-0.03475414589047432,-0.18888132189109527,0.31079803807244405,0.8821981282135378
2.6331839561462402,-0.004284948110580444,0.0037929266691207886,0.02231055498123169,0.0038983814883977175,0.008472948335111141,-0.03266942501068115,-0.1891047930360796,0.31078156581473126,0.8818643891737051
2.643181800842285,0.0004912316799163818,0.0018974393606185913,0.019398212432861328,-0.006534252315759659,0.00953572615981102,-0.026169979944825172,-0.18940343791556188,0.31079975141901145,0.8815734035654745
2.6533708572387695,0.0017192661762237549,-0.0021944940090179443,0.027752995491027832,-0.01423957571387291,0.02079317532479763,-0.019680390134453773,-0.18991878266025022,0.3109216161778015,0.8813899451441045
2.6632747650146484,-0.0013324320316314697,-0.005245968699455261,0.03149402141571045,-0.02143898420035839,0.033994242548942566,-0.007539731450378895,-0.19046235772618975,0.31129796767596407,0.881337128127913
2.6733028888702393,-0.0017638206481933594,-0.009592011570930481,0.016600191593170166,-0.024308539927005768,0.04178106039762497,0.002909447066485882,-0.1909724528036556,0.3118075907104882,0.8814036263149796
2.6832127571105957,0.00035181641578674316,-0.012710005044937134,0.0037348270416259766,-0.032043855637311935,0.036133650690317154,0.0005328957922756672,-0.19142846512734155,0.31225001957820225,0.8815262205935819
2.693227767944336,0.0010900795459747314,-0.006309628486633301,-0.0024483203887939453,-0.041440289467573166,0.014044592157006264,-0.013337379321455956,-0.1918721331802717,0.31250025387366653,0.8815838419794052
2.7034108638763428,0.005612105131149292,0.006887301802635193,-0.01221853494644165,-0.05072692781686783,-0.025686664506793022,-0.03392089903354645,-0.1924803591500409,0.31240199975650584,0.8815006534102795
2.7132906913757324,0.013464570045471191,0.01525077223777771,-0.019678831100463867,-0.0651085302233696,-0.06482607126235962,-0.06258956342935562,-0.19327157906056444,0.31191897852816075,0.8812120351992567
2.7232468128204346,0.017073482275009155,0.018188446760177612,-0.025745034217834473,-0.07752452045679092,-0.0945126861333847,-0.08771861344575882,-0.19421196434709714,0.31112051175642075,0.8807302410286372
2.733428955078125,0.018502771854400635,0.01898413896560669,-0.03228491544723511,-0.09812513738870621,-0.1129782497882843,-0.10523076355457306,-0.1953139377593393,0.31011761214910755,0.8801029770976176
2.7435028553009033,0.015346378087997437,0.015580505132675171,-0.02350562810897827,-0.11198943853378296,-0.12196911871433258,-0.12241619825363159,-0.19660606037171532,0.3089396874745588,0.879346729178588
2.7534918785095215,0.0079268217086792,0.007844284176826477,-0.0214688777923584,-0.11378175020217896,-0.13565510511398315,-0.13775946199893951,-0.19785091609529565,0.3075695704817273,0.8784518437593655
2.7633557319641113,0.013607293367385864,0.012185588479042053,-0.03381085395812988,-0.11645182967185974,-0.15977448225021362,-0.15765374898910522,-0.19907254116723552,0.30596127194624595,0.8773916980826943
2.773447036743164,0.020523816347122192,0.0195741206407547,-0.045412421226501465,-0.13479381799697876,-0.19567681849002838,-0.1902569681406021,-0.20059491139356941,0.30401350531117716,0.8761088188541349
2.7833399772644043,0.024744004011154175,0.026742711663246155,-0.0501900315284729,-0.16045382618904114,-0.24628596007823944,-0.22872750461101532,-0.20256036581636558,0.3015842566133086,0.8745413853741054
2.7933428287506104,0.03244626522064209,0.032886579632759094,-0.056122779846191406,-0.2038242071866989,-0.31549352407455444,-0.2783888280391693,-0.20505891601741885,0.298534594354916,0.8726487686903694
2.8034539222717285,0.040688157081604004,0.03282991051673889,-0.06410527229309082,-0.24663035571575165,-0.39481091499328613,-0.3308875262737274,-0.20811014290560464,0.2946359138225864,0.8703758055874583
2.813570022583008,0.04960876703262329,0.03930601477622986,-0.07431507110595703,-0.2820013761520386,-0.4756051003932953,-0.38001301884651184,-0.211676298451184,0.2897875525191509,0.8676831434603908
2.8255279064178467,0.04689618945121765,0.039680346846580505,-0.06743580102920532,-0.2704719305038452,-0.527582585811615,-0.432660311460495,-0.2154776922193838,0.28413403725952635,0.8645257040113794
2.8334479331970215,0.033157795667648315,0.025816023349761963,-0.04804360866546631,-0.2380516678094864,-0.5515569448471069,-0.4661213159561157,-0.21919071760569947,0.2779195706298578,0.860796882974145
2.843561887741089,0.03598138689994812,0.004697635769844055,-0.050413668155670166,-0.19115713238716125,-0.558813214302063,-0.48365530371665955,-0.22255327271721725,0.2714537059181317,0.8566971031386706
2.853713035583496,0.050278544425964355,-0.0037538260221481323,-0.061423540115356445,-0.1471625119447708,-0.5613434910774231,-0.5080437660217285,-0.22549348305940772,0.26485401568188854,0.8522470501952234
2.863623857498169,0.0555422306060791,0.002563685178756714,-0.05406773090362549,-0.12089984118938446,-0.5620183348655701,-0.5363286137580872,-0.228123971431228,0.2581598320796279,0.8474194276599
2.873715877532959,0.06069430708885193,0.0009681582450866699,-0.0323786735534668,-0.11028953641653061,-0.5770689249038696,-0.5627314448356628,-0.23062421358428528,0.25129037538903315,0.842260399182395
2.883654832839966,0.06517566740512848,-0.010552167892456055,-0.017085134983062744,-0.12664400041103363,-0.6085790991783142,-0.5959524512290955,-0.23316405138066493,0.2441049151951997,0.8367748217474881
2.893699884414673,0.07543621957302094,-0.008434101939201355,-0.018719792366027832,-0.16998295485973358,-0.651104211807251,-0.640889048576355,-0.23608511968721227,0.23645102941468293,0.8309706164688174
2.903535842895508,0.08563676476478577,0.0012629926204681396,-0.022859036922454834,-0.19605179131031036,-0.6987404823303223,-0.6901004314422607,-0.23940563191241943,0.22822750066762065,0.8247381193616529
2.9133658409118652,0.08645977079868317,0.007553920149803162,-0.020070672035217285,-0.22555190324783325,-0.7413910031318665,-0.7452957630157471,-0.24306251635132348,0.21940842913742106,0.8179960475657287
2.9234979152679443,0.09815065562725067,0.010653302073478699,-0.014462113380432129,-0.2608289420604706,-0.779379665851593,-0.7894187569618225,-0.24707144642202425,0.2100456550322724,0.8107842139726044
2.933473825454712,0.10557661950588226,0.014415174722671509,-0.000599205493927002,-0.3098231256008148,-0.8010865449905396,-0.8408718109130859,-0.25151896563781917,0.20023479619345297,0.8031289229827206
2.943511962890625,0.10096709430217743,0.0247361958026886,0.007974863052368164,-0.3768216073513031,-0.8101947903633118,-0.8915236592292786,-0.2565574125338548,0.190129720281617,0.7950282857092402
2.9535248279571533,0.11608752608299255,0.047500550746917725,0.0010207295417785645,-0.46248164772987366,-0.8142545223236084,-0.942829430103302,-0.262368921343868,0.17980290526124065,0.7864871052103567
2.963423728942871,0.12841500341892242,0.0628332793712616,0.0026589632034301758,-0.5358399152755737,-0.8192260265350342,-0.9953303933143616,-0.2689972924426179,0.16926761235727278,0.7774852294985072
2.973470687866211,0.12178172171115875,0.05311670899391174,0.012766361236572266,-0.5637179017066956,-0.8388367295265198,-1.0486359596252441,-0.27613942870729136,0.1584161192021217,0.7679510170925681
2.983522891998291,0.1294638216495514,0.04374194145202637,0.012972712516784668,-0.5415087342262268,-0.8692818880081177,-1.0983163118362427,-0.2832578641625601,0.1470618845720291,0.757775778574881
2.993459701538086,0.14604684710502625,0.0467434823513031,0.006254851818084717,-0.5030694603919983,-0.8929225206375122,-1.154798984527588,-0.2900392706466939,0.1351699081970592,0.7469179903017067
3.003530979156494,0.14240390062332153,0.049720942974090576,0.011356711387634277,-0.4251176416873932,-0.9126380085945129,-1.220726728439331,-0.29620547160392163,0.12275825114098861,0.7352286137013002
3.0135648250579834,0.13813038170337677,0.05481860041618347,0.005107402801513672,-0.3210572600364685,-0.9226562976837158,-1.302166223526001,-0.30139319294820377,0.10984493364706269,0.7225697495086555
3.0235767364501953,0.16345210373401642,0.07578107714653015,-0.020069599151611328,-0.22111767530441284,-0.9304672479629517,-1.3933922052383423,-0.30545768396797485,0.09646603928672029,0.7088061935958874
3.033547878265381,0.1915440708398819,0.09582126140594482,-0.023421525955200195,-0.12617811560630798,-0.9433289766311646,-1.4917027950286865,-0.30850942475239773,0.08258605805253588,0.6938763470720378
3.0435519218444824,0.21032655239105225,0.09599769115447998,-0.015746116638183594,0.03636496141552925,-0.9722184538841248,-1.5788013935089111,-0.31016638405051894,0.06812060682795408,0.677824269489082
3.0535030364990234,0.23361192643642426,0.09580296277999878,-0.02358555793762207,0.1791311651468277,-0.9955344796180725,-1.6707522869110107,-0.31005038324850276,0.053060436517182175,0.6607076613777096
3.063593864440918,0.2640502154827118,0.09543702006340027,-0.0340578556060791,0.27354666590690613,-1.0271810293197632,-1.7165950536727905,-0.30856038306176026,0.03748751759890939,0.6427913484122648
3.073939800262451,0.2902141213417053,0.0718938410282135,-0.03236949443817139,0.3447713255882263,-1.0386548042297363,-1.7617337703704834,-0.3059178110291299,0.021612427371066577,0.6244545845782339
3.0835518836975098,0.2892701327800751,0.06586423516273499,-0.005168437957763672,0.2900089919567108,-1.050916314125061,-1.8110508918762207,-0.3029133934100456,0.0055536441875710645,0.6056707722735889
3.0935378074645996,0.28932711482048035,0.08144062757492065,0.018147587776184082,0.13310061395168304,-1.0599052906036377,-1.8690608739852905,-0.30077485380877084,-0.010709613326047859,0.5863894915248544
3.1035618782043457,0.3032304644584656,0.11280715465545654,0.035170137882232666,0.014603440649807453,-1.0428270101547241,-1.9456347227096558,-0.2997423766167793,-0.027114136245752676,0.566461444040224
3.1135878562927246,0.2875763773918152,0.1609954535961151,0.05789154767990112,-0.09679259359836578,-1.000559687614441,-2.0592041015625,-0.2994697993584333,-0.04349251932088205,0.5455083014495355
3.1235756874084473,0.2668688893318176,0.19347289204597473,0.06995850801467896,-0.20520541071891785,-0.9511358141899109,-2.182116985321045,-0.2999578058810875,-0.05981104872359643,0.5232429747970626
3.1335906982421875,0.27401986718177795,0.18880045413970947,0.062402963638305664,-0.2254161387681961,-0.8812627196311951,-2.3050146102905273,-0.3006640822622199,-0.07594306885049702,0.49964595173354304
3.1437108516693115,0.28626036643981934,0.191117525100708,0.05229783058166504,-0.19005770981311798,-0.7779700756072998,-2.4096951484680176,-0.3008421666232503,-0.09156624389980815,0.47482420936061925
3.1536927223205566,0.28138819336891174,0.17405498027801514,0.05427283048629761,0.0620453767478466,-0.6629257798194885,-2.4596612453460693,-0.29926427224176216,-0.10627989907971072,0.44935103445364294
3.163625717163086,0.2524207830429077,0.12478634715080261,0.056806862354278564,0.3434717357158661,-0.5367236733436584,-2.548952102661133,-0.2944113682359119,-0.11977128187008844,0.4235967244715277
3.173794746398926,0.22281958162784576,0.10568144917488098,0.08344537019729614,0.5927726030349731,-0.4830646514892578,-2.637057304382324,-0.286513037810835,-0.13234790562811846,0.3972953594631901
3.1837449073791504,0.19903530180454254,0.0538753867149353,0.09856468439102173,0.8193032741546631,-0.40846431255340576,-2.6793954372406006,-0.2758424825353937,-0.1441427614147117,0.3708941285037005
3.193784713745117,0.1727384477853775,0.06174832582473755,0.09139710664749146,0.9184000492095947,-0.3126179277896881,-2.7326865196228027,-0.26314726455916737,-0.1547508134736614,0.34446081516858384
3.2038848400115967,0.15357546508312225,0.08159597218036652,0.08457928895950317,0.9338691234588623,-0.2239883840084076,-2.7314083576202393,-0.2496483888697398,-0.1641219199750334,0.3180423399356323
3.214216709136963,0.14105461537837982,0.060297489166259766,0.06366950273513794,0.8337036371231079,-0.1060766652226448,-2.725738048553467,-0.23633004781827993,-0.1720517462337714,0.29184843368284935
3.224202871322632,0.11778484284877777,0.06079094111919403,0.06709712743759155,0.6343657374382019,0.0029219440184533596,-2.700577974319458,-0.22438201406345026,-0.17855880646285124,0.2656544749932133
3.2368359565734863,0.08086387813091278,0.01946583390235901,0.13886290788650513,0.58481764793396,0.14485591650009155,-2.650057077407837,-0.21363142353737483,-0.18345026548129004,0.23979265361690325
3.244264841079712,0.027483463287353516,-0.024378061294555664,0.2268911600112915,0.6107053756713867,0.31527718901634216,-2.633283853530884,-0.20293812560846708,-0.1863700137740015,0.2143719026597478
3.2541708946228027,-0.0012272298336029053,-0.00511324405670166,0.23945659399032593,0.6717023849487305,0.4080241620540619,-2.6147119998931885,-0.1918191643410974,-0.18761877854808134,0.18920510434355098
3.264171838760376,0.0005229264497756958,-0.01980292797088623,0.19000226259231567,0.8346834182739258,0.4678240120410919,-2.537343740463257,-0.1795957304421776,-0.1877310227240672,0.16484909787523896
3.273892879486084,0.008711591362953186,-0.04234227538108826,0.11352509260177612,0.9208062887191772,0.5439526438713074,-2.4783036708831787,-0.16619915487864725,-0.18668326130128762,0.14150409251944185
3.2839879989624023,0.017428234219551086,-0.02109423279762268,0.07199686765670776,0.851172924041748,0.573931872844696,-2.4399404525756836,-0.15291521339035843,-0.18463454368619006,0.11866866375238921
3.293968915939331,0.016651660203933716,-0.041215404868125916,0.10969996452331543,0.7140078544616699,0.5707736611366272,-2.379175901412964,-0.14077058583368554,-0.18223212258117358,0.09611681727595907
3.3039228916168213,-0.0073566734790802,-0.07067310810089111,0.16672742366790771,0.5472003817558289,0.6046721935272217,-2.3161139488220215,-0.13033759534862943,-0.17936678283822138,0.07393118870718504
3.3140318393707275,-0.040849968791007996,-0.05927889049053192,0.1972687840461731,0.3426955044269562,0.6643610596656799,-2.251154899597168,-0.12192832482088112,-0.17576850763614685,0.05203645816086632
3.3241477012634277,-0.04918745160102844,-0.03373775631189346,0.19429361820220947,0.19326336681842804,0.7091134786605835,-2.149277448654175,-0.11550701635401563,-0.17141547029466897,0.03062351797827973
3.334021806716919,-0.017805054783821106,-0.013646900653839111,0.1500212550163269,0.04448560252785683,0.7401776313781738,-2.0530707836151123,-0.11082811649096194,-0.16644357981314986,0.009970694227609704
3.3442087173461914,0.012329742312431335,-0.020337983965873718,0.12862128019332886,0.02354094199836254,0.723308265209198,-1.9132405519485474,-0.10730539416647632,-0.1611975444355808,-0.009726305485687628
3.354238986968994,0.021174371242523193,-0.023066624999046326,0.12757176160812378,0.0658378005027771,0.6712679862976074,-1.8124977350234985,-0.10400364696114636,-0.15617877387335022,-0.028144462608147586
3.3642098903656006,0.0075350552797317505,0.019091688096523285,0.12305706739425659,0.20223863422870636,0.6357477903366089,-1.7230451107025146,-0.10000202677269415,-0.1513987660459265,-0.045546815694893106
3.3751158714294434,-0.011210158467292786,0.03508206456899643,0.07903534173965454,0.2727745771408081,0.6097623109817505,-1.617303729057312,-0.09512738359794427,-0.14673049303914296,-0.06179120095955248
3.385890007019043,-0.01025921106338501,0.016178570687770844,0.05536854267120361,0.32564422488212585,0.5275511741638184,-1.5153052806854248,-0.08989962222264619,-0.14240621181675883,-0.07695911739762684
3.3942668437957764,-0.01290331780910492,-0.0574294775724411,0.06845784187316895,0.3028201460838318,0.44579052925109863,-1.4020969867706299,-0.08466081145206485,-0.13877888558693297,-0.09102174874564471
3.4041218757629395,-0.022581472992897034,-0.09756869077682495,0.0932236909866333,0.22907361388206482,0.3775855600833893,-1.297625184059143,-0.08021399911166828,-0.13572551521484308,-0.10409124544925755
3.4141407012939453,-0.04505859315395355,-0.11183859407901764,0.12848114967346191,0.1335204541683197,0.3363555669784546,-1.1915967464447021,-0.07668128943766216,-0.13313854860110047,-0.11624191697514479
3.4242067337036133,-0.05437763035297394,-0.11157561093568802,0.1035723090171814,-0.003700415836647153,0.2970890402793884,-1.0585241317749023,-0.07456594137931209,-0.13079046663411661,-0.12736490294448455
3.436267852783203,-0.0468403697013855,-0.09587068110704422,0.06895649433135986,-0.12667427957057953,0.2368730902671814,-0.9185188412666321,-0.07393495522057388,-0.128854892616488,-0.13729340440160287
3.4441258907318115,-0.04915080964565277,-0.11897122859954834,0.05441927909851074,-0.17947140336036682,0.17319585382938385,-0.7716464996337891,-0.07446922707931708,-0.12743426658475832,-0.14592714677229193
3.454274892807007,-0.0726369172334671,-0.14421877264976501,0.05447894334793091,-0.18910299241542816,0.14653946459293365,-0.6381773948669434,-0.07541215582089544,-0.12640691031313958,-0.15317630245927455
3.46427583694458,-0.09608284384012222,-0.14694799482822418,0.05146890878677368,-0.17036113142967224,0.1378917396068573,-0.510478138923645,-0.07649655951884447,-0.1254216244695496,-0.15911418232187766
3.474287986755371,-0.10003165900707245,-0.1436389833688736,0.06705135107040405,-0.15564024448394775,0.11834441125392914,-0.3990725576877594,-0.077539393697032,-0.12450951419272563,-0.1638440488061726
3.4857640266418457,-0.0860501304268837,-0.12689051032066345,0.05823707580566406,-0.1668955236673355,0.08987601846456528,-0.2641695439815521,-0.07872361250364657,-0.12372356361260804,-0.16735461262079032
3.494433879852295,-0.06347279995679855,-0.10532549768686295,0.039645612239837646,-0.1913665235042572,0.054472487419843674,-0.12795764207839966,-0.08023465853702914,-0.12317747537701683,-0.16953242824817302
3.504323959350586,-0.056125566363334656,-0.1106962114572525,0.02041947841644287,-0.21787655353546143,0.02126428857445717,0.0209168903529644,-0.08222448776589314,-0.12286597717882848,-0.1703237135512389
3.514338970184326,-0.05685926228761673,-0.12826333940029144,-0.002147078514099121,-0.2975524663925171,-0.0004854821600019932,0.1618518978357315,-0.08486245938911088,-0.12269137103268805,-0.16970111048497485
3.5243477821350098,-0.04902513325214386,-0.1520131528377533,-0.01771092414855957,-0.33933311700820923,-0.06492558866739273,0.28175729513168335,-0.0883770326438633,-0.12284349749040509,-0.1678795850534124
3.5357937812805176,-0.04259958863258362,-0.169108584523201,-0.009416759014129639,-0.3314475119113922,-0.12600599229335785,0.38473689556121826,-0.09209036714189166,-0.12355055576697117,-0.16493245544692867
3.544386863708496,-0.04837452620267868,-0.15242819488048553,0.010109663009643555,-0.33733054995536804,-0.16480456292629242,0.4521154463291168,-0.09590410476024366,-0.12466937222297711,-0.1611672692211531
3.5543758869171143,-0.06395085155963898,-0.1470247060060501,0.0075187087059021,-0.47293898463249207,-0.1841984987258911,0.5221619009971619,-0.10047135112193373,-0.1259807582022584,-0.15679818768340037
3.564483880996704,-0.07061989605426788,-0.1620745211839676,-0.0009219646453857422,-0.6355080008506775,-0.20992925763130188,0.5639675855636597,-0.10670449754416961,-0.12746966372966362,-0.15207349603069087
3.5744218826293945,-0.07398580014705658,-0.18946152925491333,-0.002767324447631836,-0.6948416829109192,-0.22853809595108032,0.6096059083938599,-0.1141017662606325,-0.12914526940414078,-0.1470863235016615
3.5863258838653564,-0.07222631573677063,-0.17317146062850952,-0.03557896614074707,-0.744167149066925,-0.2076222449541092,0.6282612681388855,-0.12208300475516781,-0.13071499350203622,-0.1418088800588514
3.594514846801758,-0.06962157785892487,-0.1307131052017212,-0.06531631946563721,-0.7232951521873474,-0.18951061367988586,0.6203820705413818,-0.13024188079323712,-0.13202627136221168,-0.13652056043616823
3.6045169830322266,-0.06937640905380249,-0.12592916190624237,-0.08395522832870483,-0.6653952598571777,-0.16911648213863373,0.5598374009132385,-0.13793239393534296,-0.13315981312561703,-0.13149364078882095
3.6145529747009277,-0.0666908472776413,-0.11339953541755676,-0.10073310136795044,-0.5765005350112915,-0.15469440817832947,0.46187564730644226,-0.14480422490625322,-0.13416221777760487,-0.12721536213067966
3.6244328022003174,-0.06303417682647705,-0.11028045415878296,-0.11206495761871338,-0.48706838488578796,-0.15024492144584656,0.35293781757354736,-0.15062919214504497,-0.13519262312104988,-0.12384327700489743
3.6379098892211914,-0.05767619609832764,-0.11103284358978271,-0.11400234699249268,-0.34657973051071167,-0.12504610419273376,0.23367533087730408,-0.15515756201687977,-0.13624062047890634,-0.12146256012081891
3.645333766937256,-0.056875959038734436,-0.10351608693599701,-0.13505911827087402,-0.22842492163181305,-0.05929797142744064,0.12352928519248962,-0.1582839816173253,-0.13695477157930752,-0.12009839607735731
3.657474994659424,-0.050474971532821655,-0.08378179371356964,-0.1580883264541626,-0.09827917069196701,-0.002207526471465826,0.04902708902955055,-0.1599946440329248,-0.1371407759091046,-0.11947334300117828
3.6644840240478516,-0.02371557056903839,-0.07887209951877594,-0.16582536697387695,-0.012298648245632648,0.030284369364380836,0.0005960660055279732,-0.1605393241483048,-0.13696105156961172,-0.1193053326404214
3.6744956970214844,-0.002228081226348877,-0.07960663735866547,-0.15448111295700073,0.011221591383218765,0.0649118572473526,-0.03669857606291771,-0.1604796325328943,-0.1365260227327262,-0.11949103391538927
3.6863818168640137,0.0031335055828094482,-0.10124710202217102,-0.14009535312652588,-0.02438795007765293,0.10370661318302155,-0.06287563592195511,-0.16046772727860695,-0.13576715285685245,-0.12000124991023006
3.6945409774780273,0.003576621413230896,-0.11697840690612793,-0.11963081359863281,-0.08172128349542618,0.13757456839084625,-0.09703760594129562,-0.16085365185272182,-0.13471546399886403,-0.12087077574900708
3.7046327590942383,0.0005333274602890015,-0.12802068889141083,-0.09912645816802979,-0.21044045686721802,0.18133798241615295,-0.13046501576900482,-0.16211620331506227,-0.13333223946881428,-0.12220764625909036
3.7148828506469727,-0.0019830018281936646,-0.13580472767353058,-0.07751381397247314,-0.35946109890937805,0.2158200591802597,-0.15134526789188385,-0.1647782695896096,-0.1316291919406025,-0.12402541259403839
3.7249879837036133,-0.0008989423513412476,-0.14536647498607635,-0.05852741003036499,-0.48506540060043335,0.2404152750968933,-0.156785786151886,-0.16878031309357483,-0.12967396191177646,-0.1261322490370484
3.7356488704681396,0.014288708567619324,-0.13329750299453735,-0.03723722696304321,-0.5793719291687012,0.24068959057331085,-0.16238267719745636,-0.1738757962903673,-0.12765408574419376,-0.12844515742696455
3.7446937561035156,0.023497551679611206,-0.11812669038772583,-0.004639089107513428,-0.641961395740509,0.2363613247871399,-0.16141179203987122,-0.17979336856712455,-0.12568727414259193,-0.13086872934950303
3.754714012145996,0.01482461392879486,-0.11588986217975616,0.024548351764678955,-0.6523727774620056,0.2453867793083191,-0.15384042263031006,-0.1860377985857431,-0.12373032789359856,-0.1332943669031513
3.764634847640991,-0.0019093155860900879,-0.10353444516658783,0.030151963233947754,-0.6306769251823425,0.2609631419181824,-0.13839703798294067,-0.19228753227184045,-0.12161315507813156,-0.13558484640892143
3.774625778198242,-0.017710141837596893,-0.08622393012046814,0.02606213092803955,-0.5423870086669922,0.27777114510536194,-0.10722765326499939,-0.19798866690560743,-0.11929722991430693,-0.13755473975685747
3.786559820175171,-0.0286867618560791,-0.07314936816692352,0.013696730136871338,-0.41575947403907776,0.2930678129196167,-0.06825714558362961,-0.2026775640619583,-0.11673893363887208,-0.1390226391513409
3.794675827026367,-0.03445831686258316,-0.05110397934913635,-0.001143038272857666,-0.27348726987838745,0.3093104064464569,-0.03390662372112274,-0.20604712466395125,-0.11389814796464527,-0.13993650541107142
3.8046507835388184,-0.04063443839550018,-0.03707270324230194,-0.014835238456726074,-0.15450914204120636,0.312453031539917,-0.0037367376498878,-0.2081434106252486,-0.11087621524866348,-0.14037246278504456
3.8147099018096924,-0.044725097715854645,-0.043989747762680054,-0.01102304458618164,-0.054810523986816406,0.3154626786708832,0.0264616459608078,-0.20919334144799037,-0.10772973668875631,-0.1403628979650009
3.82486891746521,-0.05251418799161911,-0.055082350969314575,-0.0027070045471191406,0.010051548480987549,0.3277876377105713,0.04928078129887581,-0.20944238038855026,-0.10443369771228435,-0.13998649383167547
3.8364768028259277,-0.060973674058914185,-0.061535656452178955,0.012794554233551025,0.06847731024026871,0.3283708691596985,0.06504882872104645,-0.2091136071233842,-0.10101726064680362,-0.13937182237254078
3.8450417518615723,-0.06631609052419662,-0.06932422518730164,0.03235006332397461,0.1010114997625351,0.3241116404533386,0.08029978722333908,-0.2083248834917162,-0.0975660143966254,-0.13854837669484033
3.8551859855651855,-0.06212624907493591,-0.06199657917022705,0.0419083833694458,0.1146431565284729,0.3143429160118103,0.09672829508781433,-0.20732335458333676,-0.09415529218389691,-0.13754218724263292
3.864863872528076,-0.05443824827671051,-0.04853999614715576,0.03506261110305786,0.10548500716686249,0.3022399842739105,0.12213267385959625,-0.20631162465436056,-0.09081360751039154,-0.13633269154977012
3.874802827835083,-0.04491667449474335,-0.03801654279232025,0.018203377723693848,0.08329901099205017,0.2724655866622925,0.15241679549217224,-0.20549068382539687,-0.0876370103182593,-0.13484072020555243
3.887488842010498,-0.03547713905572891,-0.030167654156684875,0.0016538500785827637,0.07117018103599548,0.2464005947113037,0.17611035704612732,-0.2048768367560215,-0.08469478339932321,-0.13310242078655896
3.894892692565918,-0.029255591332912445,-0.018109768629074097,-0.018816232681274414,0.07852157205343246,0.22634699940681458,0.19881540536880493,-0.20429672083423087,-0.08192829982563848,-0.13112721520526163
3.904810905456543,-0.02409275621175766,-0.0018358975648880005,-0.037988245487213135,0.09216907620429993,0.19955897331237793,0.21037901937961578,-0.20360296758576343,-0.07934283690278413,-0.1289576955475777
3.914794921875,-0.017087765038013458,0.009027242660522461,-0.043877601623535156,0.10207017511129379,0.1690727025270462,0.21952591836452484,-0.20280956874165762,-0.07703407677034398,-0.12668850651514726
3.9247848987579346,-0.010694608092308044,0.014931634068489075,-0.04133117198944092,0.1110801175236702,0.13928177952766418,0.22490805387496948,-0.20189132897167614,-0.07501987719715617,-0.1243386177411893
3.935931921005249,-0.008576743304729462,0.020855456590652466,-0.03573578596115112,0.09578531235456467,0.11195695400238037,0.2236901968717575,-0.2010157066544831,-0.0732855656516589,-0.12197677130163409
3.945004940032959,-0.006813831627368927,0.01898014545440674,-0.02429652214050293,0.05972304567694664,0.07720287144184113,0.21878187358379364,-0.20039130680696532,-0.07187955632493478,-0.11966874445212196
3.955732822418213,-0.004033192992210388,0.007362768054008484,-0.011664927005767822,0.015035737305879593,0.046818606555461884,0.2126970738172531,-0.20016329797910926,-0.07081839613764265,-0.11744362528178288
3.9649147987365723,-0.0009170770645141602,0.0053992122411727905,-0.0010083317756652832,-0.033969320356845856,0.02766781486570835,0.20705923438072205,-0.20040749210319614,-0.07002925934783777,-0.11531425323968651
3.975085735321045,-0.0027002841234207153,0.0024661272764205933,0.007064163684844971,-0.07200272381305695,0.016325943171977997,0.20402376353740692,-0.2010805120613993,-0.06940094290515689,-0.11325703181855559
3.986711025238037,-0.004616357386112213,-0.004311293363571167,0.010486960411071777,-0.09724198281764984,0.011768254451453686,0.20340286195278168,-0.2020798472582736,-0.06885975655081551,-0.11122964779971227
3.994879722595215,-0.004430554807186127,-0.007972583174705505,0.01687079668045044,-0.10021806508302689,0.016112668439745903,0.20296743512153625,-0.20321618192978702,-0.06833206586554422,-0.10922353985082843
4.004889965057373,-0.005918033421039581,-0.008983179926872253,0.017463862895965576,-0.09814845770597458,0.02948404662311077,0.203826904296875,-0.2043416085494714,-0.06770004225513365,-0.10721970293939408
4.014912843704224,-0.00422852486371994,-0.007652029395103455,0.018886089324951172,-0.08192634582519531,0.040702611207962036,0.19472980499267578,-0.20539766526194367,-0.06694514143270597,-0.10524818201051223
4.024948835372925,-0.00396931916475296,-0.010577306151390076,0.02074533700942993,-0.051634471863508224,0.0495218001306057,0.1921434998512268,-0.20620371646508,-0.06609692524414541,-0.10330993907915141
4.037799835205078,-0.00020116567611694336,-0.004399120807647705,0.017270147800445557,-0.016362763941287994,0.060593362897634506,0.19246919453144073,-0.206657477234514,-0.06530559328711028,-0.10139976510286834
4.045074939727783,0.003312714397907257,0.007552385330200195,0.013942062854766846,0.005396310240030289,0.06948774307966232,0.18653903901576996,-0.2068094221269763,-0.06435909026851849,-0.09949061176861365
4.054996967315674,0.005617193877696991,0.005749449133872986,0.016814351081848145,0.0003296458162367344,0.07194451242685318,0.18089766800403595,-0.20685865027809358,-0.06340715978723213,-0.09764179949467927
4.06498384475708,0.006192997097969055,-0.0014335662126541138,0.025125443935394287,-0.021626487374305725,0.07368248701095581,0.17621934413909912,-0.20693266083776451,-0.06249792749804073,-0.09586558406327285
4.075070858001709,0.004180196672677994,-0.00349484384059906,0.03354829549789429,-0.05190396308898926,0.08280408382415771,0.16616137325763702,-0.20719908853811697,-0.06159672343493369,-0.09418204656914671
4.0865638256073,0.0021024085581302643,-0.0036987364292144775,0.037612855434417725,-0.08251994848251343,0.09413277357816696,0.1599978655576706,-0.20773491625002896,-0.060679253126546116,-0.09261567170067846
4.095005989074707,0.003279898315668106,-0.005403995513916016,0.035886943340301514,-0.11996106803417206,0.10425997525453568,0.1525053232908249,-0.208729199888212,-0.05955396656567517,-0.091118634884919
4.105072975158691,0.003084443509578705,-0.006276771426200867,0.03444546461105347,-0.15313993394374847,0.11911650002002716,0.14308077096939087,-0.21007388252365713,-0.05827679619337974,-0.08972167185353232
4.115027904510498,0.0011195950210094452,-0.004437059164047241,0.03243023157119751,-0.1520403027534485,0.13526031374931335,0.131020650267601,-0.21164105300634176,-0.056814861968153725,-0.08842057895237643
4.125205039978027,-0.0010390765964984894,-0.002359256148338318,0.026948988437652588,-0.1249358281493187,0.14959366619586945,0.11688805371522903,-0.21316814643485513,-0.055184388161181805,-0.08724283769483736
4.138715744018555,0.0004883967339992523,0.005279958248138428,0.022021710872650146,-0.08708325773477554,0.15539829432964325,0.09845978021621704,-0.21431352659204653,-0.05346380935516462,-0.0861992066783426
4.145924806594849,0.003373377025127411,0.013324826955795288,0.019580483436584473,-0.05128326267004013,0.15469197928905487,0.08627346903085709,-0.21501273929482348,-0.05175265988730729,-0.08529990394289996
4.155110836029053,0.0017154179513454437,0.013848915696144104,0.017732203006744385,-0.03228933364152908,0.15892720222473145,0.07579153776168823,-0.2154134130019723,-0.05007344516081523,-0.08449287371622623
4.165344715118408,-0.001983892172574997,0.010215580463409424,0.013108491897583008,-0.03174173831939697,0.16654495894908905,0.07281241565942764,-0.21572760384230005,-0.04836530463985026,-0.08376836612458854
4.175184726715088,-0.0037205666303634644,0.0036381781101226807,0.012789249420166016,-0.04592812806367874,0.17134717106819153,0.07444573193788528,-0.21610341416443046,-0.04660489610491892,-0.08304906302488356
4.1857008934021,-0.004165370017290115,-0.0015992224216461182,0.010701477527618408,-0.05573832988739014,0.1754039227962494,0.07282232493162155,-0.2166070581331422,-0.04480907809297467,-0.08234148353824411
4.195127010345459,-0.007303912192583084,-0.006522327661514282,0.008404135704040527,-0.04912277311086655,0.176420196890831,0.07003027200698853,-0.21714833247455587,-0.043004980201309884,-0.08165403307536212
4.204941749572754,-0.009932287037372589,-0.006642818450927734,0.004113435745239258,-0.044518567621707916,0.1792101114988327,0.06876078993082047,-0.21764674456046992,-0.041207002746953096,-0.08100011038461662
4.215036869049072,-0.008078757673501968,-0.0018232762813568115,0.000931859016418457,-0.03292529657483101,0.17288243770599365,0.06772029399871826,-0.21814916304584198,-0.03942016945756306,-0.08033459196832893
4.225056886672974,-0.009888935834169388,-0.005667939782142639,0.0011435747146606445,-0.025887444615364075,0.16086426377296448,0.06739538908004761,-0.2186643690141361,-0.03772538593802875,-0.07967680832658253
4.238681793212891,-0.007338002324104309,-0.004438340663909912,0.001322031021118164,-0.0355435311794281,0.14291483163833618,0.07028838247060776,-0.2192180100281389,-0.03621538758337272,-0.07901961928397716
4.245347023010254,-0.0041214823722839355,-0.0008110404014587402,-4.780292510986328e-05,-0.06035918369889259,0.12425702810287476,0.07044806331396103,-0.2198946708081839,-0.034950435585750235,-0.07836549439866321
4.272759914398193,-0.0037037283182144165,-0.004429444670677185,-0.002056598663330078,-0.08692155033349991,0.10458052903413773,0.07873688638210297,-0.22072556104806743,-0.033930131112357625,-0.07768750643351031
4.27992582321167,-0.003413919359445572,-0.01169876754283905,-5.125999450683594e-06,-0.10683514177799225,0.09094735980033875,0.08511750400066376,-0.22165460303643789,-0.03309199814609694,-0.07694476318123238
4.283927917480469,-0.004204243421554565,-0.012853622436523438,0.0012575984001159668,-0.12172940373420715,0.07906567305326462,0.0899687185883522,-0.22260388659810162,-0.03239791422823449,-0.07616860794132921
4.289238929748535,-0.0024483390152454376,-0.011247798800468445,0.0023139119148254395,-0.12774990499019623,0.0638979896903038,0.09398375451564789,-0.22363282922376848,-0.031843021892549964,-0.07535002883122423
4.295163869857788,-0.0004528127610683441,-0.009612232446670532,0.0012602806091308594,-0.1336570680141449,0.05404189974069595,0.10119585692882538,-0.2248036700092453,-0.031346928807373456,-0.07445133372960747
4.3051838874816895,-0.0002521499991416931,-0.00710807740688324,-0.004049241542816162,-0.13216669857501984,0.04523562639951706,0.10170888900756836,-0.22588207854084405,-0.030934104702010305,-0.07350961431255627
4.315124034881592,-0.00030455179512500763,-0.008560076355934143,0.001010298728942871,-0.1334117203950882,0.028909645974636078,0.1083737164735794,-0.22698065737153633,-0.030559108521462496,-0.07253326543257244
4.325207710266113,0.0005773212760686874,-0.009566470980644226,0.0075955986976623535,-0.12917961180210114,0.02493705414235592,0.11144481599330902,-0.22813897019832496,-0.030203634262930917,-0.07148166170357044
4.336683750152588,-0.0025725755840539932,-0.007213398814201355,0.008769571781158447,-0.12032060325145721,0.03016696870326996,0.11632585525512695,-0.2291383353912345,-0.029796333877656855,-0.07037831770223485
4.345440864562988,-0.0021651405841112137,-0.0067246705293655396,0.007066488265991211,-0.10294901579618454,0.02992306835949421,0.1197870597243309,-0.22984301003026328,-0.0293262314397968,-0.06922221884792823
4.355486869812012,0.0003464091569185257,-0.006122991442680359,0.005548536777496338,-0.09158584475517273,0.028347276151180267,0.12283238768577576,-0.23040043024428372,-0.028869037258120803,-0.0680302878321933
4.36561393737793,0.003933161497116089,-0.002230420708656311,0.0038909316062927246,-0.07859443128108978,0.024621913209557533,0.12450017035007477,-0.23090035852947755,-0.028402947424421763,-0.06680179796121687
4.375682830810547,0.0059531088918447495,-0.003076106309890747,0.006570577621459961,-0.06521551311016083,0.021557413041591644,0.11990967392921448,-0.23131457038295683,-0.027941193937866385,-0.06557598726474871
4.38846492767334,0.005627606064081192,-0.0029352158308029175,0.01006317138671875,-0.05267219990491867,0.020667430013418198,0.11775939166545868,-0.23164009967125912,-0.027498985023006347,-0.06437961954400956
4.395806789398193,0.00506352074444294,-0.0025286823511123657,0.011942446231842041,-0.046028412878513336,0.026131702587008476,0.10973981022834778,-0.2318809042166905,-0.02704621421758946,-0.06322646573189593
4.40564489364624,0.004857845604419708,-0.00556086003780365,0.013622105121612549,-0.04741453751921654,0.0240334440022707,0.10396996885538101,-0.2321273160733811,-0.026585404085635034,-0.06214762182778983
4.415503025054932,0.004309222102165222,-0.008090078830718994,0.017920851707458496,-0.04412606731057167,0.02512027882039547,0.09529951214790344,-0.2324527539086389,-0.026211703836634934,-0.06115417651683137
4.4255146980285645,0.0029718074947595596,-0.010107874870300293,0.02272820472717285,-0.030794717371463776,0.03179442510008812,0.08831286430358887,-0.23269170457821436,-0.025810842450685198,-0.060249403240871496
4.436509847640991,0.0029629040509462357,-0.011560216546058655,0.01628696918487549,-0.01752285473048687,0.037005431950092316,0.07902669161558151,-0.23281998649260882,-0.025316173013224034,-0.05941679339539862
4.445468902587891,0.005706433206796646,-0.00784716010093689,0.012525856494903564,0.0014264853671193123,0.03751671686768532,0.07154268026351929,-0.23284604420032134,-0.024748463952929657,-0.05865194992285322
4.455574035644531,0.008695842698216438,-0.0058412104845047,0.011086642742156982,0.012495914474129677,0.03910555690526962,0.06498491019010544,-0.23272902469532852,-0.0241660334636709,-0.05794493752721126
4.465497970581055,0.009084511548280716,-0.0037151873111724854,0.011149287223815918,0.010696899145841599,0.04442659765481949,0.06108071655035019,-0.23258270625260602,-0.02357655193221228,-0.05729233063908589
4.476114749908447,0.00814785435795784,-0.00535622239112854,0.013399958610534668,-0.0034751123748719692,0.049100711941719055,0.054251305758953094,-0.23254423693467055,-0.022958578282466197,-0.0566986038566877
4.4862589836120605,0.007956968620419502,-0.010653719305992126,0.015955090522766113,-0.023488882929086685,0.049977824091911316,0.04921137914061546,-0.2326410898706884,-0.022323700948267276,-0.05616522220472637
4.49557089805603,0.010383984073996544,-0.011797487735748291,0.015910744667053223,-0.03513568639755249,0.05312354862689972,0.04075158014893532,-0.2328913318884513,-0.02169847644230335,-0.05570238820032623
4.505519866943359,0.011862233281135559,-0.010227277874946594,0.011700630187988281,-0.040679022669792175,0.057736147195100784,0.039491161704063416,-0.2332064703873983,-0.02107071858483919,-0.05529875660666249
4.515499830245972,0.012275831773877144,-0.007429182529449463,0.005454957485198975,-0.032970771193504333,0.05794414132833481,0.03758353739976883,-0.23348286971642696,-0.020414869672563316,-0.05490560757389561
4.525529861450195,0.011914080008864403,-0.00607028603553772,0.005821108818054199,-0.0192925576120615,0.05209650471806526,0.03870158642530441,-0.23367019226886618,-0.01976146166073798,-0.05451595599976432
4.536125898361206,0.013369379565119743,-0.006903156638145447,0.00902026891708374,-0.007656408473849297,0.04245106503367424,0.040821995586156845,-0.23374208944511493,-0.019155835435904597,-0.05410053617620311
4.545575857162476,0.014132697135210037,-0.003565073013305664,0.011227428913116455,-0.010711170732975006,0.03877958655357361,0.04295811802148819,-0.2338085375983693,-0.018607431977711968,-0.05365614869229891
4.555801868438721,0.01205514371395111,-0.0040042102336883545,0.010805010795593262,-0.027027027681469917,0.040748193860054016,0.05386349558830261,-0.2339619418236764,-0.01805658140991771,-0.05315510248576047
4.565598964691162,0.010214921087026596,-0.00906883180141449,0.011226654052734375,-0.04635278508067131,0.0405881404876709,0.06463651359081268,-0.23422727566276696,-0.017467785019633864,-0.05254795156333069
4.575624942779541,0.01056436263024807,-0.012505054473876953,0.014064311981201172,-0.06359302997589111,0.042501889169216156,0.07517197728157043,-0.2346696145761677,-0.016824738645274666,-0.05181799516538142
4.58617091178894,0.01052650436758995,-0.012521371245384216,0.01835036277770996,-0.07324367761611938,0.04948669299483299,0.08618926256895065,-0.23525122592339415,-0.016097651519366676,-0.05098190970186812
4.595701694488525,0.008468318730592728,-0.010049179196357727,0.022157251834869385,-0.0661117285490036,0.057859670370817184,0.09984968602657318,-0.23586295258136544,-0.015254267215987076,-0.0500114297386237
4.605747699737549,0.009646282531321049,-0.009258419275283813,0.022899746894836426,-0.054576195776462555,0.06397140771150589,0.11186069995164871,-0.23639933202919933,-0.014317540120590774,-0.04891053682462665
4.615595817565918,0.010183433070778847,-0.0021917521953582764,0.021425962448120117,-0.04582797735929489,0.06802260875701904,0.11873431503772736,-0.23682121294792885,-0.013301783419315509,-0.047714833676487135
4.625800848007202,0.009986454620957375,0.0013867616653442383,0.021185100078582764,-0.04886902496218681,0.06625431030988693,0.1221240982413292,-0.2372525841919805,-0.01225270357499636,-0.04645989452221279
4.638149738311768,0.010862761177122593,0.0019263923168182373,0.026172399520874023,-0.06532896310091019,0.06401938945055008,0.12571057677268982,-0.23776492053692586,-0.011256067313904064,-0.04516873160157694
4.645777702331543,0.007551041431725025,0.001873299479484558,0.032171428203582764,-0.10269014537334442,0.0663415715098381,0.13573071360588074,-0.2385104183343147,-0.010268160782882249,-0.04382426410193294
4.655930995941162,0.0033985916525125504,-0.0001459866762161255,0.036658287048339844,-0.1471196562051773,0.07900330424308777,0.1398700624704361,-0.23964650826281506,-0.009169291835243992,-0.04239840463904475
4.665995836257935,-0.0018680631183087826,-0.006920278072357178,0.03941488265991211,-0.19196908175945282,0.08922424912452698,0.14317089319229126,-0.2412483988101553,-0.00796044631577234,-0.04095206077806845
4.6770288944244385,-0.002224310766905546,-0.008636638522148132,0.044436872005462646,-0.23454929888248444,0.10224231332540512,0.1459198147058487,-0.2433150216122975,-0.006638382225727048,-0.03946727805167444
4.687919855117798,-0.004885856993496418,-0.009590372443199158,0.050277113914489746,-0.27920547127723694,0.1167549416422844,0.14572885632514954,-0.24582351539161695,-0.005172742704935798,-0.03798152955467436
4.695766925811768,-0.008416421711444855,-0.012355029582977295,0.05990457534790039,-0.3081716001033783,0.13777793943881989,0.1462942510843277,-0.24878508938131622,-0.0035175604972800495,-0.036481628261453
4.705887794494629,-0.01151321828365326,-0.015266016125679016,0.06346464157104492,-0.28668731451034546,0.16872231662273407,0.15311743319034576,-0.2517424052391502,-0.0016145672874491627,-0.03494401813822143
4.715826988220215,-0.008372120559215546,-0.0023504793643951416,0.027068376541137695,-0.2433752417564392,0.20005866885185242,0.15781204402446747,-0.25438340094117795,0.0006569462469440492,-0.033318639935408824
4.725846767425537,0.0018412985373288393,0.018109053373336792,0.002276778221130371,-0.16118338704109192,0.19336432218551636,0.1451459527015686,-0.2564046043652254,0.0030337776246898915,-0.03175459163504165
4.736450910568237,0.007827738299965858,0.01522892713546753,0.008038699626922607,-0.06384964287281036,0.18488135933876038,0.13910004496574402,-0.2574734994670266,0.005254307353293785,-0.030281052179689055
4.745959758758545,0.004601714201271534,0.017950505018234253,0.009049534797668457,-0.0031004557386040688,0.20375344157218933,0.13315054774284363,-0.257704474396163,0.00748627556947609,-0.028887661841940394
4.7559778690338135,-0.0011675870046019554,0.021739095449447632,0.009817302227020264,0.003455447731539607,0.22310397028923035,0.13293376564979553,-0.2576052348528421,0.009917739967416447,-0.027540825359850838
4.765913009643555,-0.003046078607439995,0.0077385008335113525,0.01952970027923584,-0.027276914566755295,0.2348846048116684,0.13513417541980743,-0.25764540121158797,0.012476027484982487,-0.026169180526031177
4.775981903076172,-0.0015602493658661842,-0.007767230272293091,0.029375731945037842,-0.0723639652132988,0.24017497897148132,0.12950851023197174,-0.2580901497449707,0.015107322497129016,-0.02481089867176876
4.786407947540283,0.001752970740199089,-0.012497007846832275,0.034628868103027344,-0.12089324742555618,0.24070636928081512,0.12424573302268982,-0.2590366962530438,0.017856017163108112,-0.023484930035043896
4.795897006988525,0.00478689931333065,-0.010090649127960205,0.03937208652496338,-0.17930862307548523,0.24554799497127533,0.12292134016752243,-0.2605096720083033,0.020613915682065994,-0.02218203159127838
4.805941820144653,0.003787444904446602,-0.012702018022537231,0.04914337396621704,-0.24170655012130737,0.2565534710884094,0.1300392746925354,-0.26261274405845975,0.02347821994316671,-0.020837745117592902
4.815933704376221,-0.003722233697772026,-0.026927798986434937,0.05580812692642212,-0.28481432795524597,0.2791104316711426,0.13650943338871002,-0.2652097255791764,0.026533927334457946,-0.01938074359994808
4.82625675201416,-0.0043683238327503204,-0.03318902850151062,0.05569249391555786,-0.3417794406414032,0.30282101035118103,0.14568156003952026,-0.268315401780728,0.029870625126431165,-0.01782193390621888
4.836601734161377,-0.001656796783208847,-0.032567620277404785,0.06306648254394531,-0.4072396755218506,0.3205283582210541,0.15973000228405,-0.2720088714917813,0.033456125371740475,-0.016114326332152238
4.846059799194336,-0.0013536885380744934,-0.04345989227294922,0.0784921646118164,-0.4779309034347534,0.3434118330478668,0.175772026181221,-0.2763811400132039,0.03727668797900041,-0.014215451354255348
4.856129884719849,-0.007317151874303818,-0.056057125329971313,0.09882974624633789,-0.5536208748817444,0.3794063329696655,0.19426769018173218,-0.28146934484543934,0.04147713835506808,-0.012092845536203066
4.8661627769470215,-0.014756709337234497,-0.07022655010223389,0.12274909019470215,-0.6577943563461304,0.4243357479572296,0.22530172765254974,-0.28742471231577593,0.0461930836775839,-0.009630305970201541
4.876134872436523,-0.0221177339553833,-0.08914631605148315,0.15053439140319824,-0.7906107306480408,0.47785863280296326,0.2505442202091217,-0.29454349873322005,0.05153470460990108,-0.006792919232354428
4.887945890426636,-0.026133943349123,-0.10923165082931519,0.17651450634002686,-0.9428848028182983,0.5342217683792114,0.29588449001312256,-0.30304256480289576,0.05758134387522619,-0.003455586859181022
4.896158695220947,-0.029847532510757446,-0.12546592950820923,0.20657622814178467,-1.1088995933532715,0.6098006367683411,0.3453921377658844,-0.31309743380663374,0.06452088794914959,0.0005497440005785017
4.906087875366211,-0.03916329890489578,-0.15195289254188538,0.23522353172302246,-1.2631666660308838,0.7039526104927063,0.4090214967727661,-0.32471299364213435,0.0726045713491351,0.005372578740952681
4.916025876998901,-0.04689778387546539,-0.17243969440460205,0.259393572807312,-1.3917094469070435,0.8025782704353333,0.48978477716445923,-0.337647740321709,0.08204295884847948,0.011200670317790566
4.926214694976807,-0.05089886486530304,-0.18543139100074768,0.28750884532928467,-1.482499599456787,0.9136562347412109,0.5614278316497803,-0.3515483350757531,0.09296498741557527,0.018109088530002666
4.937250852584839,-0.05370345711708069,-0.20478439331054688,0.30876654386520386,-1.5310826301574707,1.0225363969802856,0.6537215113639832,-0.36599220896646173,0.10548928675151607,0.026162689582420073
4.946182727813721,-0.05307769775390625,-0.21516945958137512,0.3206438422203064,-1.5118008852005005,1.1422404050827026,0.753898561000824,-0.3803896544247118,0.11974885901512476,0.03553771453601941
4.956334829330444,-0.04914788901805878,-0.21771559119224548,0.30504345893859863,-1.4477983713150024,1.2844103574752808,0.860367476940155,-0.39404842805781576,0.13592434576284418,0.04622414878966774
4.966049909591675,-0.039175599813461304,-0.1964729130268097,0.2735556960105896,-1.3145338296890259,1.3994075059890747,0.9738224148750305,-0.4065552076882442,0.15410285459708745,0.05829196031720397
4.9760847091674805,-0.017523333430290222,-0.17641425132751465,0.23745936155319214,-1.0031120777130127,1.5064470767974854,1.0519764423370361,-0.4163850476187463,0.1738308149183886,0.07128390149767372
4.986722946166992,0.007543832063674927,-0.12455093860626221,0.12772470712661743,-0.7462271451950073,1.608459234237671,1.1038693189620972,-0.42296975425085354,0.1949488809445949,0.08467920640466844
4.996255874633789,0.04986894130706787,-0.03710225224494934,0.06338566541671753,-0.48848506808280945,1.590890884399414,1.122876763343811,-0.42672055507401374,0.21653809561390305,0.09803889560184892
5.006141901016235,0.08643192052841187,-0.02733910083770752,0.06674742698669434,-0.31715846061706543,1.529747486114502,1.1368931531906128,-0.4280479146130875,0.23758337756783554,0.11113448147320024
5.016152858734131,0.08593630790710449,-0.018526941537857056,0.08672124147415161,-0.1697615385055542,1.5155253410339355,1.1430015563964844,-0.42762000479386525,0.25811115937870904,0.12395489008096754
5.026382923126221,0.06427529454231262,0.006452292203903198,0.05656170845031738,-0.11560909450054169,1.5747318267822266,1.1611320972442627,-0.4258426100826994,0.27877812847158473,0.13655306139761245
5.037016868591309,0.061349958181381226,0.05018562078475952,-0.011071562767028809,-0.1766412854194641,1.5986597537994385,1.1589889526367188,-0.4238980818185975,0.2999526000960997,0.14923374078308824
5.046267032623291,0.08085465431213379,0.06127196550369263,-0.031223416328430176,-0.20668229460716248,1.5363407135009766,1.1549047231674194,-0.4222655358191691,0.3209072178095369,0.16198700771428112
5.0564658641815186,0.09881487488746643,0.04123678803443909,-0.059842050075531006,-0.20789216458797455,1.503845453262329,1.1314891576766968,-0.4204935313739537,0.34125077857945574,0.17459461378946564
5.066329002380371,0.09912976622581482,0.08583495020866394,-0.11585736274719238,-0.16049200296401978,1.4926785230636597,1.0792813301086426,-0.41845881099503646,0.36120977760357903,0.1867067399818309
5.076459884643555,0.09834370017051697,0.12342718243598938,-0.12630623579025269,-0.07680296897888184,1.417077660560608,1.0134762525558472,-0.4157442907925708,0.38032340606366644,0.19784739321872347
5.087493896484375,0.1089930534362793,0.1361294686794281,-0.11606621742248535,-0.07427936047315598,1.3115906715393066,0.9568718075752258,-0.41266970336819087,0.3981109095568681,0.20809888339678762
5.0962677001953125,0.11404421925544739,0.15385621786117554,-0.09457582235336304,-0.13041479885578156,1.2233623266220093,0.9133080840110779,-0.4098773631039139,0.41469463177508525,0.21790282476575462
5.106322765350342,0.09886941313743591,0.13111305236816406,-0.08002156019210815,-0.24937714636325836,1.1748237609863281,0.8747838139533997,-0.40790669101463695,0.4305480630584032,0.22762906722915743
5.116221904754639,0.07847729325294495,0.10055786371231079,-0.07398098707199097,-0.4144859313964844,1.1424206495285034,0.8374207615852356,-0.4072662194072977,0.4461019750363445,0.23760890079711625
5.126462936401367,0.061728596687316895,0.06922900676727295,-0.06487607955932617,-0.5866159200668335,1.1151740550994873,0.8218556642532349,-0.4081333113377691,0.4615720383901366,0.24812762432745114
5.1393280029296875,0.04987919330596924,0.04357844591140747,-0.0672450065612793,-0.7542375922203064,1.115883469581604,0.8139961361885071,-0.41044583545922986,0.4772164006295756,0.25943083048992127
5.146854877471924,0.04784059524536133,0.04449126124382019,-0.08618146181106567,-0.8934168815612793,1.0981428623199463,0.8009346723556519,-0.4139794155674217,0.4931413131263821,0.27142271663558
5.15667200088501,0.05571216344833374,0.0468384325504303,-0.08368104696273804,-0.9974660277366638,1.0730540752410889,0.8025597333908081,-0.41845335784326787,0.5091215416858023,0.28411417865024663
5.16635799407959,0.05097705125808716,0.03444266319274902,-0.06588107347488403,-1.069339632987976,1.064548373222351,0.8104461431503296,-0.4234751206097143,0.5252361005858542,0.29743911171400245
5.176491737365723,0.02547234296798706,0.012076616287231445,-0.03923928737640381,-1.0935479402542114,1.0770548582077026,0.8098245859146118,-0.42873314751842556,0.5416595623553934,0.3112207778612631
5.186825752258301,0.0012523233890533447,-0.022408008575439453,0.004566788673400879,-1.0168763399124146,1.0508633852005005,0.7868967652320862,-0.43358692408720223,0.5580449691129126,0.3248215136454568
5.196518898010254,-0.004728853702545166,-0.03648585081100464,0.0428432822227478,-0.9460657835006714,0.9985135793685913,0.7680018544197083,-0.4377207037210727,0.573803066254202,0.3379111629252975
5.206462860107422,0.008954286575317383,0.0009877979755401611,0.05290377140045166,-0.9001259207725525,0.9476249814033508,0.7819036245346069,-0.44116241918012405,0.5889541446628661,0.3506617490994588
5.216430902481079,0.01767706871032715,0.023203045129776,0.056075334548950195,-0.9107276797294617,0.9113213419914246,0.8214457035064697,-0.4441192988937268,0.6037910102185753,0.3635941155976044
5.2264978885650635,0.00872570276260376,0.0007368624210357666,0.05288863182067871,-0.9532077312469482,0.91802579164505,0.8616653680801392,-0.4468981874097218,0.6187752935123745,0.377159294510299
5.236966848373413,-0.011618494987487793,-0.044610053300857544,0.04939240217208862,-1.017759084701538,0.9574493765830994,0.8925024271011353,-0.44974031583189084,0.6343608333100808,0.3914925176416367
5.246426820755005,-0.029275238513946533,-0.07576221227645874,0.05575919151306152,-1.084008812904358,0.995267927646637,0.9406065940856934,-0.4526666845559347,0.6507383388923351,0.4066546349643697
5.256482839584351,-0.03239774703979492,-0.08380070328712463,0.0669054388999939,-1.1543550491333008,1.0307530164718628,0.990179717540741,-0.4556009230672742,0.6679746171545756,0.4227889216450739
5.266479969024658,-0.029913663864135742,-0.08821654319763184,0.0849689245223999,-1.2282524108886719,1.0594758987426758,1.0489509105682373,-0.45851541628811027,0.6860383854219427,0.4399596802019654
5.2764739990234375,-0.02720087766647339,-0.09871277213096619,0.10135102272033691,-1.2952436208724976,1.0765314102172852,1.1119437217712402,-0.4612889643902331,0.7048662872689934,0.45826192283370715
5.286531925201416,-0.0258864164352417,-0.10501930117607117,0.10915732383728027,-1.3852038383483887,1.1086058616638184,1.175726056098938,-0.46397123775204435,0.7245134463449825,0.47777057473471685
