timestamp,accel_x,accel_y,accel_z,rotation_x,rotation_y,rotation_z, pitch,roll,yaw
0.05604410171508789,-0.027565568685531616,-0.0035553351044654846,-0.01613318920135498,-0.010701999068260193,-0.004988975822925568,0.044152431190013885,-0.036018568460228106,0.2636900180963862,0.004777085545006641
0.06975221633911133,-0.030878663063049316,-0.005414288491010666,-0.013359367847442627,-0.01388213038444519,-0.007929949089884758,0.04636775702238083,-0.03601594273690544,0.2636445441197666,0.005251816226203723
0.07625722885131836,-0.03155890107154846,-0.004191972315311432,-0.01114201545715332,-0.018555711954832077,-0.012029352597892284,0.03715508431196213,-0.03607540850476934,0.26355943927297804,0.005698748312836215
0.07763504981994629,-0.03171539306640625,-0.0020065270364284515,-0.008300602436065674,-0.011446252465248108,-0.0182846300303936,0.036721520125865936,-0.03613304228770822,0.2634217132922069,0.006095906787469147
0.08361291885375977,-0.03268507122993469,-0.0002734065055847168,-0.0066321492195129395,-0.009059261530637741,-0.02296486869454384,0.033471398055553436,-0.03613942717607099,0.26322487592792626,0.006462295405724459
0.08904695510864258,-0.03566610813140869,-0.0032254382967948914,-0.004567444324493408,-0.014931648038327694,-0.01767853833734989,0.03161970153450966,-0.0361770499850609,0.2630254141810191,0.006799497057765193
0.09559488296508789,-0.040364205837249756,-0.0055414289236068726,-0.0015731453895568848,-0.01855328120291233,-0.011213982477784157,0.027977829799056053,-0.03626531741893776,0.26288228834241384,0.007131641910033228
0.10501813888549805,-0.044094085693359375,-0.004860706627368927,0.0020582079887390137,-0.01203393004834652,-0.0043836841359734535,0.02384881116449833,-0.03636285998304929,0.26281117670702114,0.007416687112893924
0.11365890502929688,-0.04688718914985657,-0.002328265458345413,0.0024176836013793945,0.004528269171714783,-0.001876850612461567,0.02276730164885521,-0.03634810950334784,0.2627801940790198,0.007648518771121126
0.1235499382019043,-0.04453849792480469,0.0016399100422859192,-0.00021195411682128906,0.01901431567966938,-7.624272257089615e-05,0.021037472411990166,-0.03617926172372071,0.2627639422111141,0.007834179636866397
0.13376998901367188,-0.04582005739212036,0.00034477561712265015,-0.0030825138092041016,0.027415791526436806,0.009830450639128685,0.02310674823820591,-0.035902559990993385,0.26280851858846094,0.007976867223428446
0.14359521865844727,-0.04850682616233826,-0.0023683570325374603,-0.0034266114234924316,0.036714766174554825,0.017772218212485313,0.02652672864496708,-0.03553318180262065,0.2629485364053599,0.00813755808567981
0.1549520492553711,-0.04850837588310242,-0.00017298758029937744,-0.0017323493957519531,0.036728084087371826,0.01456177793443203,0.02856777422130108,-0.035107565390501166,0.263120000097459,0.008304847573526942
0.16383099555969238,-0.04437240958213806,0.002375509589910507,-0.00115203857421875,0.0264725498855114,0.006177613511681557,0.026748089119791985,-0.03472558677029864,0.2632262483672244,0.008494578658110085
0.17388916015625,-0.042048871517181396,-0.0015030577778816223,-0.00013577938079833984,0.013719204813241959,0.00628973264247179,0.021033477038145065,-0.03446886577534976,0.26328271682690874,0.008670313582040496
0.18415498733520508,-0.04477971792221069,-0.0017720982432365417,-0.0025023221969604492,0.012959053739905357,-0.0011157635599374771,0.020819414407014847,-0.034280031920915506,0.26331212751618743,0.008844591926701586
0.19379091262817383,-0.04291403293609619,0.0064262524247169495,-0.0030959248542785645,0.005914993584156036,-0.013802796602249146,0.018019631505012512,-0.034138241335595794,0.2627373247277784,0.00899238272951887
0.20523595809936523,-0.03763800859451294,0.011739343404769897,-0.005873143672943115,0.005945669487118721,-0.019808977842330933,0.016326021403074265,-0.03411993581891596,0.2620926399830688,0.009124873068285008
0.21386408805847168,-0.0379885733127594,0.010140355676412582,-0.0096510648727417,0.008968091569840908,-0.014682128094136715,0.01683841459453106,-0.03405567500791511,0.26142777921198196,0.009255271386921372
0.22381806373596191,-0.043157488107681274,0.00974762812256813,-0.00974494218826294,0.011615573428571224,-0.011755136772990227,0.013291881419718266,-0.03389900203464594,0.2608061020256121,0.009354843586900585
0.2338881492614746,-0.044024884700775146,0.014322131872177124,-0.004988610744476318,0.014243580400943756,-0.016392232850193977,0.008130941540002823,-0.03377999099151712,0.26018634105603006,0.009413574803807967
0.24374914169311523,-0.040895015001297,0.013908803462982178,-0.0008488297462463379,0.01036438625305891,-0.01750081777572632,0.0038560356479138136,-0.03370499873307927,0.25958348562909556,0.009428595820951884
0.2549409866333008,-0.04132542014122009,0.012032009661197662,0.00029772520065307617,0.0017466640565544367,-0.012037076987326145,-0.0014505789149552584,-0.033628625567984856,0.2590490363122125,0.009414583643485167
0.26382017135620117,-0.04267573356628418,0.007414963096380234,0.0008061528205871582,-0.004581040237098932,-0.007263892330229282,-0.005783328786492348,-0.03363752064716872,0.25855152646081814,0.009376336780918263
0.27378320693969727,-0.04153737425804138,0.008150395005941391,0.0009531974792480469,-0.003551195841282606,-0.009146747179329395,-0.007387350779026747,-0.03383298716201576,0.25806997778267476,0.009306410820600354
0.28402209281921387,-0.03707900643348694,0.00822945311665535,0.003502488136291504,-0.0009610219858586788,-0.012900250032544136,-0.013223775662481785,-0.034105039647274085,0.257611661713722,0.009205262090246536
0.2940349578857422,-0.03488364815711975,0.006410196423530579,0.003996849060058594,0.006099018268287182,-0.008617090061306953,-0.012546001002192497,-0.034306979073908374,0.2571417907232535,0.00906192176421916
0.3061041831970215,-0.0349544882774353,0.007500540465116501,0.0007473230361938477,0.01793142594397068,-0.007458480540663004,-0.0131421759724617,-0.034391617187777154,0.2566475933219831,0.008894729550195126
0.31403303146362305,-0.036350786685943604,0.009532872587442398,0.00021058320999145508,0.02515524998307228,-0.006960469763725996,-0.012034034356474876,-0.034465041672277735,0.25616693264557533,0.00869844331677925
0.32404422760009766,-0.03376564383506775,0.006695225834846497,-0.00012350082397460938,0.02351469360291958,-0.005431859754025936,-0.009850935079157352,-0.03449508776375593,0.2557344712822191,0.008513460766190379
0.33403491973876953,-0.03212180733680725,0.0050367675721645355,0.0004506111145019531,0.014738512225449085,-0.002215027343481779,-0.01217747200280428,-0.03453613817624808,0.2553287935157344,0.008353095331065498
0.3439500331878662,-0.03487205505371094,0.0014933682978153229,0.004666745662689209,0.006229379680007696,-0.0008834465406835079,-0.014291062951087952,-0.03460056797167172,0.2549386909245473,0.008175971929332641
0.35607099533081055,-0.035117775201797485,0.0027421824634075165,0.006838619709014893,-0.004588380455970764,0.004165107849985361,-0.011837759055197239,-0.03475565794615873,0.2545946575676386,0.008049228737051658
0.3642082214355469,-0.03355473279953003,0.005133286118507385,0.003317594528198242,-0.008548034355044365,-0.0009096348658204079,-0.014980555512011051,-0.034989205303628354,0.2543058832300628,0.007928538570772274
0.3742032051086426,-0.030496686697006226,0.0035679414868354797,0.0015587806701660156,-0.010438612662255764,-0.0041163465939462185,-0.01806609332561493,-0.03522718407320233,0.2539860866832696,0.007778389356886322
0.3841719627380371,-0.03044191002845764,0.0034919194877147675,0.00490415096282959,-0.009203505702316761,-0.005704212002456188,-0.01967746764421463,-0.03548647223751697,0.25363211066073443,0.0076112193381444515
0.39429807662963867,-0.03150084614753723,0.006215747445821762,0.003640294075012207,-0.010584354400634766,-0.005685570649802685,-0.02039918303489685,-0.03576880822941747,0.25327828256424456,0.007441289806569092
0.4057888984680176,-0.03197100758552551,0.0069152601063251495,0.003982126712799072,-0.006524581462144852,0.0014049627352505922,-0.022135883569717407,-0.036000226005249505,0.25297779809415755,0.007246136274341949
0.413970947265625,-0.029299616813659668,0.0021162889897823334,0.0020236968994140625,0.009927628561854362,0.0032904809340834618,-0.020497240126132965,-0.03609955697406827,0.2527410369888089,0.007025982018737544
0.42400312423706055,-0.028131425380706787,0.005840737372636795,0.0006003379821777344,0.015698963776230812,-0.0020174654200673103,-0.020812558010220528,-0.03602190931179189,0.25246343972218704,0.0067766111578554614
0.4348421096801758,-0.02580629289150238,0.008913841098546982,0.0033216476440429688,0.008567552082240582,-0.003634003922343254,-0.022133219987154007,-0.03598528179530089,0.2521417718416812,0.0065266772708474155
0.44399309158325195,-0.02623268961906433,0.0018051192164421082,0.0006659030914306641,0.0009956525173038244,0.008916941471397877,-0.02029590494930744,-0.03605974892763592,0.25188930298640466,0.006301639653394285
0.45584821701049805,-0.0295107364654541,-0.002739265561103821,0.0004233717918395996,-0.0022968135308474302,0.01110472809523344,-0.01985595002770424,-0.03616389393274233,0.25174570263403145,0.006100888959595119
0.46460509300231934,-0.027818694710731506,0.0011157616972923279,0.004703223705291748,-0.002567973453551531,0.004591390956193209,-0.018176455050706863,-0.03629149818720665,0.25157521301587876,0.0059117973016001475
0.47431206703186035,-0.0234135240316391,0.004636067897081375,0.006073415279388428,0.009071637876331806,-0.0018406757153570652,-0.012371031567454338,-0.03638758797346535,0.2513286453071545,0.005745308377778726
0.4842190742492676,-0.022566601634025574,0.0009602531790733337,0.0031642913818359375,0.004600723274052143,-0.002216448076069355,-0.013155598193407059,-0.03644710432632096,0.2510532513314305,0.005600076553258679
0.4942810535430908,-0.02397593855857849,-0.0024296119809150696,0.002552211284637451,-0.002903531538322568,-0.0020513320341706276,-0.009052732028067112,-0.03649533105813462,0.2508072404670249,0.005481430541619863
0.5053539276123047,-0.02325427532196045,-0.0008079074323177338,0.001829385757446289,0.0011428254656493664,-0.0016151503659784794,-0.002617096994072199,-0.03661320283140225,0.25056725024276655,0.005423326375532633
0.5143771171569824,-0.02248157560825348,0.003336198627948761,-0.0021036267280578613,0.005604419391602278,-0.0015682787634432316,0.0013395615387707949,-0.03671110554345479,0.25035320870611505,0.005400547997458486
0.5242969989776611,-0.022663161158561707,0.0004742033779621124,-0.005999863147735596,0.0019021257758140564,-0.002956939395517111,0.004208318889141083,-0.03668917865113355,0.2501307959622456,0.005409102315200859
0.5343220233917236,-0.020342126488685608,2.6702880859375e-05,-0.004527270793914795,-0.0012742262333631516,-0.005150585900992155,0.008425167761743069,-0.03663310010490065,0.24986062540428072,0.005458077218776255
0.5444700717926025,-0.019937679171562195,0.001295827329158783,-0.0010009407997131348,-0.007647353690117598,-0.007512587122619152,0.011471716687083244,-0.036676262839762455,0.24960091788349953,0.005556577340758745
0.5554571151733398,-0.023517325520515442,-0.0012432299554347992,0.0011536478996276855,-0.02115863561630249,-0.00713867973536253,0.009732140228152275,-0.03686558981380121,0.24937572507218073,0.005685625005462812
0.5643949508666992,-0.023741185665130615,-0.0018687546253204346,0.003718256950378418,-0.026734711602330208,-0.006876757368445396,0.006292881444096565,-0.03709454895224482,0.24915211833969964,0.005826096633291069
0.5743961334228516,-0.023471787571907043,0.0005757957696914673,0.007071256637573242,-0.02392800711095333,-0.011400669813156128,0.0008624296169728041,-0.037289903889679794,0.2488915527034891,0.00591061155802193
0.5843760967254639,-0.025111377239227295,0.004964075982570648,0.007929325103759766,-0.016329757869243622,-0.009906680323183537,-0.01012401469051838,-0.037479392574298324,0.248601147327949,0.005912272515164636
0.5944020748138428,-0.027633771300315857,0.007682230323553085,0.0071291327476501465,-0.0029002358205616474,-0.0038719577714800835,-0.013809563592076302,-0.0376452646677228,0.2483555229277249,0.005811302960454096
0.6059770584106445,-0.029371902346611023,0.008550107479095459,0.0018172860145568848,0.01430022157728672,0.004686465486884117,-0.014287708327174187,-0.037616598758276554,0.2481805445481852,0.005655173658569286
0.6145081520080566,-0.029741883277893066,0.009256433695554733,-0.001109480857849121,0.028704728931188583,0.00682684825733304,-0.017761267721652985,-0.0374289375320341,0.24807237439300472,0.005442553648303434
0.6245200634002686,-0.03139589726924896,0.008015546947717667,0.0028395652770996094,0.03514080494642258,0.01022881455719471,-0.01796089857816696,-0.037174287765063416,0.24799748564726737,0.005186107611570179
0.6344709396362305,-0.030406281352043152,0.0024623535573482513,0.00503849983215332,0.03875897452235222,0.010151316411793232,-0.012691834941506386,-0.03682209169643372,0.24791771645921637,0.004934414709653998
0.644550085067749,-0.02767208218574524,-0.0012526772916316986,0.0038730502128601074,0.03166431561112404,0.013648846186697483,-0.01015863660722971,-0.03649332227096381,0.24786444455491394,0.004726870027433552
0.6554789543151855,-0.02762889862060547,-0.007466830313205719,0.0060852766036987305,0.02035786397755146,0.012012865394353867,-0.006020616739988327,-0.03628338518508329,0.24783368034125297,0.0045744208338523345
0.6645669937133789,-0.026130080223083496,-0.009047240018844604,0.0090065598487854,0.010428918525576591,0.005342490971088409,-0.004834444727748632,-0.03623106892229298,0.2477508846008649,0.00447754181210548
0.6745419502258301,-0.025585755705833435,-0.010156728327274323,0.009206175804138184,-0.01025478821247816,0.0034367330372333527,-0.0023286764044314623,-0.036379352082309684,0.2475999125613343,0.0044342145092502415
0.6846451759338379,-0.024214938282966614,-0.01021275669336319,0.005975127220153809,-0.02193393185734749,0.00366687448695302,0.002763074357062578,-0.03667972273752472,0.24741625468158254,0.004474540864897142
0.6945919990539551,-0.02604939043521881,-0.00920005515217781,-6.61611557006836e-05,-0.026913244277238846,0.0007501803338527679,0.0018147227820008993,-0.03704055415065395,0.2472341298347768,0.004555170537853194
0.7066059112548828,-0.03023478388786316,-0.0036092735826969147,-0.003658294677734375,-0.021581212058663368,-0.0005316431634128094,0.0006237039342522621,-0.037385684278801075,0.24702153475220728,0.004623700184517567
0.7146320343017578,-0.02865731716156006,0.004454389214515686,-0.0057427287101745605,-0.013480940833687782,-0.007061447948217392,-0.001397102721966803,-0.03757715730310273,0.24678113376982788,0.004642210085247214
0.7250509262084961,-0.028796181082725525,0.009681537747383118,-0.007843315601348877,-0.0022941669449210167,-0.010914597660303116,-0.006903241854161024,-0.037644855979501735,0.2464999235106105,0.004620366373311822
0.7347049713134766,-0.030188485980033875,0.006478119641542435,-0.008748173713684082,-0.0006166417151689529,-0.008307097479701042,-0.009586110711097717,-0.03755230975175844,0.24621950919070962,0.004535866972723929
0.745232105255127,-0.030148237943649292,0.0067096129059791565,-0.004130423069000244,-0.004419552627950907,-0.01387092936784029,-0.01277556549757719,-0.037473352409449025,0.2459410932464837,0.004418584294859781
0.7561960220336914,-0.027675792574882507,0.006072912365198135,0.0017644166946411133,-0.01724773272871971,-0.019420422613620758,-0.015793459489941597,-0.03745390917977008,0.24560978131917746,0.004294370800115647
0.7650361061096191,-0.0245276540517807,-0.0002980753779411316,0.0006741881370544434,-0.025210335850715637,-0.022412173449993134,-0.016024569049477577,-0.03756887481665254,0.24524383221717605,0.0041810155895871315
0.7749490737915039,-0.022201448678970337,0.0005351826548576355,-0.0015198588371276855,-0.02727428451180458,-0.027068179100751877,-0.012287886813282967,-0.03772755267498549,0.2448290124287596,0.0040915383285013065
0.7848260402679443,-0.018972143530845642,0.0031809136271476746,-0.001984119415283203,-0.023465998470783234,-0.032276701182127,-0.008533628657460213,-0.03795063441116783,0.24431749346465848,0.00404002824242582
0.7947859764099121,-0.017386168241500854,0.0006158724427223206,0.00010496377944946289,-0.027278313413262367,-0.036700211465358734,-0.00670989602804184,-0.03825759620842169,0.24377061920467544,0.004015147044501538
0.8062970638275146,-0.017149627208709717,-0.0009599141776561737,0.0030338168144226074,-0.035259224474430084,-0.03780937194824219,-0.004334196448326111,-0.038689294696293064,0.2432004128461902,0.0040213848622782855
0.8146140575408936,-0.016796275973320007,-0.005365658551454544,0.00800466537475586,-0.04148836061358452,-0.03748500347137451,-0.0005687532247975469,-0.03914334893395278,0.24263592825631775,0.00408849042825912
0.8247289657592773,-0.016328901052474976,-0.0066118016839027405,0.008984804153442383,-0.046993158757686615,-0.03250786289572716,-0.004677637480199337,-0.03964220310920859,0.24209607250951773,0.004170700636375347
0.8346571922302246,-0.01846495270729065,-0.0027361810207366943,0.008008301258087158,-0.04550605267286301,-0.027859050780534744,-0.005691503174602985,-0.04016152606339192,0.2416291299087269,0.00422169445799561
0.8450078964233398,-0.01853787899017334,0.000722397118806839,0.00670468807220459,-0.04481153190135956,-0.026661604642868042,-0.0070497156120836735,-0.0405790205785022,0.24120519036191954,0.004258386776729595
0.8557090759277344,-0.02056524157524109,0.0009436458349227905,0.009949445724487305,-0.051423363387584686,-0.02218909002840519,-0.015224022790789604,-0.041044808479145316,0.24083030711929065,0.004278313646950116
0.8648509979248047,-0.022945955395698547,-0.0013865642249584198,0.008205771446228027,-0.08873153477907181,0.0013054492883384228,-0.0180297140032053,-0.04174292618556629,0.24060187851735468,0.004264867216876332
0.8749451637268066,-0.024913445115089417,-0.005956161767244339,0.004663586616516113,-0.13418078422546387,0.01930335909128189,-0.03007332794368267,-0.04284976409313902,0.24061245706634418,0.004306554147735842
0.8848528861999512,-0.020656540989875793,-0.017125673592090607,0.012619972229003906,-0.16473591327667236,0.02657325565814972,-0.03814776986837387,-0.044331350714231034,0.2407701557823014,0.004325852386092777
0.8948400020599365,-0.019185870885849,-0.0060158707201480865,0.020675301551818848,-0.19518783688545227,0.020875955000519753,-0.04166873171925545,-0.04604068056160186,0.24090898426705548,0.004355369938565431
0.9058771133422852,-0.017324194312095642,0.001566912978887558,0.022285163402557373,-0.21842989325523376,0.041831083595752716,-0.056140560656785965,-0.048027353925466,0.24113635383356244,0.0043871150793382595
0.9148280620574951,-0.016218841075897217,-0.00943872332572937,0.011388242244720459,-0.26837271451950073,0.04255759343504906,-0.07037729024887085,-0.05046049799456362,0.24148929956043466,0.004333218960289388
0.9251010417938232,-0.011872127652168274,-0.0031059719622135162,0.01613485813140869,-0.2638566195964813,0.017537683248519897,-0.05611712858080864,-0.05308818186648116,0.24169807146949282,0.004363550679069748
0.9348039627075195,-0.0034213364124298096,-0.003145705908536911,0.010532498359680176,-0.28003478050231934,0.001825565006583929,-0.06313934922218323,-0.05577166023050343,0.24168955707172962,0.004435836210805491
0.9450869560241699,-0.0051207393407821655,-0.0068847499787807465,0.004956364631652832,-0.2693304717540741,-0.007264380343258381,-0.05744316801428795,-0.05844694765582075,0.24154420678049474,0.0044968209921671595
0.9564208984375,-0.008278802037239075,-0.0011962391436100006,0.0007061958312988281,-0.24061572551727295,-0.01740569993853569,-0.051349055022001266,-0.06086516040037632,0.24131165083169476,0.004582430856750334
0.9649171829223633,-0.008920982480049133,0.009275972843170166,-0.0013727545738220215,-0.19680874049663544,-0.028843488544225693,-0.03917766362428665,-0.06275617138035657,0.24097966773368107,0.004668695005974961
0.9748091697692871,-0.01109403371810913,0.010431230068206787,-0.006028294563293457,-0.15245938301086426,-0.03212050721049309,-0.030253944918513298,-0.06430484013655134,0.2405852728131501,0.004742928258327088
0.9849371910095215,-0.013541549444198608,0.011041820049285889,-0.0126572847366333,-0.11296168714761734,-0.02435317449271679,-0.021185986697673798,-0.0654973061353739,0.24023272362443948,0.004810454271076808
0.9950110912322998,-0.016286209225654602,0.009633757174015045,-0.01399165391921997,-0.08091587573289871,-0.02867841348052025,-0.008112795650959015,-0.06614382532055023,0.239894813655762,0.004887944586335158
1.006134033203125,-0.01798388361930847,0.01073560118675232,-0.007875561714172363,-0.05932512879371643,-0.02744528278708458,-0.005668014287948608,-0.0666452666008441,0.23957645282710377,0.004975696982384681
1.01487398147583,-0.020623549818992615,0.003037005662918091,-0.001455068588256836,-0.049902863800525665,-0.03063708171248436,-0.0008658020524308085,-0.0670051860963858,0.23929886078839332,0.005085705140147737
1.025461196899414,-0.01865747570991516,-0.0019079670310020447,0.007397770881652832,-0.051528193056583405,-0.03936905413866043,-0.004590232856571674,-0.06731217481801836,0.2389442377718146,0.005188385308346447
1.035027027130127,-0.018335208296775818,-0.000862613320350647,0.018294692039489746,-0.0675276666879654,-0.05012209713459015,-0.0012647435069084167,-0.06779379771903796,0.23847807391817283,0.005302689230974689
1.0453200340270996,-0.01800459623336792,-0.0043174102902412415,0.020470917224884033,-0.10729963332414627,-0.05016555264592171,0.00014923512935638428,-0.06867189763198431,0.23793129853524866,0.0055135209837439796
1.0558760166168213,-0.018147319555282593,-0.010603055357933044,0.011710703372955322,-0.16101744771003723,-0.045276790857315063,-0.00866476260125637,-0.07006282510924221,0.23740943289717498,0.005782332954381518
1.0651321411132812,-0.018502235412597656,-0.013200491666793823,0.00874781608581543,-0.1903357058763504,-0.04842308908700943,-0.012293213978409767,-0.07185605977639356,0.23689352650803924,0.006101817004063011
1.074991226196289,-0.015405043959617615,-0.007608450949192047,0.009393393993377686,-0.2298748642206192,-0.05317683517932892,-0.020036621019244194,-0.07396004008086808,0.23630141154372233,0.006429285746014001
1.0850372314453125,-0.014312103390693665,-0.002799004316329956,0.005968630313873291,-0.2719869613647461,-0.0587581992149353,-0.02049979753792286,-0.0764666436626269,0.235675953912307,0.006814003444788579
1.095046043395996,-0.01253095269203186,-0.005468584597110748,0.0017308592796325684,-0.33139199018478394,-0.06386907398700714,-0.02939981408417225,-0.07935861871485944,0.23497887576851403,0.007278841110136118
1.1061270236968994,-0.01352536678314209,-0.012281842529773712,0.005419611930847168,-0.40242287516593933,-0.0691809207201004,-0.04341858997941017,-0.0828263320136521,0.23427761810496003,0.007773990742731657
1.1150169372558594,-0.013457179069519043,-0.016910403966903687,0.01124662160873413,-0.4856237471103668,-0.07994914799928665,-0.05377455800771713,-0.08704284700280857,0.23350566622253077,0.008329773495246936
1.1252110004425049,-0.011226236820220947,-0.01687096804380417,0.013764798641204834,-0.5906448364257812,-0.08109399676322937,-0.06698165088891983,-0.09215087334913163,0.2326980888712361,0.008983550201976687
1.135188102722168,-0.010986313223838806,-0.01930011808872223,0.013285815715789795,-0.6688088774681091,-0.08555452525615692,-0.07058384269475937,-0.09805518553381398,0.23187484843482337,0.00976535924280559
1.1457271575927734,-0.01242440938949585,-0.02090083807706833,0.015430212020874023,-0.7199997305870056,-0.08741194754838943,-0.08014197647571564,-0.10458749637116928,0.23102677218920623,0.01063368005479373
1.1564059257507324,-0.012167021632194519,-0.012734778225421906,0.01064068078994751,-0.720486581325531,-0.09571222215890884,-0.07093968987464905,-0.11182940045785446,0.23022030044535832,0.011538962019999415
1.1651701927185059,-0.011205166578292847,-0.00016880780458450317,0.005150794982910156,-0.6682286262512207,-0.09888515621423721,-0.0586358904838562,-0.11876445783504323,0.22933487936942404,0.01251188112789947
1.1751160621643066,-0.013489723205566406,0.0005356967449188232,-0.0047454833984375,-0.6111003756523132,-0.0835631936788559,-0.060466814786195755,-0.1251262414721896,0.2285334727518401,0.013389582202385295
1.1854162216186523,-0.017069578170776367,0.00942198932170868,-0.016979575157165527,-0.5429198741912842,-0.08173643797636032,-0.039521317929029465,-0.13090516585086448,0.22783138022762045,0.014205740980126792
1.1951770782470703,-0.01344616711139679,0.01743680238723755,-0.010922789573669434,-0.4700893759727478,-0.09074325114488602,-0.025274738669395447,-0.13588935503148666,0.22706230293880944,0.015053051480976987
1.2059268951416016,-0.012309089303016663,0.01188938319683075,-0.006071984767913818,-0.44208335876464844,-0.0859978049993515,-0.020373350009322166,-0.140380930330192,0.22628111583610963,0.015860126095129108
1.2153100967407227,-0.017303243279457092,0.004955112934112549,0.0020917654037475586,-0.47890394926071167,-0.07392862439155579,-0.02931384928524494,-0.14488905888422168,0.22559632134993524,0.016661630984321323
1.2256789207458496,-0.02278083562850952,-0.0071976929903030396,0.01648867130279541,-0.5352105498313904,-0.05752204731106758,-0.03782392665743828,-0.14990942131812277,0.22507050474794588,0.017473051313581144
1.2353510856628418,-0.024499893188476562,-0.01570761203765869,0.026517152786254883,-0.614209771156311,-0.06238631531596184,-0.04486585780978203,-0.15560171214339893,0.22461622565893402,0.018371550859308302
1.2457730770111084,-0.02190256118774414,-0.018226832151412964,0.03315013647079468,-0.7577046155929565,-0.07810641825199127,-0.08622309565544128,-0.16238742792452637,0.22403675473016096,0.019274218788401624
1.2568700313568115,-0.020812034606933594,-0.03791669011116028,0.04387784004211426,-0.9579048156738281,-0.07868219166994095,-0.12325195223093033,-0.17095026099322383,0.22342084145941254,0.020147349713920064
1.2655720710754395,-0.023551955819129944,-0.06432004272937775,0.05231362581253052,-1.2016386985778809,-0.07165615260601044,-0.15920701622962952,-0.18180552547038203,0.2228198262017019,0.021187827365281464
1.2753229141235352,-0.02687165141105652,-0.07431837916374207,0.05597609281539917,-1.400388479232788,-0.051245152950286865,-0.1888626515865326,-0.19493537996912857,0.22245569961423428,0.02237350683008221
1.2855620384216309,-0.02456161379814148,-0.06759226322174072,0.04107457399368286,-1.5798969268798828,-0.0631553903222084,-0.2176119089126587,-0.20992351435284237,0.22217063750954297,0.023713439578854825
1.2953770160675049,-0.014127641916275024,-0.050937220454216,0.032607197761535645,-1.721239686012268,-0.07524268329143524,-0.2384524792432785,-0.2265769132940889,0.2217736362086575,0.02515166281328572
1.3061060905456543,-0.004407033324241638,-0.04935367405414581,0.016211628913879395,-1.8165841102600098,-0.07667168229818344,-0.24888481199741364,-0.24439088774165874,0.22140068005939506,0.026702339941880766
1.3152940273284912,-0.008136481046676636,-0.050429075956344604,0.013931453227996826,-1.9110145568847656,-0.07978891581296921,-0.26238253712654114,-0.2631890373607299,0.22101735343479445,0.028353833504294587
1.32551908493042,-0.010068222880363464,-0.04592636227607727,0.01204073429107666,-1.99760901927948,-0.10952892154455185,-0.27043676376342773,-0.28285248741744373,0.22057395278448694,0.030105116550499682
1.3353090286254883,-0.0016476958990097046,-0.031581103801727295,0.0036765336990356445,-2.0260980129241943,-0.1145377978682518,-0.2772166430950165,-0.30321977875786466,0.2199105578474463,0.03190305643641205
1.3456339836120605,0.003639325499534607,-0.01985752582550049,-0.004602611064910889,-1.9516105651855469,-0.1484876424074173,-0.25783905386924744,-0.32321581967253726,0.21921127637037413,0.03371932994755064
1.3555331230163574,-0.0005764663219451904,0.003527015447616577,-0.009111762046813965,-1.9759780168533325,-0.233162060379982,-0.27916857600212097,-0.3428734549544424,0.21789805385331773,0.035455572047218796
1.3655180931091309,0.0021132975816726685,0.0045909583568573,0.0034989118576049805,-2.181504011154175,-0.302109956741333,-0.33823302388191223,-0.3638093960244711,0.2156971576128697,0.03701141477773162
1.3754301071166992,0.001728251576423645,-0.05609789490699768,0.01866626739501953,-2.526033639907837,-0.30676940083503723,-0.3808276355266571,-0.3875002732364693,0.21318643749802357,0.038579028810732295
1.3856968879699707,-0.017407134175300598,-0.11542746424674988,0.02876114845275879,-2.962589979171753,-0.25050124526023865,-0.4295198619365692,-0.4151366893155954,0.21120336021084943,0.040571339865195614
1.3955111503601074,-0.029881790280342102,-0.1270049810409546,0.017914116382598877,-3.3950843811035156,-0.20176436007022858,-0.4810275137424469,-0.44723114164822936,0.20993692782448212,0.04297554373525669
1.4058880805969238,-0.016169250011444092,-0.10903158783912659,-0.006982743740081787,-3.6617517471313477,-0.20736894011497498,-0.48724764585494995,-0.48291517781161386,0.2092657538367228,0.04588610973029907
1.4155011177062988,-3.1322240829467773e-05,-0.06222742795944214,-0.029520273208618164,-3.6972200870513916,-0.1833200603723526,-0.4505721628665924,-0.5201160401789295,0.20897565871327017,0.04938388278736614
1.4256072044372559,-0.014008358120918274,-0.0315852165222168,-0.032127439975738525,-3.6175153255462646,-0.20519788563251495,-0.4063946604728699,-0.5567282178937321,0.20909021101877542,0.0533447934629462
1.4355049133300781,-0.038098111748695374,0.010432302951812744,-0.04162168502807617,-3.3574469089508057,-0.15763916075229645,-0.30488133430480957,-0.591646826374128,0.20974306658192549,0.05786253128062696
1.4464669227600098,-0.032585591077804565,0.03379833698272705,-0.06306791305541992,-3.16489577293396,-0.07916218042373657,-0.28654447197914124,-0.6242486328945693,0.21135482333774047,0.06271831653491922
1.455367088317871,-0.022662773728370667,0.0471189022064209,-0.016362667083740234,-3.1236119270324707,-0.16903828084468842,-0.3239254057407379,-0.6555610872882152,0.2128265951730047,0.06722798069861433
1.4653849601745605,-0.024105429649353027,0.006074070930480957,0.058417439460754395,-3.2877752780914307,-0.24348099529743195,-0.33038070797920227,-0.6874470039522553,0.21361744552426537,0.07172422905133902
1.4754571914672852,-0.01342785358428955,-0.09445661306381226,0.05777651071548462,-3.8345041275024414,-0.3191123604774475,-0.3901822566986084,-0.7227406964062469,0.2142007220149353,0.0770660595996038
1.485469102859497,-0.007546097040176392,-0.13735616207122803,0.020142078399658203,-4.027428150177002,-0.17396698892116547,-0.3943932354450226,-0.7623100680624617,0.2159980049537114,0.08321952040355066
1.4953808784484863,-0.020156845450401306,-0.1691216230392456,-0.03203225135803223,-4.144344329833984,-0.1932370811700821,-0.4076871871948242,-0.8031787735712742,0.21919933240693776,0.09023770789716883
1.5053009986877441,-0.02826341986656189,-0.10644996166229248,-0.026454925537109375,-4.374343395233154,-0.2955643832683563,-0.43080461025238037,-0.845719151207041,0.22222506891495056,0.09782298466072994
1.515416145324707,-0.008925661444664001,-0.0725100040435791,-0.02145218849182129,-4.481822967529297,-0.22964343428611755,-0.3554006516933441,-0.8898749754884077,0.2266808933106308,0.10713284899156812
1.5253300666809082,0.003379315137863159,-0.07139831781387329,-0.04358220100402832,-4.298694610595703,-0.21668289601802826,-0.307319313287735,-0.9335612409071428,0.23342984909551925,0.11839762729528532
1.5353999137878418,-0.015484586358070374,0.00946033000946045,-0.019971609115600586,-3.9254701137542725,-0.34815332293510437,-0.32427993416786194,-0.9745036018515915,0.2399574234266964,0.1298200273835368
1.5453810691833496,-0.012586593627929688,0.07585978507995605,0.001007080078125,-3.4410459995269775,-0.4405752122402191,-0.2778307795524597,-1.01101880163468,0.24503098328990058,0.1406455041747821
1.555617094039917,0.010062702000141144,0.07472550868988037,-0.018182814121246338,-3.014209270477295,-0.5075933933258057,-0.2108546644449234,-1.042878592224684,0.24940697031586204,0.1513117244434414
1.5653901100158691,0.007515519857406616,0.06955522298812866,-0.04090389609336853,-2.867058038711548,-0.5320420265197754,-0.2172834873199463,-1.0717958091779964,0.25343550110607815,0.16198981359706582
1.5754220485687256,0.013311877846717834,0.009652554988861084,-0.05365145206451416,-2.818023920059204,-0.5096307396888733,-0.17856325209140778,-1.099772701744974,0.25812090373283453,0.17320971927899667
1.58555006980896,0.006972745060920715,-0.011354267597198486,-0.06862619519233704,-2.895548105239868,-0.4424867630004883,-0.18121518194675446,-1.1277007233768137,0.2649249823188371,0.18608726358177044
1.5954852104187012,-0.017991311848163605,-0.0205991268157959,-0.05983859300613403,-2.9963042736053467,-0.3853057622909546,-0.1935323029756546,-1.1567782307856527,0.2740884728758287,0.20067598568424821
1.606985092163086,-0.027471795678138733,-0.046810925006866455,-0.030199110507965088,-2.8558566570281982,-0.357942670583725,-0.20492348074913025,-1.1856394099850474,0.285155997449325,0.2167203416682346
1.6159250736236572,-0.027945294976234436,-0.0020491480827331543,-0.012158691883087158,-2.5023465156555176,-0.3342733085155487,-0.21224159002304077,-1.2120264624215644,0.2961884260345765,0.23228044134813394
1.6257729530334473,-0.03051038831472397,0.08781427145004272,-0.0081540048122406,-2.0671215057373047,-0.3058517575263977,-0.1479836255311966,-1.2344124638920133,0.306970172290688,0.2471589995941513
1.6354620456695557,-0.02678864449262619,0.10378950834274292,0.0075973570346832275,-1.6730728149414062,-0.28470250964164734,-0.12461144477128983,-1.2525937353937588,0.3171693518941976,0.2610501061564319
1.6458191871643066,-0.029141046106815338,0.0928078293800354,0.019499272108078003,-1.3893437385559082,-0.2602487802505493,-0.09010257571935654,-1.2673970123804916,0.32611870642142493,0.2733451717814703
1.6554961204528809,-0.02780049294233322,0.09261596202850342,0.006537914276123047,-1.2437373399734497,-0.1986333727836609,-0.06020220369100571,-1.27998874408778,0.33545526444878,0.28552909008107547
1.6661620140075684,-0.029682673513889313,0.03223389387130737,0.0015124678611755371,-1.3434518575668335,-0.1540057510137558,-0.09452379494905472,-1.2923903626049367,0.34588998845663976,0.29824399479712005
1.675868034362793,-0.032249659299850464,-0.03781485557556152,0.03241074085235596,-1.433386206626892,-0.17332831025123596,-0.08107376843690872,-1.3057340372290451,0.3584769425985243,0.31300304335030754
1.6856050491333008,-0.023753710091114044,-0.03933626413345337,0.02175915241241455,-1.466749668121338,-0.11777810752391815,-0.03653714060783386,-1.3196452332334756,0.37468708685995666,0.3313057271896035
1.695702075958252,-0.01896841824054718,0.018351614475250244,-0.04207479953765869,-1.384756088256836,-0.08902342617511749,-0.05360054597258568,-1.3330339087221825,0.3935525263650607,0.3517539370709972
1.7056500911712646,-0.013147152960300446,0.014118671417236328,-0.04409050941467285,-1.2192350625991821,-0.09572016447782516,-0.008496398106217384,-1.3452232316925103,0.4130332357473002,0.37270677153437
1.7156529426574707,-0.011793963611125946,0.021017730236053467,0.01357010006904602,-1.011536717414856,-0.14855089783668518,0.02625013142824173,-1.3554005002800578,0.43304160983549916,0.39444070540363807
1.7257061004638672,-0.013494841754436493,0.028942465782165527,0.037886038422584534,-0.8740638494491577,-0.15029987692832947,0.049219682812690735,-1.3636692872976912,0.4516651244436393,0.415044785262708
1.7360360622406006,-0.028565995395183563,-0.0047155022621154785,0.023487389087677002,-0.9791952967643738,-0.13571080565452576,0.05045778676867485,-1.371673067930351,0.4721662674699772,0.4374564185660545
1.7460460662841797,-0.034819766879081726,-0.06363749504089355,0.03075246512889862,-1.1532528400421143,-0.12265658378601074,0.03417644277215004,-1.380871146926988,0.49819260370297686,0.4652605541141913
1.7561140060424805,-0.029177121818065643,-0.09862232208251953,0.03308367729187012,-1.2943880558013916,-0.1527060866355896,0.008104363456368446,-1.3914907027659633,0.5302399834358632,0.49923807504916456
1.7658472061157227,-0.018826283514499664,-0.08713537454605103,0.04484163224697113,-1.4102518558502197,-0.19622328877449036,-0.02711716666817665,-1.4029956951440499,0.5681840421421998,0.5395616792052995
1.7761080265045166,-0.016414858400821686,-0.09878039360046387,0.0366504043340683,-1.5314757823944092,-0.2116624414920807,-0.04798596352338791,-1.4155350497378842,0.6145916473468012,0.588662885788561
1.7856180667877197,-0.005563430488109589,-0.04228907823562622,-0.011357486248016357,-1.4563220739364624,-0.24056021869182587,-0.039129938930273056,-1.427837576918237,0.6703305870320071,0.647299226447387
1.7960939407348633,0.005771994590759277,0.00922536849975586,-0.027085140347480774,-1.3076727390289307,-0.2755504250526428,-0.08169897645711899,-1.4388584004224565,0.7292522668322033,0.7093517911135089
1.8061931133270264,-0.005396217107772827,0.029014885425567627,-0.01825535297393799,-1.247498631477356,-0.29177677631378174,-0.0771440640091896,-1.4486199674279143,0.7901814707967092,0.7737005102493268
1.8160529136657715,-0.013102792203426361,0.02350407838821411,-0.01653158664703369,-1.3363902568817139,-0.28000107407569885,-0.122916080057621,-1.4580137551228163,0.8618925134258982,0.8487481358176066
1.8260769844055176,-0.024312272667884827,-0.023552238941192627,0.0104902982711792,-1.480255365371704,-0.2966253161430359,-0.1788410097360611,-1.468070621581925,0.9530410822812043,0.9433514787686885
1.8359980583190918,-0.021895647048950195,-0.019086360931396484,0.034058984369039536,-1.3873182535171509,-0.31800198554992676,-0.13650767505168915,-1.4771505006857033,1.0666924550591033,1.0606504962472663
1.846458911895752,-0.008469581604003906,0.05774199962615967,0.01916622743010521,-1.0888603925704956,-0.35390564799308777,-0.13815483450889587,-1.4837416573985518,1.1802762261439046,1.1780469678620649
1.8563051223754883,-0.01583060622215271,0.08708137273788452,0.030862625688314438,-0.828223466873169,-0.38369205594062805,-0.14048856496810913,-1.488285627503406,1.2767198220739524,1.2785856959637225
1.8662571907043457,-0.02445794641971588,0.07100272178649902,0.03937220573425293,-0.6847781538963318,-0.37401431798934937,-0.1630939096212387,-1.4916334061308973,1.3582399704954902,1.3641804888319262
1.8763799667358398,-0.04449949413537979,0.03761059045791626,0.07406800985336304,-0.596449613571167,-0.39249905943870544,-0.17978180944919586,-1.4944607500826492,1.4312605025141594,1.4412496757556543
1.8860950469970703,-0.05254468321800232,0.02316838502883911,0.11948072910308838,-0.5091821551322937,-0.4144645035266876,-0.17003320157527924,-1.4967948852838178,1.498025592112947,1.5122817256043461
1.89628005027771,-0.03483780473470688,0.039742887020111084,0.06550049781799316,-0.43508559465408325,-0.38224318623542786,-0.15126590430736542,-1.498627626651843,1.557328109866782,1.575780329992808
1.9064579010009766,-0.03384333848953247,0.07449233531951904,-0.02207803726196289,-0.46017858386039734,-0.31091177463531494,-0.10369125008583069,-1.499834795126097,1.6153402275991031,1.6373993974413668
1.9161350727081299,-0.03666064888238907,0.05934929847717285,-0.03778970241546631,-0.6455289721488953,-0.25965791940689087,-0.14554575085639954,-1.5005726044595011,1.6901631537549906,1.7152794274861947
1.9261178970336914,-0.03521517664194107,-0.01827019453048706,-0.0013742465525865555,-0.8635224103927612,-0.2062717080116272,-0.14771169424057007,-1.5007632175831178,1.7991353979558373,1.8268357247502844
1.936110019683838,-0.031923145055770874,-0.011940300464630127,0.0231623612344265,-0.8421116471290588,-0.17705577611923218,-0.15853026509284973,-1.4997157905940992,1.920813583173948,1.9507400490048319
1.9462051391601562,-0.04240492731332779,0.035917043685913086,0.030423521995544434,-0.6820539832115173,-0.12820297479629517,-0.15073704719543457,-1.4981490143365601,2.026195824604181,2.0579376847870012
1.956583023071289,-0.05976635217666626,0.04998737573623657,0.03488719090819359,-0.4807690680027008,-0.09514913707971573,-0.14306741952896118,-1.4966681110230085,2.104382338995794,2.137428464056568
1.966994047164917,-0.05613579601049423,0.044328391551971436,0.04728948324918747,-0.28865039348602295,-0.09526480734348297,-0.1367739886045456,-1.4958197481439357,2.1568033330218896,2.1909555109145655
1.9760220050811768,-0.049438051879405975,0.020984172821044922,0.03760838136076927,-0.18986469507217407,-0.06486376374959946,-0.11896916478872299,-1.4955944294087589,2.190908608352508,2.2259843341349703
1.9863109588623047,-0.04323315620422363,0.0005548596382141113,-0.02073836326599121,-0.2570708990097046,-0.03257399797439575,-0.10757216811180115,-1.4951610028020046,2.2221095004351197,2.2577572288217596
1.9961340427398682,-0.03596293181180954,-0.048015058040618896,-0.045582644641399384,-0.41969627141952515,0.008974510245025158,-0.11972097307443619,-1.493976727481505,2.266158009515134,2.30203983558447
2.0066299438476562,-0.04340096190571785,-0.08677226305007935,-0.012208573520183563,-0.5507701635360718,0.04000885784626007,-0.12663587927818298,-1.4916248143099062,2.324234989611497,2.3600466916369474
2.016016960144043,-0.03455621749162674,-0.0656464695930481,-0.008012175559997559,-0.5090256333351135,0.033244695514440536,-0.12145975232124329,-1.4886871370897325,2.3829565707379676,2.4185588553488526
2.0263330936431885,-0.01994512975215912,-0.012188613414764404,-0.011011965572834015,-0.33160677552223206,0.025733470916748047,-0.08106385916471481,-1.4862276257353653,2.4273461160649137,2.462814009579869
2.0363080501556396,-0.017329007387161255,0.048573076725006104,0.002953164279460907,-0.06040668860077858,0.017715493217110634,-0.057256266474723816,-1.4851364859981895,2.4477276261169303,2.483065095691963
2.0463709831237793,-0.022751882672309875,0.0422627329826355,0.003884546458721161,0.1054610013961792,0.02439221553504467,-0.06555872410535812,-1.485772400664278,2.4519317553257207,2.487075225681858
2.056428909301758,-0.026176858693361282,0.011292099952697754,0.0041315555572509766,0.2635875344276428,0.02360019087791443,-0.047387707978487015,-1.4875332010011095,2.4434475409810346,2.4783071862048
2.0663740634918213,-0.010469954460859299,0.018967926502227783,-0.01579868793487549,0.31923213601112366,0.018048077821731567,-0.04754664748907089,-1.4901346903700106,2.4243019498734886,2.4589034519520934
2.0763401985168457,-0.003079161047935486,-0.01580291986465454,-0.03194808214902878,0.15926162898540497,0.03400786966085434,-0.057435497641563416,-1.4923912085154445,2.408282027625923,2.442558976346629
2.0862810611724854,0.006500605493783951,-0.054755210876464844,-0.022024165838956833,-0.02380123920738697,0.02847439795732498,-0.03927401825785637,-1.4931268390357924,2.4084204879515654,2.4423712629910743
2.0963680744171143,0.0165896937251091,-0.0529748797416687,-0.0003566741943359375,-0.15678992867469788,0.005459891632199287,-0.11499567329883575,-1.4929960264256157,2.4233789434743658,2.4572160086424577
2.1065070629119873,0.007359795272350311,-0.040216922760009766,0.026255138218402863,-0.17818903923034668,-0.008700534701347351,-0.06134309992194176,-1.4921955486145158,2.447791610848093,2.481702720134513
2.11641001701355,0.017498452216386795,0.030822277069091797,0.021412253379821777,-0.02593930996954441,-0.04276689141988754,-0.04816151782870293,-1.4916859703037144,2.4614476758781927,2.495667962499409
2.1273210048675537,0.02095082402229309,0.052825987339019775,-0.0032104291021823883,0.17127931118011475,-0.04966128244996071,-0.0035313067492097616,-1.4924546289611147,2.458592195010118,2.493282504150738
2.1363558769226074,0.010327108204364777,0.05959111452102661,-0.009410016238689423,0.3866070806980133,-0.06292995065450668,0.0588388592004776,-1.4943591766637627,2.43263500737523,2.467787242499833
2.146267890930176,0.008369456976652145,0.043084681034088135,0.00044035911560058594,0.5095751285552979,-0.09017235785722733,0.06428172439336777,-1.497367027847215,2.3849706955390673,2.4207556050917898
2.1567931175231934,-0.0004416853189468384,-0.018227696418762207,0.0056226179003715515,0.3800578713417053,-0.09124933928251266,0.07542918622493744,-1.5001573629010219,2.331971983978016,2.3685414477375963
2.166379928588867,0.0053432397544384,-0.07444405555725098,-0.01401054859161377,0.09332721680402756,-0.07034903019666672,0.06083767116069794,-1.5012915501884452,2.298735760942966,2.336037703885919
2.1764049530029297,-0.0018702112138271332,-0.11679321527481079,-0.015560269355773926,-0.19785377383232117,-0.03053317405283451,0.03424520418047905,-1.5005035944183704,2.3002756289517072,2.3380797174446175
2.186404228210449,-0.008058935403823853,-0.11002445220947266,-0.018657449632883072,-0.31920140981674194,-0.015044672414660454,0.04706837981939316,-1.4982372137896338,2.325765916980364,2.3638420673836236
2.1966500282287598,-0.001867402344942093,-0.05121588706970215,-0.014473561197519302,-0.2862463891506195,-0.019085487350821495,0.04063711315393448,-1.495737998974613,2.3523320819388647,2.3906463079907034
2.2074270248413086,-0.003052234649658203,-0.017484962940216064,0.003547191619873047,-0.21072348952293396,-0.02761257439851761,0.05361965298652649,-1.4936136541706402,2.3703973322200795,2.4090005159585828
2.2164011001586914,-0.0013869665563106537,-0.010399162769317627,0.0036085806787014008,-0.1687462031841278,-0.0356377437710762,0.04344610869884491,-1.4919727938276757,2.3819043440194836,2.420877336689416
2.2264909744262695,-0.004407163709402084,-0.013323068618774414,0.005154013633728027,-0.09645634144544601,-0.026204649358987808,0.07680811733007431,-1.4905562388288058,2.3878870240521386,2.427177347277218
2.23647403717041,-0.011682718992233276,0.0033005475997924805,0.01887870579957962,-0.007603961043059826,-0.03281035274267197,0.06892089545726776,-1.489715999555057,2.384989952553313,2.424585619734075
2.246617078781128,-0.018238984048366547,-0.011829495429992676,0.01517236977815628,-0.023234136402606964,-0.01951092854142189,0.07356198132038116,-1.4892585927985855,2.3782328818034686,2.418055943031396
2.2566170692443848,-0.0215313620865345,-0.025035500526428223,0.012173410505056381,-0.15140143036842346,-0.009750441648066044,0.07123064994812012,-1.4882267188248381,2.377405179523131,2.417385783637775
2.2664361000061035,-0.01957082375884056,-0.05834150314331055,0.010653503239154816,-0.30222660303115845,0.01312176138162613,0.05641495808959007,-1.48617077252515,2.390438201529174,2.430447282308299
2.276577949523926,-0.03345683589577675,-0.06276166439056396,0.02770494669675827,-0.2984997630119324,0.023250563070178032,0.0829235315322876,-1.483445870489865,2.409241254100836,2.4491418024210723
2.2868871688842773,-0.03493265062570572,-0.010956287384033203,0.006219744682312012,-0.16733971238136292,0.025280244648456573,0.0813327208161354,-1.4811828805167704,2.4197776877005386,2.459475543177847
2.2965590953826904,-0.02957061305642128,0.013758718967437744,-0.014154545962810516,-0.08716924488544464,0.01792353019118309,0.09905898571014404,-1.4797089311743097,2.4215617829369864,2.461050283287761
2.307126998901367,-0.03034978359937668,0.007828056812286377,0.011552214622497559,-0.027504030615091324,0.01506156474351883,0.0971003845334053,-1.4786518303650058,2.4176668262967875,2.4569676567219965
2.3165111541748047,-0.03110615909099579,0.0003580451011657715,0.015498273074626923,0.07219992578029633,0.011429810896515846,0.11545116454362869,-1.47808176991989,2.4083972517523016,2.4475198225442916
2.3264870643615723,-0.03128385543823242,0.016720294952392578,0.007079355418682098,0.18132410943508148,0.008933231234550476,0.13366080820560455,-1.4781945547290989,2.3899019931414505,2.428841526924875
2.3366010189056396,-0.02867206186056137,0.029726088047027588,0.0015692710876464844,0.25484171509742737,0.007283402606844902,0.1500333845615387,-1.4787995287632894,2.363018161715417,2.4017497036564897
2.3468360900878906,-0.027933351695537567,0.012645363807678223,0.010085463523864746,0.237219899892807,0.017824683338403702,0.1294986456632614,-1.4795342612018705,2.3350472511558844,2.373529515102596
2.3569400310516357,-0.03480000048875809,-0.016205787658691406,0.021437041461467743,0.19375072419643402,0.035231102257966995,0.12115416675806046,-1.4798329540467399,2.3149000256097354,2.3529758128148814
2.3670570850372314,-0.028152525424957275,-0.014482200145721436,0.018770214170217514,0.15541954338550568,0.033897481858730316,0.11521344631910324,-1.4801775501448324,2.2958116347191995,2.333427833064715
2.3774590492248535,-0.010236300528049469,0.007368564605712891,0.01704549789428711,0.1583000272512436,0.02692905254662037,0.12079250812530518,-1.48051406538811,2.2750948562588684,2.312308794544634
2.3869080543518066,0.0009452328085899353,0.02506864070892334,0.024132609367370605,0.15014459192752838,0.02589157409965992,0.12257283180952072,-1.4805151439691147,2.257590525574631,2.2944436663579584
2.3969011306762695,-2.928823232650757e-05,0.021535396575927734,0.03512107580900192,0.13228756189346313,0.02643778920173645,0.1005367711186409,-1.4804386540333014,2.2416770877723016,2.2781735703107637
2.4070239067077637,0.0021861493587493896,0.008273124694824219,0.036964889615774155,0.05984022468328476,0.024538688361644745,0.08551143109798431,-1.480296097124536,2.2305970709934306,2.266754332462922
2.416853904724121,0.014092132449150085,-0.0012217164039611816,0.032097697257995605,-0.06822080165147781,0.009912608191370964,0.050502579659223557,-1.4798346058818106,2.2281532525311216,2.2641354531376168
2.4268131256103516,0.017567336559295654,-0.01643049716949463,0.04055798053741455,-0.13418146967887878,0.02833191677927971,0.042493388056755066,-1.4787859275994752,2.2384073589995768,2.2741983543961783
2.4369192123413086,0.01130751520395279,-0.004558086395263672,0.031667351722717285,-0.09669961035251617,0.012709282338619232,0.0027233401779085398,-1.4777840636476052,2.252116667688791,2.2877107824229572
2.447352886199951,0.009798571467399597,0.01074683666229248,0.025156140327453613,-0.0653245821595192,0.004109580535441637,0.017607267946004868,-1.477125355965672,2.2627976570270496,2.2983168045828477
2.457267999649048,0.011775098741054535,0.02522909641265869,0.019075162708759308,-0.022909481078386307,-0.008060266263782978,0.01283408422023058,-1.4766201863737956,2.2673375837901433,2.3028822722194997
2.466623067855835,0.005255028605461121,0.008626103401184082,0.010689020156860352,-0.015215873718261719,-0.017021626234054565,0.026604171842336655,-1.4761483069915746,2.270679126248755,2.3063390339364713
2.476746082305908,-0.00011048465967178345,-0.007658541202545166,0.015523910522460938,0.028740132227540016,-0.0346677303314209,0.04577254131436348,-1.4755418106302085,2.272077756819799,2.3079794562784426
2.4867801666259766,3.7007033824920654e-05,-0.01136094331741333,0.001470804214477539,0.07452844083309174,-0.037011004984378815,0.04422806575894356,-1.4751645569659992,2.268967509021009,2.305172911498389
2.497951030731201,-0.010436691343784332,-0.019290804862976074,-0.012022022157907486,0.060629669576883316,-0.03984380513429642,0.06460976600646973,-1.474794941137526,2.262504973990235,2.2990240047636465
2.5074172019958496,-0.011030733585357666,-0.026836276054382324,-0.008408069610595703,-0.0207827128469944,-0.04168258607387543,0.07990552484989166,-1.473766603968746,2.260726855770276,2.297604722911126
2.516756057739258,-0.010476827621459961,-0.04702538251876831,-0.00910329818725586,-0.05177099257707596,-0.029640568420290947,0.06306076794862747,-1.4725318685690012,2.263015659709409,2.300214573217445
2.527060031890869,-0.022034190595149994,-0.0460471510887146,-0.0011628791689872742,-0.0033356959465891123,-0.02701154164969921,0.07207392156124115,-1.4715876016626601,2.2632682440327154,2.300725156369083
2.5369582176208496,-0.02068258821964264,-0.006111085414886475,-0.001475699245929718,0.04309971258044243,-0.0318843312561512,0.08670666068792343,-1.470933470410308,2.2575781212504396,2.2952805654186266
2.546910047531128,-0.014704778790473938,0.006587505340576172,-0.0015270859003067017,0.058139316737651825,-0.02779078297317028,0.09475649148225784,-1.470441818565624,2.2487629722686724,2.2867154339064113
2.5578200817108154,-0.02185267210006714,-0.005711972713470459,0.011602282524108887,0.07160958647727966,-0.02026122808456421,0.08802614361047745,-1.4699965446617123,2.240080887347748,2.278208220905727
2.5672130584716797,-0.02731046825647354,-0.001020193099975586,0.019663579761981964,0.10232416540384293,-0.02014853060245514,0.10752736032009125,-1.46977308822494,2.2277283017298366,2.265984483438527
2.577038049697876,-0.024367332458496094,0.016115665435791016,0.018703334033489227,0.1558246910572052,-0.02293606474995613,0.10217893123626709,-1.469920040142231,2.2102125104088963,2.2486182395644225
2.58693790435791,-0.02763105183839798,0.02160191535949707,0.016619086265563965,0.21358579397201538,-0.011552602984011173,0.10901015251874924,-1.4702936000916587,2.1891684626198846,2.227634286447287
2.5966880321502686,-0.033404745161533356,0.027531325817108154,0.020797371864318848,0.2821246385574341,-0.004298417828977108,0.11742148548364639,-1.4708137569942814,2.1631078667373886,2.201530119744508
2.6070361137390137,-0.031922630965709686,0.027072668075561523,0.03530311584472656,0.2645045518875122,-0.004398730583488941,0.09011416882276535,-1.4715897901950987,2.135251042945947,2.173560623702797
2.616827964782715,-0.03707887977361679,0.02412480115890503,0.06967974454164505,0.13157422840595245,-0.001570187509059906,0.11982519179582596,-1.4717746787765988,2.1141096089347013,2.1523257348837697
2.6269779205322266,-0.03995008021593094,-0.00038111209869384766,0.08833599090576172,0.018324293196201324,0.019551165401935577,0.07213059067726135,-1.4713146987713421,2.1049593406268716,2.1430267686403086
2.636807918548584,-0.05032966285943985,-0.004358410835266113,0.09408688545227051,0.0017314674332737923,0.03908252343535423,0.09477731585502625,-1.4706488893652823,2.1031898282063652,2.1409234741231007
2.646794080734253,-0.05319777876138687,0.06061398983001709,0.09921539574861526,0.09616678953170776,0.031195394694805145,0.16304494440555573,-1.4697338135859004,2.095236725968152,2.1325416523220406
2.656970977783203,-0.047827281057834625,0.08845633268356323,0.10612154006958008,0.19866706430912018,0.0014449548907577991,0.22907084226608276,-1.4687284166646606,2.075042589637564,2.1120432555883144
2.6668901443481445,-0.04039885848760605,0.008245408535003662,0.04022931680083275,0.1683366894721985,-0.03891036659479141,0.13503147661685944,-1.4679374898725959,2.050160492772337,2.087277282233451
2.676784038543701,-0.028235480189323425,-0.12551969289779663,-0.11424469947814941,0.05235576257109642,0.017018143087625504,-0.021251341328024864,-1.4680021245786075,2.0395538748451845,2.076726626861589
2.6867470741271973,-0.019299007952213287,-0.0918039083480835,-0.1972130537033081,0.05423663929104805,0.04560065269470215,-0.0007475577294826508,-1.4683598264861584,2.037201881044182,2.0739917779145745
2.696791172027588,0.0030715540051460266,0.02882617712020874,-0.13861489295959473,0.011440703645348549,0.016448095440864563,0.020267445594072342,-1.468418658924496,2.0340986335158213,2.070551567444365
2.7068850994110107,-0.0016712546348571777,0.037994205951690674,0.0025471486151218414,-0.09270913153886795,-0.0057930294424295425,0.03011981025338173,-1.4679964168861985,2.037011555000578,2.073438730696592
2.716775894165039,-0.01988435536623001,-0.01820361614227295,0.04229987412691116,-0.23186302185058594,0.020253485068678856,-0.009996449574828148,-1.467104771255376,2.051027290422195,2.0874611041768283
2.726807117462158,-0.03776358813047409,-0.0434381365776062,0.01183629035949707,-0.2989581823348999,0.06409621983766556,-0.042004771530628204,-1.4660432353390522,2.076792822246567,2.112935400314388
2.7369110584259033,-0.04026111215353012,-0.004943132400512695,0.012418515980243683,-0.24509042501449585,0.2160082459449768,-0.01923447661101818,-1.4649109608661461,2.103243643112853,2.138256672674609
2.7469239234924316,-0.03923223912715912,0.03525745868682861,0.007239934056997299,-0.18930397927761078,0.08847057819366455,-0.005842983722686768,-1.4638197344021404,2.1241621299358817,2.157084662269425
2.7575600147247314,-0.045444585382938385,0.021637141704559326,0.012046463787555695,-0.06834185868501663,-0.004015147220343351,-0.008244089782238007,-1.4633400559202165,2.133978300625612,2.1666776301253265
2.7672150135040283,0.027335166931152344,0.0057642459869384766,0.006806366145610809,0.02889251336455345,-0.006527306977659464,0.04039103910326958,-1.4632302459575162,2.133081677993242,2.1659552196673353
2.777365207672119,0.012787342071533203,0.03345078229904175,-0.024063237011432648,0.10996446013450623,0.031451500952243805,0.03538908809423447,-1.4633059246733324,2.124317811897726,2.1570583950404347
2.7871499061584473,-0.042617522180080414,0.009366214275360107,-0.016917698085308075,0.15861234068870544,0.08699487894773483,0.022285057231783867,-1.4637939165033862,2.1128242089269484,2.144872708074343
2.797300100326538,-0.045152463018894196,-0.01224440336227417,0.007409572601318359,0.16722527146339417,0.09234490245580673,0.0272971261292696,-1.4644050608224564,2.0995018507714653,2.130542789815146
2.8074820041656494,-0.01761191338300705,-0.012010514736175537,0.028006799519062042,0.1249498650431633,0.08325842022895813,0.023611310869455338,-1.4649353415133337,2.0870939118997356,2.117197154848085
2.817322015762329,-0.007307708263397217,-0.020653367042541504,0.028826721012592316,0.029388995841145515,0.10453840345144272,0.019791806116700172,-1.465140142096978,2.081094490113222,2.110241553340654
2.827172040939331,-0.01835080236196518,-0.027466893196105957,0.028215281665325165,0.018636764958500862,0.13621363043785095,0.015823056921362877,-1.4650706353730838,2.0802508037111367,2.108153774915977
2.8370840549468994,-0.02288421243429184,-0.011703729629516602,0.025954842567443848,0.09397865831851959,0.13567781448364258,0.019714467227458954,-1.4652080767949272,2.077015636251809,2.10352241043054
2.8472418785095215,-0.011307306587696075,0.010904192924499512,0.017901547253131866,0.18375812470912933,0.12834973633289337,0.03904230520129204,-1.4655525488698982,2.0658605751608907,2.0909773431929017
2.8570830821990967,-0.0035473331809043884,0.023417532444000244,0.011196859180927277,0.2682186961174011,0.1273348033428192,0.05156954750418663,-1.466270361364044,2.0436603084712845,2.0673880801047373
2.8671040534973145,-0.007104106247425079,0.013701677322387695,0.011920571327209473,0.3052704930305481,0.1278494894504547,0.05342204496264458,-1.4674070953358807,2.017646460438851,2.039950227904163
2.877347946166992,-0.01031242311000824,0.0008378028869628906,0.004579901695251465,0.3079184591770172,0.13022689521312714,0.0642123743891716,-1.4683053244663176,1.993537779559283,2.0143826137688805
2.8873291015625,-0.004981443285942078,-0.0008955001831054688,-0.02171170711517334,0.3543230891227722,0.1354518085718155,0.06327254325151443,-1.468842435426044,1.9700551545195653,1.9893660683652248
2.899412155151367,-0.0021574199199676514,0.011450529098510742,-0.03749358654022217,0.4958930015563965,0.14329135417938232,0.07607275992631912,-1.4695780213514804,1.9368358234989818,1.954500841054027
2.9076309204101562,-0.003016352653503418,0.04390925168991089,-0.025000695139169693,0.7620058655738831,0.1532343626022339,0.12221170961856842,-1.4706070380235998,1.8822063565432325,1.8980539131145693
2.917372226715088,-0.006489954888820648,0.08084535598754883,-0.00037956424057483673,1.122787356376648,0.16557198762893677,0.18774251639842987,-1.4715824025321784,1.7891008569436517,1.802884746359892
2.927341938018799,-0.012149825692176819,0.1084241271018982,0.018136262893676758,1.5373950004577637,0.1938607394695282,0.26032793521881104,-1.4713652215520139,1.6553516611502226,1.6666781269042046
2.9374351501464844,-0.019018471240997314,0.1133074164390564,0.026397109031677246,1.9194308519363403,0.2274610549211502,0.3109080195426941,-1.468482875229994,1.4858415158016767,1.4941834618605145
2.947287082672119,-0.02577803283929825,0.09668862819671631,0.028991222381591797,2.2336931228637695,0.2670905292034149,0.3360305428504944,-1.4615641126892795,1.3001678686347211,1.3049895923177088
2.957520008087158,-0.0312933474779129,0.06763166189193726,0.030798792839050293,2.454796314239502,0.29865190386772156,0.3498006761074066,-1.4500315956072636,1.1224419792930782,1.1232382756910957
2.967341899871826,-0.028500795364379883,0.044198036193847656,0.044853031635284424,2.6455492973327637,0.30278459191322327,0.3740925192832947,-1.4340753828765538,0.9687643309980568,0.9652471418679964
2.977273941040039,-0.018668286502361298,0.0410730242729187,0.07380439341068268,2.8803720474243164,0.28109633922576904,0.42390161752700806,-1.4138227042783642,0.8412356218466286,0.8333808336980882
2.9872519969940186,-0.011296510696411133,0.05332756042480469,0.09750133752822876,3.1540019512176514,0.25774839520454407,0.4904244542121887,-1.3892636079120204,0.7372985529127642,0.7252118711561916
2.9978551864624023,-0.017452865839004517,0.04857414960861206,0.09583063423633575,3.403053045272827,0.2592107653617859,0.5509772896766663,-1.360679667720645,0.653905742211553,0.6375908776164717
3.008150100708008,-0.02684760093688965,0.033448100090026855,0.08848682045936584,3.626772165298462,0.27035287022590637,0.592843770980835,-1.3286454324626567,0.5877257278655004,0.5669713633074729
3.0173490047454834,-0.031046271324157715,0.013144135475158691,0.0974295437335968,3.758164167404175,0.1328304558992386,0.645736813545227,-1.2940650776836027,0.5355711656139014,0.5106414805000695
3.027550220489502,-0.022864460945129395,-0.015566051006317139,0.13134127855300903,3.721651077270508,0.3060424327850342,0.6052700877189636,-1.2581066849241025,0.4947602335939458,0.4655315700858722
3.037693977355957,-0.0294201523065567,-0.0021472573280334473,0.09220075607299805,3.7335729598999023,0.336061030626297,0.5835272669792175,-1.2221780668822,0.46296220239147984,0.42857787666763353
3.0502519607543945,-0.04080851376056671,-0.018648743629455566,0.15447959303855896,3.587449789047241,0.3281852602958679,0.5832836031913757,-1.1865891086160643,0.4384460416461516,0.3986907366445248
3.060089111328125,-0.0233505517244339,-0.057485997676849365,0.16337743401527405,3.3569071292877197,0.3295533359050751,0.5609441995620728,-1.1525284500098583,0.4198771006705841,0.3749763176439093
3.067462921142578,-0.019201859831809998,-0.0910528302192688,0.14344161748886108,3.0579779148101807,0.3330170214176178,0.5158734321594238,-1.1208852916350422,0.40601654206522203,0.3560486084379165
3.07747220993042,-0.015088856220245361,-0.12947863340377808,0.10105615854263306,2.6701414585113525,0.3613099157810211,0.43271946907043457,-1.0925973213680034,0.39588608399322367,0.34085678083839926
3.0873990058898926,-0.019103124737739563,-0.1445903182029724,0.06423521041870117,2.261439323425293,0.4111137092113495,0.3408079147338867,-1.068307338065318,0.38873896158475646,0.3283758508780884
3.097576141357422,-0.027104750275611877,-0.13290387392044067,0.0384555459022522,1.9100749492645264,0.4428125023841858,0.2925269305706024,-1.0478127066872283,0.38424631022375183,0.3182923449653538
3.107769012451172,-0.022641420364379883,-0.10013723373413086,0.043660521507263184,1.6237431764602661,0.45112302899360657,0.2663094699382782,-1.0304047068619209,0.38190795900923985,0.31037759418961774
3.1175689697265625,-0.016870170831680298,-0.06843411922454834,0.04635566473007202,1.4079618453979492,0.4526442289352417,0.26199328899383545,-1.0153858927411294,0.38121082730914563,0.3042466403862574
3.1275110244750977,-0.0176449716091156,-0.04351937770843506,0.042990803718566895,1.320444107055664,0.4544108510017395,0.2689738869667053,-1.001822525014927,0.3816372307973676,0.29940082015369246
3.1375131607055664,-0.021580368280410767,-0.024209916591644287,0.04681873321533203,1.3613989353179932,0.45834434032440186,0.2913742661476135,-0.9883562476295671,0.38254027524035905,0.29501919656883413
3.147594928741455,-0.0245494544506073,0.0035098791122436523,0.04237854480743408,1.4527859687805176,0.44264623522758484,0.3020481467247009,-0.9742037605947323,0.3833545084688288,0.29055966933904503
3.1590590476989746,-0.025713413953781128,0.0120125412940979,0.03980773687362671,1.644575595855713,0.4349640905857086,0.29926541447639465,-0.9587560413054201,0.3834314216690559,0.28532506945537695
3.1675491333007812,-0.031431302428245544,-0.0008605718612670898,0.019554316997528076,1.872829556465149,0.45005249977111816,0.28639423847198486,-0.9413274804929296,0.38245754218938327,0.27870308618855333
3.177833080291748,-0.040096670389175415,0.019002795219421387,-0.007119655609130859,2.1539738178253174,0.4823739528656006,0.28679823875427246,-0.9215653118300136,0.38058171098912685,0.2705498284530478
3.187654972076416,-0.03679777681827545,0.04722875356674194,-0.026624441146850586,2.367428779602051,0.4969843924045563,0.2987806499004364,-0.8993793044858557,0.37815895426969565,0.26126572909227813
3.197665214538574,-0.022403016686439514,0.05799955129623413,-0.029053688049316406,2.4360203742980957,0.5045568346977234,0.3096831142902374,-0.8757908730029317,0.3757239898363678,0.25167645892299584
3.2077150344848633,-0.014505937695503235,0.04217427968978882,-0.019375145435333252,2.351057529449463,0.5407432913780212,0.2957897186279297,-0.8522952888837269,0.3739498883441035,0.2424915814878319
3.2176599502563477,-0.021483078598976135,0.003955543041229248,-0.010275721549987793,2.187345504760742,0.5960851311683655,0.25538158416748047,-0.8301062056918218,0.3732522541003032,0.23391109251425232
3.2276649475097656,-0.03462791442871094,-0.018603086471557617,-0.002927541732788086,1.9712159633636475,0.6493930816650391,0.19903512299060822,-0.8098514299107661,0.3736223354968234,0.22587602253067485
3.237771987915039,-0.03615790605545044,-0.02139049768447876,0.006675243377685547,1.7185778617858887,0.6803176999092102,0.1479804515838623,-0.7920211197261162,0.3749769784531918,0.2184816363601098
3.247730016708374,-0.024361640214920044,-0.013802409172058105,0.015223503112792969,1.4532536268234253,0.6744983792304993,0.11072565615177155,-0.7767519970110268,0.37716295662723764,0.21193426827900988
3.2577550411224365,-0.002379119396209717,-0.005254268646240234,0.028476238250732422,1.2433078289031982,0.6521301865577698,0.09119083732366562,-0.7639268013913992,0.3798870215948409,0.20631692251854422
3.2677478790283203,0.01904281973838806,0.028026998043060303,0.03973233699798584,1.1768431663513184,0.6260617971420288,0.11002737283706665,-0.7523662897889338,0.3829253295550434,0.20140421377477144
3.2777609825134277,0.026591777801513672,0.058664798736572266,0.031078577041625977,1.2362425327301025,0.5486794114112854,0.1285049170255661,-0.7407898108317701,0.3856857384708348,0.19679326662630045
3.2876901626586914,0.01985129714012146,0.04470705986022949,0.02500903606414795,1.3200371265411377,0.4973093867301941,0.12783503532409668,-0.7284470977421668,0.38764569295619405,0.19191693993453385
3.2977850437164307,0.007059007883071899,0.02934396266937256,0.004805505275726318,1.4050968885421753,0.4786672592163086,0.1168859675526619,-0.7153509964716491,0.38893354546993014,0.18652188261387243
3.307709217071533,-0.010047674179077148,0.019824564456939697,-0.012524425983428955,1.4557338953018188,0.4847549796104431,0.12245618551969528,-0.7016235418655747,0.39005919820494667,0.18080703606257437
3.317807197570801,-0.014265686273574829,-0.0055217742919921875,-0.018804550170898438,1.419620156288147,0.46821969747543335,0.118555448949337,-0.687781607064447,0.391183044051197,0.1751081095604051
3.327824115753174,-0.01123124361038208,-0.0320734977722168,-0.00699007511138916,1.3166582584381104,0.4628642797470093,0.09785321354866028,-0.6746813317809849,0.39238792825597113,0.16965371910447016
3.3401780128479004,-0.016773700714111328,-0.06606113910675049,0.008432269096374512,1.1666991710662842,0.49412232637405396,0.06569340825080872,-0.6628455184686513,0.39398748166861064,0.1645309382628175
3.3479042053222656,-0.033189743757247925,-0.0975157618522644,0.01739966869354248,0.9487676620483398,0.528045654296875,0.03327837586402893,-0.6528454368092965,0.39629822885696103,0.15994818829124852
3.3579001426696777,-0.048385828733444214,-0.11910057067871094,0.03713679313659668,0.7006753087043762,0.584299623966217,0.03400834649801254,-0.645138143207454,0.39965523723606405,0.15629345391198632
3.3679771423339844,-0.04704040288925171,-0.1202017068862915,0.05740654468536377,0.5498687624931335,0.632530689239502,0.06679046899080276,-0.6392342695104261,0.4042758815968174,0.15382457016251136
3.3777241706848145,-0.034820348024368286,-0.07246208190917969,0.0685502290725708,0.5412542223930359,0.6426970958709717,0.12291073054075241,-0.6339654044871653,0.40974952629229683,0.1522519545176938
3.3896260261535645,-0.025298655033111572,0.02110975980758667,0.06182217597961426,0.7179502844810486,0.6319195628166199,0.20551958680152893,-0.6276294209109801,0.4154172413102249,0.15102150907766745
3.398015022277832,-0.014220982789993286,0.07326745986938477,0.04602104425430298,1.0150681734085083,0.5893004536628723,0.29857417941093445,-0.6187186193699378,0.42069436800846666,0.14955622704324034
3.407952070236206,-0.003809601068496704,0.09041166305541992,0.018400907516479492,1.4466748237609863,0.5347772836685181,0.36832764744758606,-0.6062135600533627,0.42495523956672887,0.1471710293632879
3.4180500507354736,0.006331056356430054,0.10242187976837158,-0.026039183139801025,1.9163457155227661,0.4670725166797638,0.4264252781867981,-0.5892106970322872,0.42769454402684864,0.14312251801985335
3.428316116333008,0.017699718475341797,0.12269055843353271,-0.05903339385986328,2.3628978729248047,0.38856324553489685,0.48057055473327637,-0.567827036102372,0.42885098460882465,0.1374118638661762
3.4398601055145264,0.027834653854370117,0.12449115514755249,-0.06874722242355347,2.7097244262695312,0.323960542678833,0.5322843790054321,-0.5425090524951424,0.42867741398919423,0.13035914261900047
3.4481801986694336,0.025530636310577393,0.0959826111793518,-0.06468349695205688,2.9038803577423096,0.3074289560317993,0.5648656487464905,-0.5146128708993641,0.4278831842697212,0.12261121969250949
3.4586410522460938,0.004026353359222412,0.06290090084075928,-0.03944295644760132,2.9956960678100586,0.33282220363616943,0.5913723707199097,-0.4852465385350364,0.42726719820777,0.11462487550463818
3.4682822227478027,-0.02327445149421692,0.03823387622833252,-0.0052223801612854,2.9532699584960938,0.3444003164768219,0.5890219807624817,-0.455623544949419,0.4271095219911114,0.10680371162274038
3.47805118560791,-0.03807529807090759,0.016179978847503662,0.0326576828956604,2.8079965114593506,0.3650800287723541,0.579068660736084,-0.4269063966072734,0.427515481991805,0.09945488559770987
3.4896421432495117,-0.035847365856170654,-0.009089291095733643,0.04122990369796753,2.5813088417053223,0.3869479298591614,0.5579785108566284,-0.3999296560262663,0.4286538752457551,0.09286808817953797
3.4980359077453613,-0.026965349912643433,-0.020244747400283813,0.044733643531799316,2.37367582321167,0.3994602560997009,0.5276027321815491,-0.3751922265234485,0.43037200632222256,0.08707683688501537
3.507996082305908,-0.018872380256652832,-0.02530217170715332,0.03589266538619995,2.1843743324279785,0.3953864276409149,0.5136991143226624,-0.3522921247179993,0.4325350856616309,0.0819198442362847
3.518012046813965,-0.01359623670578003,-0.009631335735321045,0.028499186038970947,2.0334696769714355,0.37783992290496826,0.4973129332065582,-0.3310116940193832,0.43490639140155896,0.07738638887153833
3.528046131134033,-0.007874369621276855,0.0091838538646698,0.027146637439727783,1.9218761920928955,0.3406291604042053,0.481945276260376,-0.31102243661829243,0.43720254685256366,0.07324784509817706
3.5395851135253906,0.0010466575622558594,0.019873112440109253,0.020948290824890137,1.8185436725616455,0.2960411608219147,0.4664478003978729,-0.2920456925296484,0.4392608199725564,0.06943390668260421
3.54809308052063,0.004579633474349976,0.018754661083221436,0.018732905387878418,1.6707104444503784,0.2479402720928192,0.44395315647125244,-0.274251637699968,0.4410113654881749,0.0659590528612739
3.5581560134887695,0.004268288612365723,-0.0006771087646484375,0.01879405975341797,1.4732519388198853,0.2184324413537979,0.4101134240627289,-0.2581742841567445,0.44254914650778093,0.06299672044518947
3.5681920051574707,-0.0018145740032196045,-0.023135289549827576,0.014484524726867676,1.2637174129486084,0.21517695486545563,0.37229594588279724,-0.24410392869444997,0.44410736169513343,0.06056287302679167
3.5781490802764893,-0.011277318000793457,-0.03479465842247009,0.010404646396636963,1.034818172454834,0.21088819205760956,0.3336747884750366,-0.23218779633404618,0.4458097111825144,0.05874842197079317
3.590034008026123,-0.01709359884262085,-0.03567604720592499,0.012029170989990234,0.8038504123687744,0.20435012876987457,0.28927555680274963,-0.22256762758318707,0.44761199199481055,0.057559213154412925
3.598299980163574,-0.015968739986419678,-0.04067358374595642,0.010359525680541992,0.644953727722168,0.21270020306110382,0.2632458209991455,-0.21488514847715345,0.44955319109907677,0.056904857164611786
3.6082630157470703,-0.017055094242095947,-0.030438050627708435,0.004161834716796875,0.5562739968299866,0.18039566278457642,0.2548384964466095,-0.2083802034286636,0.45148111492394116,0.056624371739507594
3.618149995803833,-0.015456616878509521,0.0007446110248565674,0.00699770450592041,0.5166637301445007,0.13534696400165558,0.24659095704555511,-0.2024793408698863,0.45305405323915565,0.05654717620459923
3.6282949447631836,-0.010666817426681519,0.022394031286239624,0.0005857348442077637,0.5153815150260925,0.09337172657251358,0.23550476133823395,-0.19679988409397378,0.4541754692294686,0.056460573555953825
3.6394290924072266,-0.010545790195465088,0.01899510622024536,-0.010485649108886719,0.5397462248802185,0.07383983582258224,0.23529650270938873,-0.19099580273903788,0.45496964878796453,0.05624062692034579
3.648236036300659,-0.0171470046043396,0.013440966606140137,-0.01590794324874878,0.5212624669075012,0.058371931314468384,0.22728241980075836,-0.1851864864464778,0.45558044328358344,0.05598501237063667
3.6581780910491943,-0.029808223247528076,0.010673612356185913,-0.01146388053894043,0.4688788950443268,0.0586523599922657,0.214981809258461,-0.179745837250154,0.45610377004032887,0.05577160072498852
3.6681718826293945,-0.03666961193084717,-0.0025674551725387573,-0.010608196258544922,0.40059030055999756,0.07913623750209808,0.20000764727592468,-0.1749056166687721,0.4567773674811119,0.05570766774968843
3.6782751083374023,-0.0431327223777771,-0.017571046948432922,-0.0036937594413757324,0.3056070804595947,0.09156574308872223,0.18070638179779053,-0.17089804023973462,0.4576685008660901,0.05585785570193629
3.6902499198913574,-0.04890865087509155,-0.02629445493221283,0.01055210828781128,0.22480452060699463,0.10153710842132568,0.15712381899356842,-0.167781843958258,0.45869213731596575,0.05621720117988189
3.6982810497283936,-0.04948103427886963,-0.019840985536575317,0.016770660877227783,0.18837407231330872,0.10977666079998016,0.15071839094161987,-0.16527624112111874,0.45983912390884474,0.05669028085761054
3.708220958709717,-0.04786038398742676,0.006353005766868591,0.01122504472732544,0.21516288816928864,0.11076381057500839,0.15303540229797363,-0.16283795148739463,0.4610163846827703,0.05718216290112465
3.7182822227478027,-0.04392001032829285,0.0239449143409729,0.0018953680992126465,0.2959219217300415,0.10340496152639389,0.1705068051815033,-0.15984029836246605,0.4621509657342927,0.05748668324379886
3.728322982788086,-0.037243276834487915,0.040657296776771545,-0.004818081855773926,0.37492430210113525,0.08469900488853455,0.18969088792800903,-0.15605071969398362,0.4631178544327665,0.057622223315604265
3.7401561737060547,-0.030757009983062744,0.061878472566604614,-0.0029108524322509766,0.462473601102829,0.06871524453163147,0.21985331177711487,-0.15137597546831805,0.46387644562758107,0.05755837735308901
3.748663902282715,-0.02896559238433838,0.06760823726654053,-0.0012935996055603027,0.5774897933006287,0.07037071883678436,0.2571641802787781,-0.1456749985802141,0.4645466855358768,0.057360787188655823
3.758284091949463,-0.03014582395553589,0.06417959928512573,0.0020329952239990234,0.6464837789535522,0.049982085824012756,0.2858317792415619,-0.13896498887673314,0.465122455503018,0.05706909591742759
3.768306016921997,-0.028360873460769653,0.06295353174209595,0.007940053939819336,0.7336171865463257,0.017785800620913506,0.2994454503059387,-0.13145550845183068,0.46540255455704427,0.056563624239099275
3.778374195098877,-0.01954302191734314,0.049844786524772644,0.002766430377960205,0.8096997141838074,-0.015813972800970078,0.31894591450691223,-0.12318071840008117,0.4653201724171041,0.0558532995785865
3.789712905883789,-0.009228825569152832,0.04529953747987747,0.0006659030914306641,0.9336116909980774,-0.0363445021212101,0.35632529854774475,-0.1138512898520906,0.4649526158213688,0.05494381612047719
3.7985680103302,-0.006063103675842285,0.05745205283164978,-0.012782037258148193,1.101745843887329,-0.05382096394896507,0.412899911403656,-0.10308503303675215,0.4643911851417599,0.05382930361872843
3.808454990386963,-0.005007803440093994,0.09159208089113235,-0.01782548427581787,1.284717321395874,-0.11930818855762482,0.4621884524822235,-0.09038516949824453,0.46341186116119,0.052384923385292874
3.8183610439300537,0.0019145607948303223,0.09091455489397049,-0.00745624303817749,1.3464688062667847,-0.2111281156539917,0.4827459156513214,-0.07639606268734443,0.46161981534820873,0.05069552719558055
3.828434944152832,0.009481638669967651,0.04537837952375412,0.0031081438064575195,1.2757960557937622,-0.27808088064193726,0.4663662016391754,-0.06241971101671396,0.4590224072904493,0.04911273537258507
3.8402600288391113,0.003146737813949585,-0.02048400044441223,0.007848024368286133,1.0772407054901123,-0.28013870120048523,0.4009680151939392,-0.049893123534179976,0.4561060521546239,0.04779847903646634
3.85079288482666,-0.022209584712982178,-0.07549542188644409,0.010712802410125732,0.8601802587509155,-0.218664288520813,0.32934966683387756,-0.0395865664882692,0.4535468090623733,0.0468020109393868
3.8607139587402344,-0.046504825353622437,-0.08598065376281738,0.0030665993690490723,0.7064197063446045,-0.14776241779327393,0.2814721465110779,-0.03129826399719967,0.4516757328742362,0.046140942739583045
3.8685100078582764,-0.05242970585823059,-0.0455695241689682,-0.004044950008392334,0.6440771818161011,-0.1279860883951187,0.2831156253814697,-0.023980633498142938,0.4503446229778008,0.04574838464892217
3.878437042236328,-0.037742286920547485,0.0045410506427288055,-0.006688475608825684,0.6355934143066406,-0.13882862031459808,0.25720706582069397,-0.01709674420687125,0.44899597131402275,0.04544203281835328
3.889525890350342,-0.02189388871192932,0.012814484536647797,-0.011538267135620117,0.6499921679496765,-0.1390414983034134,0.23982872068881989,-0.010180687109515717,0.4476019837227003,0.04487574878093008
3.898725986480713,-0.021320223808288574,0.005927215330302715,-0.017931044101715088,0.6110373139381409,-0.12023478746414185,0.21872690320014954,-0.003456947035993017,0.44628390718386307,0.04420191897554891
3.9085850715637207,-0.02924218773841858,-0.008070698007941246,-0.010748028755187988,0.5091112852096558,-0.08678557723760605,0.18234685063362122,0.0025189033699164224,0.44523702420338457,0.04359543063474428
3.9187090396881104,-0.03624624013900757,-0.04063874110579491,-0.0007538795471191406,0.3554828464984894,-0.04274940490722656,0.13036701083183289,0.007121326926214772,0.44458859745656243,0.04313014656113371
3.928915023803711,-0.03922086954116821,-0.053160712122917175,0.013595640659332275,0.17438821494579315,-0.005707452539354563,0.08042249828577042,0.009965060571079251,0.4443456912735254,0.04294062808965577
3.9396629333496094,-0.03509640693664551,-0.05001254379749298,0.021293163299560547,-0.006579709239304066,0.01730385608971119,0.03947959840297699,0.01097705480529232,0.44441328894259796,0.043116464925086403
3.9488260746002197,-0.02674633264541626,-0.05019664019346237,0.01994377374649048,-0.1671372950077057,0.03849054500460625,-0.0034155123867094517,0.010258858000222547,0.4446931203079466,0.043666542065060716
3.9588451385498047,-0.021603137254714966,-0.05748600512742996,0.011347651481628418,-0.27834904193878174,0.05885680392384529,-0.04767218977212906,0.008096357146555013,0.44517281310723644,0.04441450184395231
3.9685702323913574,-0.01988944411277771,-0.04913951829075813,0.004999518394470215,-0.292534202337265,0.07734309136867523,-0.0741187110543251,0.005197052944671039,0.445851670409507,0.04510958220409256
3.978748083114624,-0.01786866784095764,-0.019995661452412605,-0.0013714432716369629,-0.2172575742006302,0.07786001265048981,-0.07613977789878845,0.0025263127263990925,0.446634399334546,0.04553877511957403
3.9922900199890137,-0.011103063821792603,0.01500270888209343,-0.014009594917297363,-0.13277915120124817,0.057935528457164764,-0.072665736079216,0.0006289296643600561,0.4473201658273887,0.04563708148418654
4.000529050827026,-0.00015163421630859375,0.023820504546165466,-0.018595993518829346,-0.057183198630809784,0.04128304868936539,-0.0771997720003128,-0.0005477834054564103,0.44779893434518053,0.04537140732639391
4.008533954620361,0.0009702146053314209,0.0033302265219390392,-0.01909714937210083,-0.019785791635513306,0.038157738745212555,-0.07664195448160172,-0.0012016344050497154,0.44817971741181006,0.0448310028258134
4.01855993270874,-0.006910949945449829,0.0026246560737490654,-0.01370096206665039,-0.020464366301894188,0.04073035344481468,-0.07335827499628067,-0.001678324214784591,0.44857799035912227,0.0442337757583077
4.0287041664123535,-0.012075543403625488,0.00014816061593592167,-0.0029031038284301758,-0.04651637002825737,0.045759111642837524,-0.07863601297140121,-0.0023085062744721734,0.44900987927734887,0.043693098002691735
4.039653062820435,-0.01361769437789917,-0.013652496039867401,0.004264771938323975,-0.08832880109548569,0.04564778879284859,-0.08638634532690048,-0.0032612667914848816,0.44946969320433333,0.04323815808870568
4.048728942871094,-0.014168649911880493,-0.015023074112832546,0.009508252143859863,-0.13090884685516357,0.04656294360756874,-0.10081173479557037,-0.003945204396434762,0.44982848608972126,0.04287004151697562
4.05872917175293,-0.014840006828308105,-0.0157364159822464,0.011833012104034424,-0.16957661509513855,0.041766054928302765,-0.11702293157577515,-0.005421501667326135,0.45018761368813165,0.04253541897034178
4.068665981292725,-0.011509060859680176,-0.014228250831365585,0.00773310661315918,-0.21707849204540253,0.03370324894785881,-0.1236303374171257,-0.007773861486989525,0.4504952317402828,0.042292494268219405
4.078834056854248,-0.008196860551834106,-0.011373980902135372,0.005541622638702393,-0.24822309613227844,0.030181482434272766,-0.13100570440292358,-0.010626500830811073,0.45077800814536606,0.042162974051846075
4.089694023132324,-0.008311182260513306,-0.009393204934895039,-0.0014584660530090332,-0.21500833332538605,0.026408184319734573,-0.12278477847576141,-0.01319302617276042,0.45102155533653066,0.04204884850083379
4.099453926086426,-0.007879137992858887,0.007000722922384739,-0.00948244333267212,-0.15209302306175232,0.0022858036682009697,-0.11054089665412903,-0.015201400419128111,0.45109784505480266,0.041799072610682136
4.1102399826049805,-0.00170937180519104,0.026695463806390762,-0.009611070156097412,-0.054338742047548294,-0.030831536278128624,-0.09698391705751419,-0.016396090876613967,0.4508637746852319,0.041316048591805266
4.119101047515869,0.006098240613937378,0.028126804158091545,-0.016975820064544678,0.022673219442367554,-0.060682907700538635,-0.07696307450532913,-0.016353294411198146,0.45029248859999227,0.040582638821405455
4.130925178527832,0.007172048091888428,0.03073345310986042,-0.02013009786605835,0.058046985417604446,-0.08136919140815735,-0.06408189237117767,-0.015562340506055799,0.44946657607539414,0.03975013077286645
4.14038610458374,0.0010048151016235352,0.022014286369085312,-0.011023461818695068,0.03652598336338997,-0.08639990538358688,-0.058803778141736984,-0.014729409699437139,0.44851489126523364,0.03898344700059868
4.148967027664185,-0.00771293044090271,0.005351538769900799,-0.0065250396728515625,-0.004029832314699888,-0.07111877202987671,-0.05523471534252167,-0.014302269385397309,0.44765391203010607,0.038390277201600424
4.1589531898498535,-0.015029579401016235,-0.006470563821494579,-0.005993187427520752,-0.039287418127059937,-0.05908501520752907,-0.05889682471752167,-0.014390372830208541,0.4469860162001154,0.03797452628032657
4.168920040130615,-0.012766867876052856,-0.010916764847934246,0.0022989511489868164,-0.045344531536102295,-0.060844432562589645,-0.05793984606862068,-0.014793037556892569,0.44635787842698615,0.03763006785785985
4.179002046585083,-0.007161736488342285,0.0015389779582619667,0.010683596134185791,-0.014592212624847889,-0.0709007978439331,-0.05246997997164726,-0.015475188491287761,0.4456466690805256,0.0372648852140966
4.1900529861450195,-0.007432878017425537,0.016747400164604187,0.012891709804534912,0.018728960305452347,-0.07488079369068146,-0.04366423934698105,-0.016273336848757466,0.4449216962944198,0.036825696447786896
4.198934078216553,-0.009908854961395264,0.01591767556965351,0.015483081340789795,0.04550571367144585,-0.06885965913534164,-0.037860944867134094,-0.016752176052587355,0.4442369154816615,0.036311217463105956
4.208898067474365,-0.012590527534484863,0.009182142093777657,0.020514607429504395,0.035595059394836426,-0.05816245079040527,-0.03351658210158348,-0.01715536985839001,0.4436275075946356,0.03581300001413219
4.218914031982422,-0.01827460527420044,0.006858376786112785,0.02270042896270752,0.02755737118422985,-0.03199608996510506,-0.030714139342308044,-0.017419237923661905,0.4431821363770528,0.0353954600499552
4.228941917419434,-0.01974049210548401,-0.005598336458206177,0.019726455211639404,0.013395264744758606,-0.01100909523665905,-0.03642715513706207,-0.017409518180851655,0.4429298422068031,0.035004087311104465
4.239889144897461,-0.016818523406982422,-0.008790340274572372,0.02448028326034546,-0.005093998275697231,-0.007226608227938414,-0.04404645413160324,-0.017336131373140638,0.44273508654696314,0.03461720408590718
4.249002933502197,-0.011114031076431274,-0.00397130660712719,0.028519749641418457,-0.018742915242910385,0.0018875726964324713,-0.04661518335342407,-0.017369397959175362,0.4426365673007624,0.03424797134017463
4.2589640617370605,-0.008130550384521484,-0.00343332439661026,0.02174997329711914,-0.03213009238243103,0.013161798939108849,-0.04970870912075043,-0.01779278469288765,0.44271569564045493,0.03391786935464757
4.268984079360962,-0.007692843675613403,-0.0057265013456344604,0.01830911636352539,-0.04885128512978554,0.024592885747551918,-0.056376732885837555,-0.01865177668153115,0.4429142016936307,0.033620693503797074
4.279038906097412,-0.005655527114868164,-0.007508136332035065,0.01613450050354004,-0.03891769424080849,0.03911004215478897,-0.05949662625789642,-0.019533304010144775,0.44321751482312316,0.03329390527738922
4.290184020996094,-0.001237720251083374,-0.003186047077178955,0.008321940898895264,-0.01344820111989975,0.03655531629920006,-0.05418233945965767,-0.020094136079985433,0.44358561518472833,0.0328950144929651
4.298964977264404,0.003969311714172363,0.0057912953197956085,0.003570258617401123,0.008347641676664352,0.03125189617276192,-0.05150240287184715,-0.02039420088152838,0.4438715929785749,0.0324338456505986
4.309607028961182,0.006327778100967407,0.005323396995663643,0.0012108087539672852,0.050329480320215225,0.03921980783343315,-0.04735473915934563,-0.020266980965658227,0.444148151304677,0.031864364735172505
4.319077968597412,0.006369948387145996,0.0006830189377069473,-0.005937099456787109,0.06197468563914299,0.0409143790602684,-0.048606693744659424,-0.019810831571025627,0.44450273575995813,0.03117853046519072
4.329255104064941,0.006376445293426514,0.006576422601938248,0.0007048845291137695,0.05811852961778641,0.032257772982120514,-0.046080417931079865,-0.01941051383129649,0.44486372469423796,0.030493579653963262
4.340480089187622,0.007554829120635986,0.0017549209296703339,0.007860779762268066,0.04207591339945793,0.0315118208527565,-0.04978487640619278,-0.019089744262000826,0.4451613133936653,0.02984862908115491
4.34914493560791,0.006200879812240601,-0.010887499898672104,0.008465886116027832,0.00940508209168911,0.03232550621032715,-0.05858651548624039,-0.019006318782846598,0.44546037652919684,0.029237785941008176
4.360166072845459,-0.001782238483428955,-0.013138748705387115,0.014042377471923828,-0.03181612491607666,0.03707711771130562,-0.06280922144651413,-0.019273975499269513,0.4457873058416542,0.02874426516628381
4.369086027145386,-0.0041099488735198975,-0.01869272254407406,0.013903796672821045,-0.0380045585334301,0.0457271970808506,-0.06684786081314087,-0.019853694943585597,0.44619107889849524,0.028331026726604022
4.379144191741943,-0.007098078727722168,-0.020764918997883797,0.00760495662689209,-0.02791384421288967,0.04949557036161423,-0.067128024995327,-0.02053748116655742,0.44668549016470405,0.027868927145658445
4.389750003814697,-0.007582515478134155,-0.006969654932618141,0.007254421710968018,0.0034691300243139267,0.05024218559265137,-0.05680438131093979,-0.021009286108717124,0.4471936997271458,0.027362366388794326
4.399113178253174,-0.003593266010284424,0.004917476326227188,-0.0023693442344665527,0.04189002141356468,0.04943817853927612,-0.04453812912106514,-0.021008750688941497,0.447677122367573,0.02680662187751141
4.409239053726196,-0.0018095076084136963,0.004931658506393433,-0.005996108055114746,0.05261360481381416,0.045991960912942886,-0.03561164066195488,-0.020811420462475982,0.4481679027810716,0.026234897637647747
4.419291019439697,-0.00513690710067749,0.002664254978299141,-0.0004096031188964844,0.06420155614614487,0.0485033243894577,-0.025604810565710068,-0.0204237138613759,0.4486732562604778,0.025704558699243978
4.429327964782715,-0.004990577697753906,-0.002418728545308113,-0.002456963062286377,0.056861598044633865,0.0487402081489563,-0.022674161940813065,-0.01976926057657878,0.44919899655817047,0.025214161245951897
4.439748048782349,-0.005233407020568848,-0.003298696130514145,0.0049713850021362305,0.03786740079522133,0.04356835037469864,-0.016613606363534927,-0.019199533558198575,0.4496497055553597,0.024828194743395027
4.449296951293945,-0.006795525550842285,-0.004320846870541573,0.007985711097717285,0.038317423313856125,0.046329203993082047,-0.010762268677353859,-0.01861940870310075,0.4500744238493146,0.02454473214574189
4.4592390060424805,-0.008818179368972778,-0.003307962790131569,0.005521059036254883,0.039767783135175705,0.04088969901204109,-0.0022271035704761744,-0.017972627001665187,0.450468009315131,0.02431769023324756
4.469139099121094,-0.007594674825668335,0.0017489362508058548,-0.0003930330276489258,0.03612725809216499,0.03351234272122383,0.0007507367990911007,-0.017569595396009705,0.4507835484898185,0.02414735422608112
4.479281902313232,-0.0028124749660491943,-0.006348593160510063,-0.004725217819213867,0.02390068583190441,0.01900317706167698,-0.0002655255375429988,-0.0174273564809119,0.45099591260945565,0.024005682683597252
4.489806175231934,-0.0002301037311553955,-0.00687764585018158,-0.004699587821960449,0.006082057021558285,0.00762353278696537,-0.002532248618081212,-0.017437612353760828,0.4510767447364284,0.023932114136127884
4.499203205108643,-0.0022406578063964844,-0.003283793106675148,-0.005149960517883301,-0.010892133228480816,0.006044012028723955,9.735662024468184e-05,-0.017551661868929955,0.45109065251946956,0.023935137491119293
4.509232997894287,-0.006428629159927368,0.0009413864463567734,-0.004393339157104492,-0.019280556589365005,-0.0020405463874340057,0.004671336151659489,-0.017675257856542753,0.45106561656666866,0.02402316549968539
4.519195079803467,-0.00616791844367981,0.0035849343985319138,-0.006936788558959961,-0.01744537241756916,-0.007578323129564524,0.006983225233852863,-0.017793567351534614,0.45098040084573376,0.02416358908325204
4.529431104660034,-0.0022661685943603516,0.005241330713033676,-0.020528197288513184,0.0028929049149155617,-0.01131504774093628,0.011048967950046062,-0.017769858649073943,0.4508665116545291,0.024275357554664156
4.540138006210327,0.0024207234382629395,0.009970508515834808,-0.02711009979248047,0.021053001284599304,-0.026373624801635742,0.015963563695549965,-0.017557247345098632,0.4506415400852743,0.024339596067905055
4.549421072006226,0.004965007305145264,0.013572968542575836,-0.01857513189315796,0.034627433866262436,-0.04690775275230408,0.024167165160179138,-0.017250641926383228,0.4502195843832368,0.02439751622212127
4.559982061386108,0.0030548572540283203,0.01062995195388794,-0.010760784149169922,0.044959165155887604,-0.0489562563598156,0.02290615811944008,-0.016668794017760884,0.44970946191890526,0.024424739966285667
4.569287061691284,-0.0013519525527954102,0.00733477808535099,-0.006607234477996826,0.029344985261559486,-0.05424840375781059,0.030397577211260796,-0.016133938068693406,0.44919360197109387,0.024500033520673894
4.579418182373047,-0.002499610185623169,0.006402535364031792,-0.002530992031097412,0.011263187974691391,-0.06970059126615524,0.03775562345981598,-0.015769138341703546,0.4485676834805943,0.024726081027515594
4.589632987976074,0.006342053413391113,-0.010610035620629787,-0.0015314221382141113,-0.0014177541015669703,-0.08122435957193375,0.03539814427495003,-0.015615553396825469,0.4477800339783006,0.025027541013907726
4.599349021911621,0.008234113454818726,-0.014023701660335064,-0.00048726797103881836,-0.01620096154510975,-0.09221921861171722,0.04116575047373772,-0.015611250730740467,0.44688298195043197,0.025413044813526516
4.60984206199646,0.00792926549911499,-0.008182132616639137,0.002422153949737549,-0.03618297725915909,-0.08985437452793121,0.05603002384305,-0.015735882974484514,0.4459361181183114,0.025965690165281163
4.619491100311279,0.00688248872756958,-0.013321226462721825,0.001745760440826416,-0.05321122705936432,-0.08398529887199402,0.06576920300722122,-0.0160379790960035,0.4450522618459392,0.026718358921370356
4.630315065383911,0.006139904260635376,-0.020955635234713554,0.005257785320281982,-0.05101568624377251,-0.07565626502037048,0.07883232831954956,-0.016409253158732706,0.4442887874181402,0.02759315686460672
4.639352083206177,0.006216257810592651,-0.01674797758460045,0.010653495788574219,-0.056167036294937134,-0.08112240582704544,0.08951426297426224,-0.01667245590677583,0.44354722994805174,0.02858087160643448
4.649413108825684,0.007698923349380493,-0.006773084402084351,0.018704771995544434,-0.06056473031640053,-0.08082452416419983,0.09921573847532272,-0.016890466164346647,0.4427690628383533,0.029688429182292673
