timestamp,accel_x,accel_y,accel_z,rotation_x,rotation_y,rotation_z, pitch,roll,yaw
0.046028852462768555,-0.008656173944473267,-0.011569038033485413,0.009334385395050049,-0.0493004210293293,-0.010321778245270252,-0.020659055560827255,-0.06549465362597152,0.285858435974657,0.009428669982500325
0.053499698638916016,-0.009875386953353882,-0.013667754828929901,0.008738398551940918,-0.05069725215435028,-0.010453871451318264,-0.021148808300495148,-0.0660381394782743,0.28573989515876197,0.00936658524888106
0.05458974838256836,-0.009962975978851318,-0.01443752646446228,0.008298337459564209,-0.04293420538306236,-0.004495225381106138,-0.020533140748739243,-0.06656493457906926,0.28566631935325193,0.009295263080894227
0.05864381790161133,-0.010673224925994873,-0.01203346997499466,0.004006445407867432,-0.021039824932813644,-5.733408033847809e-05,-0.018201276659965515,-0.06693879754022804,0.28565047302104407,0.00919989448714295
0.0672907829284668,-0.010566234588623047,-0.005992993712425232,0.0010628700256347656,0.006988896057009697,-0.004009864758700132,-0.01932736672461033,-0.06704787007786063,0.2856205937240682,0.009040116332934112
0.07729291915893555,-0.010062336921691895,-0.0005484819412231445,0.002019166946411133,0.010230496525764465,-0.007970783859491348,-0.017491383478045464,-0.06700487242593801,0.2855396620087593,0.008831580036720717
0.08749103546142578,-0.009405732154846191,-0.0025648996233940125,0.0004754066467285156,0.0018771756440401077,-0.0071066333912312984,-0.01803962141275406,-0.06699184025788191,0.28544330467793894,0.008645795783348982
0.09733986854553223,-0.009266257286071777,-0.009974144399166107,0.0017250776290893555,-0.004569005686789751,-0.0029851249419152737,-0.018629778176546097,-0.06706175491001486,0.2853786573976022,0.008467526071984166
0.10738897323608398,-0.01108124852180481,-0.015605181455612183,0.003331005573272705,0.00031862687319517136,-0.0014615305699408054,-0.011721912771463394,-0.06713877471979979,0.2853474715285255,0.008339135960605662
0.11734580993652344,-0.013018518686294556,-0.012495987117290497,0.004675090312957764,0.015238187275826931,-0.006260812748223543,-0.011416714638471603,-0.06709650656262453,0.2852982074659923,0.008216233911498031
0.12740683555603027,-0.009496212005615234,-0.007933855056762695,0.004461228847503662,0.036295387893915176,-0.013331461697816849,-0.010155973955988884,-0.06688264003235261,0.28518501649569583,0.008036916510256687
0.13767480850219727,-0.00664636492729187,-0.0037579908967018127,0.003283858299255371,0.0715431198477745,-0.013506697490811348,-0.0034277630038559437,-0.06638304086757635,0.28503554331039954,0.007823244941006845
0.1477680206298828,-0.006291747093200684,0.00012686848640441895,-0.0033056139945983887,0.11949894577264786,-0.008322454988956451,-0.0014589946949854493,-0.06548696182199655,0.2849028294506192,0.007532766382399492
0.15773987770080566,-0.006198614835739136,0.00801774114370346,-0.006709098815917969,0.16658708453178406,-0.011390415951609612,-0.0005713631398975849,-0.0640934046914629,0.28477911596255256,0.007106575267857592
0.1674947738647461,-0.005821973085403442,0.010711431503295898,-0.010561168193817139,0.1886174976825714,-0.022035781294107437,0.0010674928780645132,-0.06237283719521241,0.28457705966798236,0.006613471801059146
0.1775670051574707,-0.0026519596576690674,0.014746934175491333,-0.0085335373878479,0.169464573264122,-0.02776743844151497,-0.004532335791736841,-0.06063813979247427,0.2842949406493576,0.006092252240082218
0.18787574768066406,-0.004000633955001831,0.00577307865023613,1.6748905181884766e-05,0.11369471997022629,-0.024703115224838257,-0.01715444028377533,-0.05929463224540517,0.28400681618941187,0.005585462349704186
0.19759583473205566,-0.010968625545501709,-0.00810033455491066,0.01095724105834961,0.04081998020410538,-0.018434565514326096,-0.03266815096139908,-0.058533543446942275,0.2836697538807523,0.005125189924774046
0.20750784873962402,-0.01275739073753357,-0.02060524746775627,0.01900351047515869,-0.027330661192536354,-0.015509217046201229,-0.04096682742238045,-0.058602662677704496,0.2834198290189589,0.004747245266752826
0.21738672256469727,-0.014028728008270264,-0.027545757591724396,0.02108210325241089,-0.06998118758201599,-0.017632555216550827,-0.047321662306785583,-0.059288266566419695,0.283213834301278,0.004466825886026681
0.22759103775024414,-0.011033415794372559,-0.024962764233350754,0.01763707399368286,-0.0819731131196022,-0.023265274241566658,-0.04496700316667557,-0.060292876398447146,0.2829399744047123,0.004229677752437022
0.23824691772460938,-0.007968366146087646,-0.01904599741101265,0.013358652591705322,-0.06963841617107391,-0.02544400654733181,-0.04028569906949997,-0.061366625362832106,0.28262670736008083,0.004030673128206779
0.24778175354003906,-0.005877584218978882,-0.017141193151474,0.0068288445472717285,-0.05226626992225647,-0.02075173705816269,-0.029538564383983612,-0.0622558760703843,0.2823239818286328,0.003859935336552693
0.2579197883605957,-0.005778759717941284,-0.015888944268226624,0.0040680766105651855,-0.040867410600185394,-0.015358304604887962,-0.01773224025964737,-0.062988708014915,0.2821068693610876,0.003757255138756104
0.26784682273864746,-0.006680548191070557,-0.016623519361019135,0.003941774368286133,-0.03414523974061012,-0.008078241720795631,-0.007342769764363766,-0.06341897026924095,0.2819730499630034,0.0037528779756004303
0.27788496017456055,-0.007564544677734375,-0.01708196848630905,0.00450742244720459,-0.030254095792770386,0.0007341573946177959,-0.0005466488655656576,-0.06351137983174393,0.28189412264465524,0.003811543477777898
0.28807973861694336,-0.007117033004760742,-0.018575578927993774,0.007300972938537598,-0.04009426012635231,0.0028707669116556644,0.0011600111611187458,-0.06341790120634389,0.2818553443612323,0.00390677816828815
0.2980337142944336,-0.007728070020675659,-0.02023591846227646,0.011487901210784912,-0.05151602625846863,0.0070894802920520306,0.001363476738333702,-0.06332328922882059,0.2818543204059797,0.004044080476037326
0.307783842086792,-0.007815301418304443,-0.018932245671749115,0.013589859008789062,-0.05085068568587303,0.011154573410749435,-0.0028371806256473064,-0.06336246429412196,0.2819141988103961,0.004171917528210329
0.31780385971069336,-0.008323997259140015,-0.015349790453910828,0.01201176643371582,-0.0552946999669075,0.009479979053139687,-0.006296360399574041,-0.06356459433204294,0.28200288577178495,0.004271832329301321
0.32780885696411133,-0.005703389644622803,-0.012110814452171326,0.009013772010803223,-0.05146713927388191,0.00979636237025261,-0.011505663394927979,-0.06385098418243867,0.2820759284427016,0.004334529729753726
0.3381538391113281,-0.002443462610244751,-0.010083064436912537,0.007158339023590088,-0.04367446154356003,0.0022537570912390947,-0.011733364313840866,-0.06412786631404248,0.2821026640423069,0.004349277601267749
0.347855806350708,-0.0005771517753601074,-0.00838511437177658,0.0065593719482421875,-0.03817993029952049,-0.0012443047016859055,-0.011685053817927837,-0.0643377096916755,0.28206981615802446,0.004345769939857244
0.3578939437866211,-0.001407325267791748,-0.0042247474193573,0.006024181842803955,-0.040660664439201355,0.002963755978271365,-0.013491209596395493,-0.0645264827171428,0.28203202622475665,0.0043299047398971235
0.3679978847503662,-0.0029803812503814697,-0.007054440677165985,0.0019344687461853027,-0.0411444790661335,0.009935777634382248,-0.015848640352487564,-0.06468622657199999,0.2820524163546462,0.004304168908346654
0.37791872024536133,-0.004081815481185913,-0.009955108165740967,0.001922607421875,-0.03249026834964752,0.014871148392558098,-0.0134762953966856,-0.06474889189711056,0.28213611712868675,0.004271103797802135
0.3882427215576172,-0.00683024525642395,-0.009468607604503632,0.004609107971191406,-0.017780598253011703,0.014719968661665916,-0.010836304165422916,-0.06472009171881252,0.2822489667678352,0.0042159394374278614
0.3978757858276367,-0.008406311273574829,-0.003900952637195587,0.003983139991760254,0.008241680450737476,0.01347281038761139,-0.0052290186285972595,-0.06453841217564164,0.2823456652424225,0.004140838193697588
0.40791988372802734,-0.009790778160095215,-0.001357048749923706,0.0036659836769104004,0.022487962618470192,0.015300272032618523,-0.0034530097618699074,-0.0642063464362012,0.28246258092599313,0.004061239980468443
0.41781091690063477,-0.012209713459014893,-0.005296148359775543,0.003047168254852295,0.032132867723703384,0.022597067058086395,-0.0028852238319814205,-0.06379584750693247,0.28263846341052873,0.0039469548217986195
0.42825984954833984,-0.016510218381881714,-0.007542669773101807,0.004001319408416748,0.03438515216112137,0.023264145478606224,-0.0036316015757620335,-0.06337121679210816,0.2828668407300018,0.003829050023340008
0.4389939308166504,-0.016124963760375977,-0.007772855460643768,0.004934430122375488,0.02517727203667164,0.0245555117726326,-6.296578794717789e-05,-0.06303616811532907,0.28309559319412614,0.0037217357524718933
0.4480109214782715,-0.015896618366241455,-0.011090435087680817,0.004946291446685791,0.013054396025836468,0.027737367898225784,0.004868249874562025,-0.06276739754874935,0.28333006586011295,0.0036977292394794648
0.457974910736084,-0.014163196086883545,-0.014836292713880539,0.0017554759979248047,0.012362239882349968,0.022033408284187317,0.008382556959986687,-0.06251495894471654,0.2835547247767858,0.0037278574143388855
0.46808576583862305,-0.01177835464477539,-0.014888565987348557,0.0012198090553283691,0.01612703502178192,0.011897196993231773,0.014832786284387112,-0.06224627252087694,0.2836725968670648,0.003788897054139817
0.4780158996582031,-0.009949326515197754,-0.010773587971925735,0.003069162368774414,0.009001481346786022,0.006130387540906668,0.019446711987257004,-0.062052428684508824,0.2837030093635223,0.003924257870919726
0.4881598949432373,-0.009930074214935303,-0.010320842266082764,0.005472540855407715,0.0026139055844396353,0.007217889651656151,0.016187695786356926,-0.061950442519978804,0.28369699755177646,0.004072050438711877
0.4980649948120117,-0.010207444429397583,-0.01238355040550232,0.0049479007720947266,-0.0008524646982550621,0.007749455980956554,0.014437200501561165,-0.06186148643521411,0.2836822943368254,0.004212925105661287
0.5079648494720459,-0.010566860437393188,-0.008912034332752228,0.0028467178344726562,-0.009143950417637825,0.0044102962128818035,0.008597101084887981,-0.06179255087892735,0.28362619103516806,0.0043360605120309
0.5180008411407471,-0.010406285524368286,-0.0065882205963134766,0.0044495463371276855,-0.010084578767418861,0.00697518652305007,0.005569353699684143,-0.06178806546332838,0.28357000618991,0.004417886313447261
0.5281338691711426,-0.010121256113052368,-0.006339948624372482,0.005921602249145508,-0.008562532253563404,0.012929082848131657,0.004447043873369694,-0.061722775499974986,0.28355803833771825,0.004493963949830486
0.538132905960083,-0.010993868112564087,-0.003111116588115692,0.005413353443145752,-0.005703628994524479,0.015434051863849163,0.002728506224229932,-0.06157593358702081,0.28360612462042334,0.0045357576219238645
0.5481767654418945,-0.009684324264526367,-0.0018889904022216797,0.004909932613372803,-0.012409668415784836,0.015474975109100342,0.0030156485736370087,-0.06145221067572754,0.28368636121636404,0.004570522112616646
0.5595738887786865,-0.008127659559249878,-0.0047591738402843475,0.005368590354919434,-0.028967607766389847,0.018230015411973,0.0025703678838908672,-0.06149960564483066,0.28378245251530443,0.004646854056007859
0.5681400299072266,-0.007019490003585815,-0.006652314215898514,0.005462169647216797,-0.04448707774281502,0.02280719019472599,0.00431010453030467,-0.06169939991621475,0.2839512876238653,0.0047898824409243045
0.5781698226928711,-0.006902039051055908,-0.011419493705034256,0.0074005126953125,-0.024030538275837898,0.02804403007030487,-0.004292704630643129,-0.06185873120013041,0.2841341485009021,0.004869416669550421
0.5882558822631836,-0.008160382509231567,-0.012615159153938293,0.013494431972503662,-0.001534034265205264,0.008923199959099293,0.004236707929521799,-0.061894795304790744,0.28426965967876844,0.004918832315677963
0.5980887413024902,-0.003525763750076294,0.00210459902882576,0.011550307273864746,0.007968124002218246,-0.01158234290778637,-0.002942641731351614,-0.061746906086195236,0.28415975571396845,0.004905818733947831
0.6082348823547363,0.00591006875038147,-0.0016678720712661743,0.011607706546783447,-0.0020537502132356167,-0.008535063825547695,-0.003328693564981222,-0.06164343976658617,0.28397653082663593,0.00485035563564926
0.6181118488311768,-0.002252131700515747,-0.009061850607395172,0.005778849124908447,-0.024618180468678474,-0.005629821680486202,-0.004192889202386141,-0.061728624870724204,0.28384937568288876,0.004852905897149957
0.6281569004058838,-0.005767494440078735,-0.00823315978050232,0.0031821727752685547,-0.03584706783294678,-0.01856834627687931,-0.012715217657387257,-0.06202965973716144,0.2836857257276108,0.004856745163807804
0.6382889747619629,-0.001996845006942749,-0.010848447680473328,0.006977558135986328,-0.03338098153471947,-0.036889560520648956,-0.006422167643904686,-0.06229561057923219,0.28337026424319695,0.004866408863490918
0.6482179164886475,-0.0015009939670562744,-0.006317585706710815,0.006855130195617676,-0.05153986066579819,-0.024990513920783997,-0.015115205198526382,-0.06266353471992338,0.2830187516639043,0.004874235793420928
0.6583688259124756,-0.0006245672702789307,-0.004890158772468567,-0.0034215450286865234,-0.03752896934747696,-0.022686081007122993,-0.0023943502455949783,-0.06296092730335107,0.2827624625886132,0.004897929951239911
0.6684048175811768,-0.003496915102005005,0.0007632598280906677,-0.005973875522613525,-0.023518946021795273,-0.02838045172393322,0.003305773250758648,-0.06306027494693431,0.28248156017058856,0.004979482604108906
0.6782658100128174,-0.006241291761398315,0.00756450742483139,0.001624464988708496,-0.02254609204828739,-0.027530638501048088,-0.001022129668854177,-0.06329380064243524,0.2822129438585781,0.005048655768741105
0.688438892364502,-0.0065847039222717285,-0.0011894851922988892,0.0022073984146118164,-0.023008283227682114,-0.019682656973600388,0.002135740127414465,-0.06348799890516274,0.28204946691397786,0.005116942451371564
0.6982438564300537,-0.007947951555252075,-0.0071618035435676575,0.0013331174850463867,-0.012258433736860752,-0.013510781340301037,0.0025373450480401516,-0.06350943513954405,0.28189611457287506,0.00518423379185096
0.7082676887512207,-0.011178940534591675,-0.003936588764190674,0.0022447705268859863,0.0010168415028601885,-0.01099955290555954,0.004202405922114849,-0.06342736480420061,0.28176323527086816,0.005231251213577026
0.7182087898254395,-0.013234972953796387,-0.0004435032606124878,0.004680633544921875,0.020945008844137192,-0.010264786891639233,0.0019533669110387564,-0.0631686252248818,0.28167483287097766,0.005224284796273156
0.7283577919006348,-0.012973785400390625,-0.0032222941517829895,0.007395505905151367,0.028219666332006454,-0.007562388200312853,0.003354722401127219,-0.06283395687472088,0.28158721838092005,0.005178246548980169
0.7385597229003906,-0.013986825942993164,-0.00509827584028244,0.010120391845703125,0.011689692735671997,0.0022500285413116217,0.0025107667315751314,-0.06257319612084519,0.28155690388122545,0.005145668628358175
0.7484118938446045,-0.013455748558044434,-0.00824669748544693,0.00803917646408081,-0.0006719524972140789,0.007730947341769934,0.006290910299867392,-0.06251715929965597,0.28159081886008447,0.005180291667529971
0.7586479187011719,-0.012829184532165527,-0.014219872653484344,0.007452189922332764,-0.012241257354617119,0.008697940967977047,0.005082634277641773,-0.06266175939956195,0.2816401865903913,0.00524309870947189
0.7684898376464844,-0.01061829924583435,-0.014544069766998291,0.01070249080657959,-0.023352913558483124,0.0017466023564338684,0.00277580413967371,-0.06281841153574874,0.28166064739546737,0.005328231005658758
0.7783727645874023,-0.008774161338806152,-0.010776467621326447,0.011797189712524414,-0.02350231632590294,-0.006664992310106754,-0.0012716678902506828,-0.06297263463789196,0.281586187640651,0.005402363401946195
0.7885680198669434,-0.004002273082733154,-0.011368893086910248,0.011472880840301514,-0.018837006762623787,-0.016285263001918793,0.001656317850574851,-0.06312285337572573,0.281402205758127,0.005452541887976099
0.798353910446167,-0.004553675651550293,-0.008278995752334595,0.010125458240509033,-0.024782514199614525,-0.017201121896505356,0.001013164408504963,-0.06332925626105833,0.28115350968528374,0.00551547893467018
0.8084478378295898,-0.0077093541622161865,-0.007254928350448608,0.010261118412017822,-0.0280733834952116,-0.00949047226458788,0.0007891925051808357,-0.06354158017447051,0.28094750566786764,0.0055969663009347755
0.8184127807617188,-0.009018152952194214,-0.01109372079372406,0.009150981903076172,-0.02084449864923954,-0.010074503719806671,0.003823864506557584,-0.06370333858682801,0.28078777437445324,0.005683214057526593
0.8284540176391602,-0.010273337364196777,-0.008936397731304169,0.011940181255340576,-0.01904824562370777,-0.010557912290096283,0.00041166297160089016,-0.06377394072208048,0.2806181349784149,0.005762431357704208
0.8384978771209717,-0.010228961706161499,-0.005863316357135773,0.015948355197906494,-0.02277587354183197,-0.007443078327924013,0.0008124688174575567,-0.0638137352802986,0.2804612401226329,0.005828749162745946
0.8484208583831787,-0.011164635419845581,-0.007265366613864899,0.01919877529144287,-0.01934635266661644,-0.0020632268860936165,-0.008314610458910465,-0.0638884271700562,0.280388160658636,0.005849725850029591
0.8586058616638184,-0.01103261113166809,-0.010257057845592499,0.02091801166534424,-0.02477014809846878,-0.012791238725185394,-0.01686335727572441,-0.06404229717249951,0.28031695138819646,0.00578603713446911
0.8686628341674805,-0.00775560736656189,-0.007448151707649231,0.021148681640625,-0.041262637823820114,-0.031671538949012756,-0.02691066637635231,-0.06430094038679908,0.2800868561845722,0.005661726171322401
0.8785977363586426,0.004465550184249878,-0.003959305584430695,0.01547020673751831,-0.06384863704442978,-0.04369145631790161,-0.03076186217367649,-0.06482624134089898,0.2797000583300483,0.005523469267756671
0.8885648250579834,0.013109207153320312,0.001287408173084259,0.006035506725311279,-0.08128630369901657,-0.05755005031824112,-0.028231805190443993,-0.0655472455017637,0.27916517961621057,0.0054463341019995535
0.8984818458557129,0.009531676769256592,-0.000738881528377533,0.0025082826614379883,-0.0988844707608223,-0.06250087171792984,-0.03116048499941826,-0.06638518299403699,0.2785361759469396,0.005402224067869282
0.9085497856140137,0.005392014980316162,-0.003778122365474701,0.0029150843620300293,-0.11601021885871887,-0.07660882920026779,-0.03401634842157364,-0.06741254412622184,0.2778130142435221,0.00538465109405722
0.9185078144073486,0.0074755847454071045,0.0006894022226333618,0.0022620558738708496,-0.1249895989894867,-0.08721993118524551,-0.03365868702530861,-0.06856292426669232,0.2769679069637712,0.005395633989035556
0.9285888671875,0.005547970533370972,-0.0010446831583976746,0.0028908252716064453,-0.14053457975387573,-0.0725439190864563,-0.04264877736568451,-0.06984230690788083,0.27613974148516324,0.005381568478448274
0.9397029876708984,-0.0038840174674987793,-0.006104864180088043,0.002002418041229248,-0.14643162488937378,-0.059025175869464874,-0.03932994604110718,-0.07116736858165565,0.2754847090343819,0.005387078839636048
0.9487447738647461,-0.00914829969406128,-0.008699081838130951,-0.000956416130065918,-0.13374100625514984,-0.058533165603876114,-0.039781827479600906,-0.0724679576787042,0.27492299478739296,0.005391101224529036
0.9589109420776367,-0.00468754768371582,-0.006602860987186432,0.00038057565689086914,-0.12614114582538605,-0.062495943158864975,-0.0370401032269001,-0.0736861383967589,0.274402291107348,0.005370419264619573
0.9688858985900879,-0.005643784999847412,-0.008205614984035492,0.00581127405166626,-0.12437944859266281,-0.06023319065570831,-0.03851880133152008,-0.07491079469871437,0.2739139570875867,0.005342917034051863
0.9786868095397949,-0.006574034690856934,-0.015781216323375702,0.01242363452911377,-0.14435875415802002,-0.0644545629620552,-0.04236067458987236,-0.07617287025430163,0.27338399719393863,0.005315327644152745
0.9886670112609863,-0.0031765103340148926,-0.016082026064395905,0.011616289615631104,-0.1669265776872635,-0.06710192561149597,-0.04434073716402054,-0.077652975000086,0.2728014972376436,0.005324387379211227
0.9985847473144531,0.0019220411777496338,-0.012722156941890717,0.008577287197113037,-0.1894233673810959,-0.07965873181819916,-0.03692329674959183,-0.07937960350623555,0.2721539082132729,0.005421349547417559
1.0086917877197266,0.008073419332504272,-0.017407774925231934,0.005417883396148682,-0.19976022839546204,-0.08882923424243927,-0.03303540125489235,-0.08121774795927073,0.27139834169923827,0.005612628199489946
1.018716812133789,0.009113907814025879,-0.017449021339416504,0.0031619668006896973,-0.2300795018672943,-0.08904362469911575,-0.037531085312366486,-0.08318826512840141,0.2705188292820738,0.005848461902570023
1.0287327766418457,0.004415303468704224,-0.01593458652496338,0.001277148723602295,-0.2707277834415436,-0.07831454277038574,-0.04371558502316475,-0.08546609947214025,0.2696811842175509,0.006120715616577052
1.0386466979980469,-0.0008307695388793945,-0.021819867193698883,0.0011175870895385742,-0.29847419261932373,-0.07696671783924103,-0.047782763838768005,-0.08811121284840298,0.2689312756069945,0.006439605100368842
1.0486729145050049,-0.002906978130340576,-0.027263790369033813,0.012185275554656982,-0.3414625823497772,-0.08107300102710724,-0.04600968211889267,-0.0910645418967354,0.26817905332728686,0.006842470184319792
1.0588617324829102,-0.003914237022399902,-0.026127777993679047,0.02279984951019287,-0.4056655466556549,-0.08473165333271027,-0.053442832082509995,-0.09442907491533052,0.26740704006456184,0.007368352978315094
1.0690116882324219,2.5719404220581055e-05,-0.02615947276353836,0.023278117179870605,-0.4538879990577698,-0.075851209461689,-0.050332795828580856,-0.0983547193714491,0.2666969298092843,0.00799723652309664
1.0787508487701416,0.0003535747528076172,-0.02905399352312088,0.019584357738494873,-0.5215588808059692,-0.08122227340936661,-0.05138607695698738,-0.1027975769557738,0.26604848510553675,0.008815850111823658
1.088770866394043,-0.002929210662841797,-0.026529952883720398,0.01741689443588257,-0.613640546798706,-0.07874015718698502,-0.06451966613531113,-0.10802349407202255,0.26542201494745554,0.009757002446733594
1.098733901977539,-0.004031956195831299,-0.03099261224269867,0.016844868659973145,-0.7300438284873962,-0.08071435987949371,-0.0773790031671524,-0.11469424855330096,0.26475382147804255,0.01083272828242615
1.1088788509368896,0.0011872351169586182,-0.03554556518793106,0.010052859783172607,-0.8684183955192566,-0.09459005296230316,-0.09186601638793945,-0.12261405848012283,0.2640375445794116,0.012116501203689475
1.1187739372253418,0.007100433111190796,-0.03847433626651764,0.011369705200195312,-1.0188894271850586,-0.10513590276241302,-0.10851210355758667,-0.1320123619803654,0.2632225541107999,0.013616827754741965
1.1287789344787598,0.006657004356384277,-0.05059748888015747,0.022091031074523926,-1.1548811197280884,-0.11378376185894012,-0.13109959661960602,-0.14283375485243915,0.26236590867702453,0.015302170059771827
1.1389179229736328,0.0038553178310394287,-0.059528350830078125,0.02833646535873413,-1.2930532693862915,-0.13061495125293732,-0.1504373401403427,-0.15504319289547855,0.2614130984833712,0.017136362043102017
1.1488409042358398,0.004648149013519287,-0.05018968880176544,0.029796183109283447,-1.4305243492126465,-0.151713564991951,-0.17125016450881958,-0.16861757459370302,0.26032504949217544,0.019116391242411462
1.1591758728027344,0.009672671556472778,-0.04957829415798187,0.03165602684020996,-1.5789055824279785,-0.16083195805549622,-0.20781882107257843,-0.18366582111089352,0.2591238313051696,0.02118366120940966
1.171259880065918,0.010494470596313477,-0.06161414086818695,0.03681671619415283,-1.7892154455184937,-0.202248215675354,-0.2523519992828369,-0.20051306183132148,0.25772507990411364,0.023296993858633767
1.1788768768310547,0.012195348739624023,-0.07721510529518127,0.04795759916305542,-2.0373334884643555,-0.2641637623310089,-0.29086530208587646,-0.21972597317539544,0.255873704631954,0.025573499335003132
1.1896648406982422,0.022071391344070435,-0.08656840026378632,0.052187561988830566,-2.252924919128418,-0.31957074999809265,-0.31118208169937134,-0.24127684952674316,0.2535424178628493,0.028142569318354224
1.1990668773651123,0.030109137296676636,-0.08132094144821167,0.040989696979522705,-2.4327242374420166,-0.3600124418735504,-0.35291966795921326,-0.2648729538992012,0.25082170247243735,0.030890088946236224
1.2091679573059082,0.030790910124778748,-0.06056812405586243,0.030946016311645508,-2.6127984523773193,-0.4188731908798218,-0.3792392909526825,-0.29022657411651115,0.24767182989712788,0.03364062920040467
1.218885898590088,0.02554282546043396,-0.056017398834228516,0.01800835132598877,-2.8192436695098877,-0.4486073851585388,-0.39477431774139404,-0.3175531455677068,0.2441992628443482,0.036653116831511554
1.2289209365844727,0.023972898721694946,-0.06245115399360657,0.011469006538391113,-2.989762306213379,-0.4506721794605255,-0.3972339332103729,-0.34677996775592596,0.24078796690407878,0.03996604081552177
1.2394108772277832,0.014938950538635254,-0.07336875796318054,-0.001441359519958496,-3.1748170852661133,-0.4720533788204193,-0.41555142402648926,-0.37767860319125013,0.23747893415143315,0.043569247009874766
1.2490849494934082,0.004612088203430176,-0.07700473070144653,-7.522106170654297e-05,-3.3947012424468994,-0.4870535433292389,-0.46245482563972473,-0.4106876244235791,0.23405951579029263,0.04728252174352839
1.2591767311096191,-0.0009151846170425415,-0.09612110257148743,0.020221352577209473,-3.6864750385284424,-0.48596563935279846,-0.5001060962677002,-0.4462497899947351,0.23075339651720458,0.05106577672048643
1.2709507942199707,-0.005401119589805603,-0.12247121334075928,0.03286290168762207,-3.9393527507781982,-0.4715341329574585,-0.5057405829429626,-0.4846178925635098,0.22786845458140897,0.05530372573142051
1.2790048122406006,-0.0077782124280929565,-0.1164972186088562,0.03377866744995117,-4.24362850189209,-0.5194050073623657,-0.5609415173530579,-0.5257102120918985,0.22515622378128278,0.059901302306930825
1.2889578342437744,-0.009778037667274475,-0.10945743322372437,0.045137107372283936,-4.465251922607422,-0.51179438829422,-0.5842120051383972,-0.5695846185293691,0.2224112242139326,0.06462049258334122
1.2989418506622314,-0.005904465913772583,-0.121898353099823,0.048482537269592285,-4.6080427169799805,-0.5248305201530457,-0.5733548402786255,-0.6150967369513857,0.22025553559379185,0.06987380286208945
1.3090698719024658,0.003225862979888916,-0.1060212254524231,0.012002408504486084,-4.910162448883057,-0.6179467439651489,-0.6355841159820557,-0.6629776057457355,0.21772644102653074,0.07537462589705646
1.3205647468566895,0.00999651849269867,-0.08289885520935059,0.01859748363494873,-5.068599224090576,-0.5843653082847595,-0.554412305355072,-0.7131488135751811,0.21568677492681054,0.081655317542764
1.3290657997131348,0.014412075281143188,-0.10813552141189575,-0.01173168420791626,-5.058396816253662,-0.5386616587638855,-0.4270516633987427,-0.7638513113055443,0.21567167691582956,0.08990938101042065
1.339113712310791,0.0033228695392608643,-0.0832487940788269,-0.04990553855895996,-4.953202724456787,-0.5889632105827332,-0.3546685576438904,-0.8136787621638553,0.21700227273030828,0.09974054554176072
1.3493988513946533,0.0009097158908843994,-0.03163504600524902,-0.0688241720199585,-4.80979061126709,-0.6411229372024536,-0.2731010615825653,-0.8619964270015935,0.2191581097399243,0.11092763075130849
1.3591089248657227,0.02613799273967743,-0.033106446266174316,-0.09667015075683594,-4.818587779998779,-0.6887690424919128,-0.18329739570617676,-0.909471865793655,0.2226059919815457,0.12403125523021291
1.371819019317627,0.04274196922779083,-0.0829738974571228,-0.10212123394012451,-4.831631660461426,-0.6649984121322632,-0.08865194767713547,-0.9569004196798081,0.22858991900016712,0.14004889614320146
1.3807377815246582,0.028768390417099,-0.11190766096115112,-0.07975620031356812,-4.615711212158203,-0.5056263208389282,-0.018503226339817047,-1.0032372827799922,0.23828340946933485,0.15884371678150339
1.3892838954925537,-0.009064652025699615,-0.07565885782241821,-0.08099907636642456,-4.206971645355225,-0.4370838403701782,-0.02644418552517891,-1.0460555220280814,0.25104059086010594,0.17912128085147191
1.3991117477416992,-0.03635925054550171,-0.04320812225341797,-0.05062663555145264,-3.8119277954101562,-0.5589556694030762,-0.10313496738672256,-1.0850648085095305,0.2634596983559381,0.19890944512030845
1.4091858863830566,-0.027211874723434448,-0.014950871467590332,0.003328263759613037,-3.4772276878356934,-0.5975840091705322,-0.10167869925498962,-1.1204849505247598,0.2746604942732757,0.2180943451587957
1.4204349517822266,-8.822977542877197e-05,0.028898417949676514,0.004042565822601318,-3.186709403991699,-0.5568869113922119,-0.059691302478313446,-1.1527434812567483,0.287162257651186,0.2381957179815332
1.429184913635254,0.015976853668689728,0.04788637161254883,-0.03162038326263428,-3.013721466064453,-0.5641326904296875,-0.06844037026166916,-1.1826419825618948,0.30130116089820946,0.2596563528227954
1.44130277633667,0.010178834199905396,0.03351271152496338,-0.010477185249328613,-2.929124593734741,-0.5649148225784302,-0.10256984084844589,-1.211133371144198,0.31649159228042656,0.2821726211732654
1.4503107070922852,-0.00522371381521225,0.01330554485321045,-0.009868353605270386,-2.861497163772583,-0.46933475136756897,-0.11390575021505356,-1.2389262460585655,0.334024904909125,0.3062617999139526
1.4590919017791748,-0.008842505514621735,0.021356821060180664,-0.05020502209663391,-2.844996452331543,-0.5025667548179626,-0.12078975886106491,-1.2662053506393927,0.3553154341826384,0.33372403129063355
1.4701828956604004,0.006134532392024994,0.04977715015411377,-0.035918623208999634,-2.750145673751831,-0.5290664434432983,-0.15817324817180634,-1.292906234576685,0.3793680609340606,0.3642838808226001
1.4792838096618652,0.020304277539253235,0.013250410556793213,-0.06411837041378021,-2.6227073669433594,-0.46561670303344727,-0.17497512698173523,-1.3184617379724575,0.40662192334925307,0.39772469390160714
1.4893369674682617,0.00722319632768631,0.02345418930053711,-0.09287545084953308,-2.382641077041626,-0.4154418408870697,-0.14506249129772186,-1.3419838596802618,0.4382210332472472,0.43476697355655436
1.4991188049316406,-0.011553004384040833,0.06280964612960815,-0.07219058275222778,-2.161558151245117,-0.38526931405067444,-0.16378505527973175,-1.363112984808263,0.4730918755397479,0.47456100648515726
1.5091798305511475,-0.02579234540462494,0.05001699924468994,-0.02888570725917816,-1.991732120513916,-0.36695101857185364,-0.1299293488264084,-1.382130468866605,0.5116839229155897,0.5177561805635309
1.5206568241119385,-0.03001098334789276,0.045848309993743896,0.0037612318992614746,-1.8722277879714966,-0.37744173407554626,-0.11345743387937546,-1.3993596006496665,0.556304698044396,0.5669017723156184
1.5292696952819824,-0.019869476556777954,0.02245354652404785,0.014252424240112305,-1.8085665702819824,-0.37371623516082764,-0.13148729503154755,-1.4154175774870221,0.6077323295291508,0.6228673476846929
1.5392427444458008,-0.026175327599048615,-0.019517064094543457,0.02191273868083954,-1.731481671333313,-0.3255428671836853,-0.11540073901414871,-1.4303908133609409,0.668199973690515,0.6875280890411573
1.549217700958252,-0.03922963887453079,-0.014678478240966797,0.010914146900177002,-1.7440376281738281,-0.3086237907409668,-0.11292586475610733,-1.4443729234956446,0.7424867826508277,0.7656882327019195
1.5596790313720703,-0.03486768901348114,-0.019237995147705078,-0.025979511439800262,-1.8141136169433594,-0.2691586911678314,-0.10691383481025696,-1.4576271046540923,0.8367940153692915,0.8635510408026961
1.5707759857177734,-0.025314822793006897,-0.04828089475631714,-0.04751032590866089,-1.9131783246994019,-0.2723849415779114,-0.06650830060243607,-1.4696632088499446,0.9652289925406718,0.9954262937821919
1.5794439315795898,-0.014709532260894775,-0.06410443782806396,-0.08300668001174927,-2.0145952701568604,-0.18673209846019745,-0.08823410421609879,-1.4803548930508383,1.1386495461742119,1.1720017182261215
1.589378833770752,-0.012907750904560089,-0.07721507549285889,-0.07157868146896362,-1.8712371587753296,-0.1810990273952484,-0.08399541676044464,-1.4874251616119507,1.345722216977124,1.3816652465596482
1.599349021911621,-0.02502177655696869,-0.027428388595581055,-0.0051364898681640625,-1.6303576231002808,-0.19308511912822723,-0.08617441356182098,-1.4904447112076913,1.5564679540777655,1.594969727361932
1.6094439029693604,-0.03167804330587387,0.01798480749130249,0.05739569664001465,-1.357064127922058,-0.25385355949401855,-0.06274131685495377,-1.490026806002252,1.740019651173731,1.7813618493535193
1.6207778453826904,-0.012389041483402252,0.0533146858215332,0.06881844997406006,-1.0931118726730347,-0.28109824657440186,-0.024443725124001503,-1.487535281617675,1.8829630181758272,1.927520950796682
1.6295247077941895,-0.0009468123316764832,0.06406229734420776,0.04426514357328415,-0.9582048058509827,-0.2708945572376251,-0.022414185106754303,-1.4840548503310138,1.992528387817829,2.040271689730031
1.6395678520202637,-0.014204122126102448,0.03820443153381348,0.010176889598369598,-0.9779447317123413,-0.25507164001464844,-0.04590193182229996,-1.4800298058141252,2.0877877111131604,2.1385131920708034
1.6494698524475098,-0.02917647361755371,-0.019627094268798828,0.012742992490530014,-1.0680991411209106,-0.2825603187084198,-0.09134814143180847,-1.4751214407896225,2.1814563575544086,2.2353007785313204
1.6595649719238281,-0.025508306920528412,-0.07320898771286011,0.028090238571166992,-1.149669885635376,-0.299243688583374,-0.11754751950502396,-1.4691641570366072,2.274255828618939,2.331488667315744
1.6711418628692627,-0.011545635759830475,-0.07237958908081055,0.017481088638305664,-1.2353334426879883,-0.2994901239871979,-0.13743877410888672,-1.461993362572933,2.362424977202602,2.4231829840938617
1.679689884185791,-0.004416950047016144,-0.0458260178565979,-0.01163637638092041,-1.2403484582901,-0.28838393092155457,-0.14060473442077637,-1.453705775528269,2.4425765576733416,2.506812918665332
1.6907308101654053,0.0008639171719551086,-0.02246391773223877,-0.02686987817287445,-1.1494038105010986,-0.3046122193336487,-0.14000393450260162,-1.4451297055731518,2.5094696301320263,2.5771567996165947
1.6996328830718994,0.009456261992454529,0.010871648788452148,-0.020939931273460388,-0.9955487847328186,-0.31449413299560547,-0.13163281977176666,-1.4370281545098909,2.5618344920573497,2.6331196339338927
1.709920883178711,0.006208166480064392,0.0361555814743042,0.016000404953956604,-0.8578912019729614,-0.3310534954071045,-0.12269226461648941,-1.4298943115711071,2.602076613532845,2.6770109829742883
1.721125841140747,-0.007216401398181915,0.03740274906158447,0.03772570192813873,-0.8143250942230225,-0.3848282992839813,-0.11078634113073349,-1.4232340507814036,2.633965999397851,2.7128698986739237
1.7296867370605469,0.0007240474224090576,0.03844559192657471,0.05333171784877777,-0.879267692565918,-0.38317030668258667,-0.1220126822590828,-1.4164005395985853,2.662979433620863,2.746135044774326
1.7400708198547363,0.00857812911272049,0.008053362369537354,0.04512403905391693,-1.0141587257385254,-0.355985552072525,-0.1584726870059967,-1.4085405613021116,2.6934948288244933,2.780791749847105
1.749870777130127,-0.009520359337329865,-0.025606155395507812,0.03717029094696045,-1.171560525894165,-0.32161369919776917,-0.19639860093593597,-1.399345444241165,2.7270066556886374,2.8182285314816076
1.760448932647705,-0.022064201533794403,-0.04727250337600708,0.027061477303504944,-1.1979331970214844,-0.3076310455799103,-0.16171331703662872,-1.3890053397499358,2.7593935620154895,2.8543044883516404
1.7719988822937012,-0.015714481472969055,-0.015000700950622559,-0.005266308784484863,-1.1551289558410645,-0.2961195409297943,-0.12169145047664642,-1.3785041656001602,2.785788621872196,2.8842467949562667
1.7798128128051758,0.013147644698619843,0.033705949783325195,-0.08351804316043854,-0.9679518342018127,-0.2602848410606384,-0.08776917308568954,-1.3687636351751902,2.8061196861905877,2.9078196349638454
1.7897398471832275,0.01840651035308838,0.0771973729133606,-0.11481210589408875,-0.7508953213691711,-0.21022836863994598,-0.06687992066144943,-1.3609111865180994,2.820471702932387,2.92490568080868
1.799588918685913,-0.010775454342365265,0.09139299392700195,-0.0760856568813324,-0.6020054817199707,-0.1822742223739624,-0.05626295879483223,-1.354680178449009,2.8308412635304756,2.93751237786237
1.8097178936004639,-0.028913699090480804,0.0798688530921936,-0.01565679907798767,-0.5680856704711914,-0.15477626025676727,-0.07577482610940933,-1.3493544493282303,2.8399103361130824,2.948545075618575
1.8211407661437988,-0.027274571359157562,0.032019078731536865,0.020815327763557434,-0.5260242223739624,-0.14385943114757538,-0.06927325576543808,-1.344261473194571,2.848514567637091,2.9588893631021707
1.829770803451538,-0.02433011680841446,0.025153696537017822,0.038814395666122437,-0.4689658284187317,-0.14496755599975586,-0.0836879312992096,-1.3397492085349663,2.8563827613497,2.9684567420520493
1.8398337364196777,-0.024938225746154785,0.03966742753982544,0.03338554501533508,-0.37285634875297546,-0.12726712226867676,-0.016929402947425842,-1.3357744484151926,2.8621463540908447,2.975770279597231
1.8497257232666016,-0.02278878539800644,0.07283443212509155,0.02089753746986389,-0.232188418507576,-0.1267993003129959,-0.014113910496234894,-1.3329321248670032,2.8648274510108935,2.9798314701063386
1.8599088191986084,-0.021588362753391266,0.07977926731109619,0.0070938169956207275,-0.09035059064626694,-0.12839825451374054,0.05336286872625351,-1.3313097571556092,2.8648877005557902,2.981212037870755
1.87174391746521,-0.02526378631591797,0.06507980823516846,-0.00037667155265808105,0.09813400357961655,-0.1199275478720665,0.08890925347805023,-1.3311388512255644,2.860481001980469,2.977964308420649
1.8798668384552002,-0.010499715805053711,0.0685853362083435,-0.04546675086021423,0.2456377148628235,-0.09591995179653168,0.09898772090673447,-1.3325744421737085,2.853759108734141,2.9721732216720915
1.8898358345031738,-0.019320867955684662,0.047460198402404785,-0.046396106481552124,0.3484783470630646,-0.06668807566165924,0.10151740163564682,-1.3351393023754794,2.845263919313046,2.964241726311997
1.8997907638549805,-0.02941308170557022,0.01862281560897827,-0.002425089478492737,0.4126749038696289,-0.07026709616184235,0.06163683161139488,-1.3385537241508796,2.836658277050946,2.9560965575989244
1.9098458290100098,-0.02608976513147354,-0.00680387020111084,0.04319533705711365,0.5554320216178894,-0.1002870425581932,0.10004861652851105,-1.3428594934943068,2.8263269493417655,2.946340260145826
1.9212548732757568,-0.011084772646427155,0.016004502773284912,0.07171556353569031,0.6309294700622559,-0.14064939320087433,0.07544101029634476,-1.3482729580716346,2.81292599193034,2.9338481052200653
1.9298758506774902,-0.006196267902851105,0.027836143970489502,0.06289646029472351,0.48604825139045715,-0.1193542554974556,0.02192414551973343,-1.3535617850535566,2.8010972874424116,2.923100227603788
1.9399099349975586,-0.02099710702896118,-0.044938623905181885,0.05515822768211365,0.2716403305530548,-0.0746363177895546,0.009087975136935711,-1.3570132328770763,2.793932800484641,2.916744037012343
1.9497878551483154,-0.027035586535930634,-0.06844371557235718,0.06300054490566254,0.19272878766059875,-0.08192530274391174,-0.008272266015410423,-1.359140588696848,2.789513595295089,2.91298546478812
1.9599900245666504,-0.016415171325206757,-0.03459358215332031,0.06013047695159912,0.15145644545555115,-0.11130715906620026,-0.02913866564631462,-1.3608618729657795,2.7864689527532325,2.9108690536708317
1.9719867706298828,-0.0069255828857421875,-0.029983699321746826,0.04185788333415985,0.07226952910423279,-0.09331559389829636,-0.037800971418619156,-1.362029216747804,2.785126113853416,2.910564541136747
1.9800567626953125,-5.120784044265747e-05,-0.027986347675323486,0.007895827293395996,0.015252850949764252,-0.05645931139588356,-0.04999638348817825,-1.3625516353311955,2.7855841353188504,2.9117969053680786
1.9899098873138428,-0.0006246268749237061,-0.01151585578918457,-0.012292027473449707,0.011017793789505959,-0.02995402365922928,-0.04538118094205856,-1.3628167439264478,2.787278170848091,2.9139585413870526
1.9998807907104492,-0.009170681238174438,0.006577253341674805,0.011753588914871216,0.08090180158615112,-0.017347685992717743,-0.040037281811237335,-1.3633536707511067,2.788224564789996,2.9151672790137853
2.009967803955078,-0.011755503714084625,0.018708109855651855,0.03464782238006592,0.13032159209251404,-0.010525244288146496,-0.04752571880817413,-1.3645413589007998,2.788243180192888,2.915329860249392
2.0209858417510986,-0.01246500015258789,0.016819000244140625,0.035349875688552856,0.1378823071718216,-0.006062052212655544,-0.0500171035528183,-1.3660229173996654,2.788053537624565,2.915229452195461
2.0299158096313477,-0.010463297367095947,0.0073601603507995605,0.03286144137382507,0.10935944318771362,0.0024130581878125668,-0.057259246706962585,-1.3673684918747082,2.7883148845638996,2.91552044056084
2.039954900741577,-0.011297062039375305,-0.011561572551727295,0.025859355926513672,0.06705059856176376,0.020533205941319466,-0.07598286867141724,-1.3684336590806994,2.7900720648514046,2.917200777563365
2.0500009059906006,-0.012387916445732117,-0.024876296520233154,0.014152437448501587,0.08679018914699554,0.028182871639728546,-0.05561373382806778,-1.3687073929225284,2.7931048994238323,2.920002060272392
2.059992790222168,-0.0062875449657440186,-0.00856095552444458,0.0032173097133636475,0.14526547491550446,0.03078904002904892,-0.047525182366371155,-1.3697544930892467,2.7939830006775637,2.920603612975275
2.0715978145599365,-0.00021132081747055054,0.009031593799591064,-0.006289944052696228,0.21082431077957153,0.04398704320192337,-0.028271274641156197,-1.3716023923602847,2.792982987475857,2.9192096781965176
2.080148696899414,-0.0050687044858932495,0.010418832302093506,-0.004845619201660156,0.20932255685329437,0.03675070405006409,-0.023746829479932785,-1.3735452847884624,2.7913263872671563,2.9170822761240887
2.090549945831299,-0.004381254315376282,0.00502246618270874,0.003361940383911133,0.14904946088790894,0.03737352788448334,-0.004084073007106781,-1.3748465008608983,2.790104819409183,2.915438202690126
2.1000068187713623,0.0047766342759132385,-0.020960688591003418,0.01079559326171875,0.07262340188026428,0.03631758317351341,-0.028009379282593727,-1.3754613129551567,2.7903193657739265,2.9152298191724535
2.1100707054138184,0.00038985908031463623,-0.04314446449279785,0.024988427758216858,0.011130629107356071,0.03027038834989071,-0.017875464633107185,-1.375213419008064,2.7925764364063337,2.917140878039468
2.1208178997039795,-0.005310714244842529,-0.03542518615722656,0.024685978889465332,0.029393788427114487,0.02239861711859703,-0.016563059762120247,-1.3747509003730283,2.7946233193300674,2.918896042016937
2.130077838897705,0.005883269011974335,-0.015036463737487793,-0.00429534912109375,0.07008514553308487,0.019736478105187416,-0.012026950716972351,-1.3748138597890942,2.795808887663187,2.9198606923551322
2.1400890350341797,0.0031671449542045593,-0.003555595874786377,-0.01811005175113678,0.11128983646631241,0.011684143915772438,0.006830893456935883,-1.3754875543226137,2.7949148733951716,2.9187650028990304
2.1500508785247803,0.0015459954738616943,0.0032523274421691895,-0.01616288721561432,0.13352131843566895,-0.0020503555424511433,0.006727668456733227,-1.3767363295556354,2.792344997710198,2.9161060994553085
2.160108804702759,0.0027814283967018127,-0.012620210647583008,-0.009464964270591736,0.1111648827791214,-0.0030426490120589733,0.018315616995096207,-1.3779460229481428,2.7895790807048675,2.9133179548743238
2.1715807914733887,0.0032132863998413086,-0.02741694450378418,-0.008494511246681213,0.06430060416460037,-0.006311679724603891,0.01775965467095375,-1.3786405060041353,2.7873551523949938,2.9110865595558706
2.180346965789795,0.003293536603450775,-0.0296669602394104,-0.0069309622049331665,0.032972779124975204,-0.00040079327300190926,0.03194151818752289,-1.3786771411802503,2.7856880551976135,2.90942301853372
2.1928188800811768,0.0015542581677436829,-0.02349299192428589,-0.0028426796197891235,0.08276654779911041,-0.008778786286711693,0.04080957919359207,-1.3785473987674501,2.783464680981626,2.9071704895939954
2.2000999450683594,-0.0005571693181991577,-0.009276628494262695,0.0021317005157470703,0.13128109276294708,-0.026060305535793304,0.03512639179825783,-1.3789731450255975,2.7806463627971016,2.9044393166333475
2.2101829051971436,-0.0026650652289390564,-0.0010296106338500977,0.015673860907554626,0.1827312707901001,-0.04678396135568619,0.06333118677139282,-1.380219129262953,2.774658310791368,2.8986992023048717
2.2211389541625977,0.003847867250442505,0.010845780372619629,0.020971521735191345,0.1426118016242981,-0.06541836261749268,0.04762492701411247,-1.3818152176029497,2.767859805735905,2.8923760403789127
2.230052947998047,0.003994658589363098,-0.017329514026641846,0.0024101585149765015,-0.005146562121808529,-0.03845776617527008,0.049622777849435806,-1.382424925791986,2.7634172811524107,2.8884338713910003
2.240280866622925,0.003333441913127899,-0.0494004487991333,-0.021331295371055603,-0.07665083557367325,-0.012671707198023796,0.03110768459737301,-1.38184049119791,2.762070089255908,2.887318055248031
2.250168800354004,-0.0021620243787765503,-0.04802501201629639,-0.02054561674594879,-0.07553109526634216,0.00278523494489491,0.017776431515812874,-1.3810173604795197,2.762370316916156,2.887651060515885
2.260615825653076,-0.0062072426080703735,-0.025582551956176758,-0.004382997751235962,-0.02827117219567299,-0.007264203391969204,0.03099529817700386,-1.380387899338344,2.7621866096144814,2.887478613181008
2.2719969749450684,2.4370849132537842e-05,0.0032938122749328613,0.01603350043296814,-0.011054552160203457,-0.0029610232450067997,0.01437126100063324,-1.380110861430246,2.761406660355338,2.8867485210141735
2.280457019805908,5.634874105453491e-05,0.0057083964347839355,0.013681754469871521,0.0015131712425500154,-0.003198843915015459,0.022942909970879555,-1.3799305302348206,2.7608348580177284,2.886180965468978
2.2905077934265137,-0.008771799504756927,0.007245182991027832,0.021553412079811096,0.024247877299785614,-0.011979641392827034,0.01571999117732048,-1.3797941396964333,2.7599458088651576,2.8853373746761224
2.300290822982788,-0.00966683030128479,0.0042411088943481445,0.02414141595363617,0.028168316930532455,-0.016134439036250114,0.028484255075454712,-1.3797021553669415,2.7588649652551904,2.884364076054511
2.3104419708251953,-0.008709840476512909,0.0024051666259765625,0.021234989166259766,0.07982583343982697,-0.02590588666498661,0.02512926049530506,-1.3800503584579809,2.756118983799711,2.881790876070434
2.320722818374634,-0.008725605905056,0.010359764099121094,0.014543667435646057,0.10469656437635422,-0.018477000296115875,0.004734505899250507,-1.3810747774013794,2.752815153629722,2.878668436021323
2.3302838802337646,-0.016852132976055145,0.0018749833106994629,0.012901321053504944,0.06482461094856262,-0.027056461200118065,0.006766871083527803,-1.3820531752435719,2.7502259622942873,2.8762505025225744
2.340359687805176,-0.012802734971046448,0.0073250532150268555,0.011828184127807617,-0.06853717565536499,-0.04320027679204941,-0.01763487607240677,-1.382119142630069,2.750291117414717,2.8766979365670857
2.350311756134033,0.00321294367313385,-0.00927281379699707,0.010413050651550293,-0.1660398542881012,-0.03142369166016579,-0.02187127247452736,-1.380721963125355,2.754036696456637,2.880864310148986
2.360304832458496,0.0017653480172157288,-0.03006690740585327,0.004739537835121155,-0.11164266616106033,-0.04061000049114227,-0.02825380489230156,-1.3792548625018768,2.758172646289238,2.8854082422177076
2.3711209297180176,0.00022127479314804077,6.198883056640625e-05,-0.01851414144039154,-0.0479276180267334,-0.043505165725946426,-0.03563539683818817,-1.3784129836333598,2.7615335663426066,2.889261964065654
2.3803799152374268,0.0031025633215904236,0.01922476291656494,-0.025780320167541504,-9.884010069072247e-05,-0.04604155942797661,-0.014895761385560036,-1.377946030976203,2.763758066328449,2.891931658908881
2.3905997276306152,0.003767944872379303,0.02001851797103882,-0.008994102478027344,0.06643708795309067,-0.05615362897515297,-0.027133412659168243,-1.3781037686520858,2.764260565193501,2.892944686364415
2.4003078937530518,0.0032547786831855774,0.008665740489959717,0.005477279424667358,0.12234483659267426,-0.056247372180223465,-0.03185386583209038,-1.3789825290914717,2.763874551342673,2.8931024883544088
2.4105918407440186,0.0001680031418800354,-0.006613016128540039,0.009491100907325745,0.17530077695846558,-0.06365126371383667,-0.029679393395781517,-1.380374214632864,2.7628082124631805,2.8925873311660126
2.421097755432129,0.0012080967426300049,-0.0037106871604919434,0.017798081040382385,0.24599038064479828,-0.07590659707784653,-0.035509586334228516,-1.382383620004201,2.760118446141727,2.8905427832175623
2.4305009841918945,0.00411030650138855,-0.001459360122680664,0.015592917799949646,0.2427503615617752,-0.07439694553613663,-0.0421055443584919,-1.3846328930169214,2.756586395064587,2.887719169770059
2.4405016899108887,0.0009722709655761719,-0.013466238975524902,0.005729556083679199,0.17195527255535126,-0.06904985010623932,-0.043971091508865356,-1.3865291963315556,2.7538427182971295,2.8856525182439072
2.450399875640869,0.0034465491771698,-0.031887948513031006,0.0005068928003311157,0.05654383450746536,-0.057928845286369324,-0.04647302255034447,-1.3878908444664422,2.75284399481831,2.885290355414863
2.4605307579040527,0.0031628236174583435,-0.04358553886413574,0.004551291465759277,0.02029155194759369,-0.05766492336988449,-0.038877151906490326,-1.3886140539735357,2.7530919649738324,2.8861459298406955
2.4708468914031982,0.00029916316270828247,-0.03890126943588257,0.009554162621498108,0.06657885760068893,-0.05418568104505539,-0.025509150698781013,-1.3891218912943983,2.7531780377636346,2.8868145379510617
2.4804840087890625,0.001949012279510498,-0.017080187797546387,0.0024374574422836304,0.137972891330719,-0.043020911514759064,0.003921709023416042,-1.3898765913348812,2.751498410767465,2.885598592862149
2.4905688762664795,0.0026458650827407837,0.010723412036895752,0.0005808025598526001,0.22478750348091125,-0.03367064148187637,0.011524874716997147,-1.3912283319711227,2.7472974454074217,2.8817074928692263
2.500581741333008,0.0005378499627113342,0.01929408311843872,0.009499207139015198,0.33807703852653503,-0.00923081487417221,0.023166615515947342,-1.3933173376464612,2.741025945797542,2.875543165120072
2.5115528106689453,-0.0009176507592201233,0.026114821434020996,0.028940796852111816,0.5484772324562073,0.027835816144943237,0.03910867124795914,-1.3968952565838946,2.730424825969401,2.864679061199231
2.5208487510681152,-0.0011300668120384216,0.07737904787063599,0.05902157723903656,0.9392170310020447,0.09476664662361145,0.12180647999048233,-1.4031207900613776,2.7101233019838817,2.843462769127641
2.530622959136963,-0.0019803419709205627,0.18392109870910645,0.09737946093082428,1.669280767440796,0.14180845022201538,0.31683385372161865,-1.4136594840110912,2.665454577174587,2.79695303419049
2.5408928394317627,0.001162886619567871,0.3110901117324829,0.11241234838962555,2.6926217079162598,0.137057363986969,0.5032601952552795,-1.4304265694191307,2.5700612264589933,2.699087695509932
2.550590991973877,0.0018977001309394836,0.34643304347991943,0.0684363842010498,3.571502685546875,0.17737382650375366,0.5583909749984741,-1.4521369270237086,2.3899528957827463,2.515843835205874
2.5607810020446777,-0.020707905292510986,0.26929229497909546,0.03914272412657738,4.251099586486816,0.24305589497089386,0.6117743253707886,-1.4718822909912344,2.074489855232025,2.1964341331634714
2.5716357231140137,-0.040730029344558716,0.18508946895599365,0.07179677486419678,4.795037269592285,0.20285755395889282,0.5750917792320251,-1.4781558650958262,1.5987953501237981,1.7163443667743479
2.580634832382202,-0.022680863738059998,0.06314188241958618,0.05286407843232155,4.973947048187256,0.23964300751686096,0.3931502103805542,-1.4629045773011482,1.1289766715058054,1.242106080330157
2.590643882751465,-0.021255850791931152,-0.06364405155181885,0.06857830286026001,5.12669038772583,0.34460484981536865,0.4055868983268738,-1.4308163333992971,0.8130618150081841,0.9208995458844411
2.6006107330322266,-0.04479113221168518,-0.040184199810028076,0.12552134692668915,5.3709211349487305,0.38841572403907776,0.5438512563705444,-1.3879497996036387,0.6259488104699801,0.7276048497513962
2.6105408668518066,-0.04690743237733841,0.047260284423828125,0.1655980944633484,5.588521957397461,0.40149736404418945,0.5667123794555664,-1.3385683126515606,0.511747943804518,0.6069562675861149
2.6213607788085938,-0.04706266522407532,0.04143500328063965,0.19797399640083313,5.697638034820557,0.46228134632110596,0.5606731176376343,-1.2856411474512535,0.43723207243256457,0.5254476671084026
2.6309080123901367,-0.056587204337120056,-0.006877422332763672,0.18966084718704224,5.752108097076416,0.5357460975646973,0.6176470518112183,-1.2307209240782107,0.3877039989628405,0.4681779026865436
2.6406807899475098,-0.05600632727146149,-0.018928468227386475,0.17255538702011108,5.707691192626953,0.5819024443626404,0.6403830051422119,-1.1749247488914085,0.3546752299432127,0.4267841514990955
2.6507608890533447,-0.049545735120773315,-0.0034230947494506836,0.17036592960357666,5.608738899230957,0.6298964023590088,0.642714262008667,-1.1193472913230278,0.3317823917164747,0.39503214365505784
2.660667896270752,-0.054069116711616516,-0.015631556510925293,0.18752515316009521,5.4305596351623535,0.6556472778320312,0.6779739856719971,-1.0648193783085487,0.3163523314727116,0.37038395929865875
2.6710808277130127,-0.05428925156593323,-0.04057878255844116,0.19632774591445923,5.22475528717041,0.6818305850028992,0.698710560798645,-1.0119365794169528,0.30645372181809916,0.35117618448057786
2.6806979179382324,-0.05508904159069061,-0.08312702178955078,0.18941813707351685,5.024239540100098,0.7084712982177734,0.652900218963623,-0.9609125095547871,0.30017616452586926,0.3351987242557825
2.6907057762145996,-0.06182767450809479,-0.12316244840621948,0.16150182485580444,4.871105194091797,0.8126869201660156,0.6316001415252686,-0.9117337160330348,0.2962704129081582,0.3209794670791717
2.7007007598876953,-0.06765441596508026,-0.11387878656387329,0.14644932746887207,4.737930774688721,0.8798906803131104,0.6962574124336243,-0.863801618348741,0.2952772696871081,0.3087754499540609
2.710752010345459,-0.06104680895805359,-0.0591205358505249,0.1525447964668274,4.6306681632995605,0.9165775179862976,0.7875359058380127,-0.8167658669893281,0.2969524342999319,0.29890427908597866
2.72084379196167,-0.046226292848587036,-0.007909655570983887,0.19268614053726196,4.486056327819824,0.8906944990158081,0.9009559750556946,-0.7706473641831714,0.3005408246848054,0.29122024766421617
2.7307398319244385,-0.03717696666717529,0.0033068060874938965,0.21237218379974365,4.411524295806885,0.8929887413978577,0.9877548217773438,-0.7253881666152169,0.3055135943083463,0.28546764455971896
2.7408738136291504,-0.03616844117641449,-0.00815659761428833,0.2074960470199585,4.496513366699219,0.9381077289581299,1.0213532447814941,-0.679901372885081,0.31137282018813395,0.2803827824736143
2.750898838043213,-0.05085867643356323,-0.00569605827331543,0.16912341117858887,4.659977912902832,0.9681395888328552,1.058825135231018,-0.6331593546887226,0.3176419128811452,0.27499492899499406
2.7618439197540283,-0.06199461221694946,0.04120558500289917,0.12387752532958984,4.8298234939575195,0.9746875166893005,1.0496652126312256,-0.5846452119627417,0.3239447739341208,0.2689840298364362
2.771568775177002,-0.0475410521030426,0.06543564796447754,0.09908068180084229,4.890225410461426,0.9937515258789062,1.011202096939087,-0.5352247215644301,0.33011264423265274,0.2620314484891862
2.7809228897094727,-0.03826296329498291,0.09069132804870605,0.11208009719848633,4.914071559906006,0.9841998815536499,0.9951483011245728,-0.4854834246403246,0.33635334596083755,0.2544828615180883
2.7908878326416016,-0.03492861986160278,0.1368340253829956,0.13571274280548096,4.800025463104248,0.910533607006073,0.9612828493118286,-0.4362942158802603,0.3423941217139282,0.24669240446435312
2.800841808319092,-0.03148052096366882,0.11648213863372803,0.1639370322227478,4.630870342254639,0.9048882126808167,0.9291195869445801,-0.38855193440046415,0.3482640900843188,0.2389125701583371
2.810922861099243,-0.025811702013015747,0.06797754764556885,0.1651393175125122,4.252683639526367,0.9206969738006592,0.8838918805122375,-0.3435567790227272,0.3548635103562988,0.2316491353540035
2.8209519386291504,-0.036746591329574585,0.032749682664871216,0.15508300065994263,3.7169134616851807,0.9404429793357849,0.7927358746528625,-0.3030921544608505,0.3620663563925076,0.22510816347534324
2.83090877532959,-0.035999149084091187,-0.030217796564102173,0.1515815258026123,3.0492217540740967,0.9599887728691101,0.6690576076507568,-0.2687944283629021,0.37004074691339417,0.219644990313357
2.840970993041992,-0.03823015093803406,-0.13906918466091156,0.14368700981140137,2.3205666542053223,0.9753823280334473,0.4677322506904602,-0.24174343488545674,0.37853920446310013,0.21498132686337845
2.850893020629883,-0.0518469512462616,-0.22534969449043274,0.13156723976135254,1.7314269542694092,0.995924711227417,0.38752731680870056,-0.22149534181694128,0.3875917046153846,0.21122396531494547
2.8610897064208984,-0.041522324085235596,-0.18693044781684875,0.10139310359954834,1.4174867868423462,0.9499580264091492,0.38177943229675293,-0.20558755152674618,0.3968498523327154,0.20877285214267235
2.871790885925293,-0.0030541419982910156,-0.08442331850528717,0.06022346019744873,1.2859547138214111,0.8777387738227844,0.3451153635978699,-0.19182935486588204,0.4056157853922641,0.20686135310904416
2.881134033203125,0.02214491367340088,-0.03514166176319122,0.004112303256988525,1.3633328676223755,0.8243144154548645,0.34199732542037964,-0.17838977415985002,0.4137225261028494,0.20469509433665597
2.891451835632324,0.03589749336242676,-0.01706312596797943,-0.04860079288482666,1.5880087614059448,0.7654768228530884,0.40028122067451477,-0.1634812758740269,0.4212662550574311,0.2020882139069147
2.900944709777832,0.03926977515220642,0.03399553894996643,-0.09221309423446655,1.8265352249145508,0.676220178604126,0.46660828590393066,-0.14604271832311436,0.4280022085149146,0.19894534907727382
2.9110379219055176,0.04008647799491882,0.08415669202804565,-0.09747117757797241,1.9842017889022827,0.5735435485839844,0.4866831302642822,-0.12666144535241833,0.43377206729871876,0.19529015684275589
2.921504020690918,0.03881850838661194,0.08155904710292816,-0.07521116733551025,1.943367600440979,0.5047945976257324,0.4516684412956238,-0.10670792148875995,0.4386502835270588,0.1911863159714759
2.931025981903076,0.02597925066947937,0.011508531868457794,-0.056065917015075684,1.7378206253051758,0.4976230561733246,0.3689911961555481,-0.08821522289940999,0.44324654347478687,0.18700689821064917
2.9411349296569824,0.012027919292449951,-0.0717337355017662,-0.04616886377334595,1.4451045989990234,0.5068050622940063,0.2608271837234497,-0.07246852857300673,0.4479394140602187,0.18296939865328632
2.9510316848754883,0.004186451435089111,-0.12062782794237137,-0.052390873432159424,1.1853327751159668,0.5561150312423706,0.1768186092376709,-0.059689150082005586,0.45298153075092495,0.1791937464103013
2.961164951324463,0.0018171966075897217,-0.12158269435167313,-0.07477277517318726,0.9620949625968933,0.6220617890357971,0.12404593825340271,-0.0494134792052624,0.45870195695879923,0.17580189835517568
2.9713597297668457,0.0029025375843048096,-0.07570433616638184,-0.09801292419433594,0.8247416615486145,0.6513829231262207,0.11710626631975174,-0.040940997870528614,0.46495850868605915,0.17287400372623085
2.9812979698181152,0.014367103576660156,-0.002796351909637451,-0.08773261308670044,0.7947496175765991,0.6558660864830017,0.15662038326263428,-0.03312162177718181,0.47142804968750646,0.1704505495658331
2.992419719696045,0.027202695608139038,0.07730227708816528,-0.06763821840286255,0.7821476459503174,0.6053391098976135,0.22161968052387238,-0.025239463977139137,0.4777251317884561,0.16851413531442658
3.0012118816375732,0.03512415289878845,0.14106318354606628,-0.05591893196105957,0.7055255770683289,0.4894598722457886,0.2610296607017517,-0.017430738534940662,0.4831950373900938,0.16721983493136058
3.0111749172210693,0.050954669713974,0.11588923633098602,-0.03126484155654907,0.5542035102844238,0.39495837688446045,0.22756503522396088,-0.01066736011915442,0.48757089463070435,0.1664452504893857
3.021368980407715,0.04993981122970581,0.02537704072892666,-0.018872082233428955,0.3559418320655823,0.3555273711681366,0.17786352336406708,-0.005659371826495461,0.49130969187563744,0.16606980051537581
3.0317349433898926,0.026445984840393066,-0.033966951072216034,-0.03236424922943115,0.14870578050613403,0.31836622953414917,0.132123202085495,-0.0027322169811993483,0.49469280086431094,0.1662392037127245
3.041167736053467,0.01605740189552307,-0.04683775454759598,-0.0483972430229187,0.0067121610045433044,0.2689044177532196,0.1113305613398552,-0.0015038949470359856,0.4976380776999556,0.16693976775227554
3.050994873046875,0.023222416639328003,-0.04257535934448242,-0.060123443603515625,-0.07209768146276474,0.2191447913646698,0.10685267299413681,-0.0013155989555303455,0.5000781651243191,0.16808731601520077
3.0612807273864746,0.02609315514564514,-0.020039813593029976,-0.06984764337539673,-0.08215058594942093,0.169387087225914,0.10721699148416519,-0.0015003890278282364,0.5020244091290469,0.16940807573737013
3.0713589191436768,0.01852351427078247,-0.008624957874417305,-0.07329154014587402,-0.061899375170469284,0.12185712158679962,0.11943024396896362,-0.0016059175413530788,0.5034712853472786,0.17075838406709526
3.081268787384033,0.006778329610824585,-0.004036716651171446,-0.07074368000030518,-0.03281579166650772,0.09395038336515427,0.12886424362659454,-0.0014122083886431893,0.5045468696864173,0.17207317620527665
3.0912699699401855,-0.0057631731033325195,-0.006730279885232449,-0.06237351894378662,-0.028502153232693672,0.07267541438341141,0.12935392558574677,-0.0010540142426078306,0.5053820920352956,0.1733474547210646
3.1013259887695312,-0.02016359567642212,-0.010506108403205872,-0.046068429946899414,-0.01837548241019249,0.061642467975616455,0.13754181563854218,-0.0006031593194409484,0.5060577141882785,0.17463964842110327
3.1112778186798096,-0.03141212463378906,-0.014300990849733353,-0.03006112575531006,-0.016273848712444305,0.05736241489648819,0.13822215795516968,-7.97995971142667e-05,0.5066540497036737,0.17593425898178225
3.121595859527588,-0.03923904895782471,-0.021063057705760002,-0.022426187992095947,-0.014650385826826096,0.0451640710234642,0.1341049075126648,0.0004518355653534937,0.5071767321537741,0.17720601531968402
3.1313018798828125,-0.04024359583854675,-0.02316560596227646,-0.014433085918426514,-0.022666851058602333,0.029928704723715782,0.1337525099515915,0.0009432791531130848,0.5075581257316762,0.17846591403905754
3.1413660049438477,-0.0324099063873291,-0.015659254044294357,-0.010169804096221924,-0.03902771323919296,0.01889842376112938,0.12778782844543457,0.0013237773278363082,0.507795992757346,0.17975470740314317
3.151315689086914,-0.03139016032218933,-0.010882566682994366,-0.009986817836761475,-0.0674288421869278,0.00906696543097496,0.11922267824411392,0.0014617910255917154,0.5079213765684669,0.18108242469850233
3.1613287925720215,-0.03170663118362427,-0.013444697484374046,-0.004631936550140381,-0.09222633391618729,0.005562778562307358,0.10408207774162292,0.0013105521817373942,0.507986498414932,0.18244573042516798
3.171705722808838,-0.028835058212280273,-0.01732662133872509,-0.002691984176635742,-0.11578170955181122,0.009432751685380936,0.09758386015892029,0.0009076296912155186,0.5079829616982497,0.18384026766124034
3.1813979148864746,-0.027681440114974976,-0.012928007170557976,-0.0015895962715148926,-0.11626800894737244,0.019960759207606316,0.09672073274850845,0.00042343185156989695,0.5080071719240169,0.18526194517901282
3.1915769577026367,-0.022725224494934082,-0.00683232257142663,-0.0009706616401672363,-0.1086469441652298,0.02943974919617176,0.09988973289728165,3.413342063213832e-05,0.5081151994619869,0.1866751784397284
3.2015469074249268,-0.019257843494415283,0.006415443029254675,0.0011318325996398926,-0.09044130146503448,0.027798442170023918,0.11288435757160187,-8.480270102291289e-05,0.5082158684416616,0.1880907092874252
3.2120118141174316,-0.01274019479751587,0.01838175766170025,0.005978584289550781,-0.08180805295705795,0.005697978660464287,0.11518581211566925,1.0177112907993347e-05,0.508195906369172,0.18951809907641007
3.221531867980957,-0.0037623941898345947,0.01057908684015274,0.013970792293548584,-0.07810332626104355,-0.005989304278045893,0.09978768229484558,5.052106330700091e-05,0.5080147921055812,0.19085880948067174
3.2313318252563477,0.0005098879337310791,-0.002820810070261359,0.011268377304077148,-0.08416241407394409,-0.013187650591135025,0.0903163030743599,2.064642302874657e-06,0.5077356322528638,0.19207207228932435
3.2420668601989746,0.005251526832580566,-0.0026717474684119225,0.0024723410606384277,-0.09872032701969147,-0.03674197942018509,0.07009359449148178,-4.723316269740125e-05,0.5072162537806106,0.19321827063919478
3.2519350051879883,0.008498191833496094,0.0006321030668914318,0.005279481410980225,-0.11809628456830978,-0.04554736614227295,0.05507240444421768,-0.00029868420483527414,0.5065570159988793,0.19429142609301872
3.2622017860412598,0.0070296525955200195,-0.002162490040063858,0.01188516616821289,-0.13421081006526947,-0.04355984926223755,0.04321414604783058,-0.000850233220642535,0.5058984088450544,0.19532564634878502
3.2718539237976074,0.002622544765472412,0.0024837935343384743,0.013079524040222168,-0.16526798903942108,-0.04108905792236328,0.0312906950712204,-0.0017886715990164364,0.5053204927085388,0.19636743841452103
3.2816548347473145,0.0004730820655822754,0.004493527114391327,0.018133878707885742,-0.2151644378900528,-0.03427562490105629,0.02215924859046936,-0.0034105349427219905,0.5048322876324323,0.1975189467638095
3.2915797233581543,-0.0017064213752746582,0.002521086484193802,0.03068763017654419,-0.24825045466423035,-0.01761089451611042,0.018716366961598396,-0.005642395792761988,0.5045386634066538,0.19882056900174985
3.301482915878296,-0.008749783039093018,0.010566463693976402,0.0381394624710083,-0.23710352182388306,-0.010405978187918663,0.02000906690955162,-0.007774678369439821,0.504469769589232,0.200182016152106
3.3115649223327637,-0.0159035325050354,0.015704620629549026,0.037628769874572754,-0.20350176095962524,-0.0023470758460462093,0.005484878085553646,-0.00950304432128115,0.5044575439234603,0.20137154978127622
3.3217577934265137,-0.01943400502204895,0.0002669328823685646,0.037532031536102295,-0.15354645252227783,-0.005445930175483227,-0.01251542754471302,-0.010979014019898894,0.5044723945389668,0.20219723749626425
3.3315277099609375,-0.02211734652519226,-0.009383966214954853,0.03168940544128418,-0.10727716982364655,-0.0017052097246050835,-0.029998119920492172,-0.012115582878632165,0.5044771364344256,0.20264243240203042
3.341583728790283,-0.02182304859161377,-0.013693885877728462,0.021007239818572998,-0.07077109068632126,0.02108665555715561,-0.0501454696059227,-0.012977089379105786,0.5046175455458969,0.20270817479728306
3.3515498638153076,-0.02572011947631836,-0.01316166389733553,0.0067206621170043945,-0.041780538856983185,0.0343250073492527,-0.05005507916212082,-0.01365037178940337,0.5049258284940881,0.202541404253879
3.3616299629211426,-0.024479717016220093,-0.006812777370214462,0.00014340877532958984,-0.02327156998217106,0.04125215485692024,-0.049006327986717224,-0.014122208819531908,0.505325462975416,0.20225995616654746
3.372382879257202,-0.021330207586288452,-0.006576459854841232,0.004884839057922363,-0.02609819918870926,0.05210404843091965,-0.04663462191820145,-0.014526799332145502,0.5058274360960875,0.20195356486689775
3.3817009925842285,-0.02307996153831482,-0.01062821689993143,0.012426018714904785,-0.03236088901758194,0.062269069254398346,-0.040437448769807816,-0.015038577681960577,0.5064365616121839,0.20172650586405075
3.391887903213501,-0.025234192609786987,-0.017668485641479492,0.02152848243713379,-0.04759207367897034,0.07450255751609802,-0.031839750707149506,-0.015654966891425984,0.5071257041288179,0.20159908393666107
3.401599884033203,-0.02329927682876587,-0.01875818334519863,0.023899853229522705,-0.03865477070212364,0.07592202723026276,-0.01651432365179062,-0.01613436815007423,0.5078841228993998,0.20160754669008843
3.4116828441619873,-0.017804980278015137,-0.011316196992993355,0.01780414581298828,-0.019014257937669754,0.06652222573757172,0.0007701243739575148,-0.016337067506465897,0.5085834342735085,0.20167782900489342
3.4218239784240723,-0.010102957487106323,-0.008289499208331108,0.010962069034576416,-0.0061003235168755054,0.04944257438182831,0.009938589297235012,-0.016316345631461678,0.5091291729980806,0.2017862552429849
3.431647777557373,-0.0034560561180114746,-0.012026796117424965,0.007943987846374512,0.0010510128922760487,0.03849178925156593,0.008185217157006264,-0.016193153755955095,0.5095018821889411,0.2018801151564121
3.442492961883545,-0.0025853514671325684,-0.026744117960333824,0.0038181543350219727,0.008089480921626091,0.042584266513586044,0.011155174113810062,-0.01603313624757086,0.5098315155787285,0.2019405217432313
3.4517228603363037,-0.003952205181121826,-0.03715396672487259,-0.0049607157707214355,-0.00010183616541326046,0.04016505554318428,0.010431380942463875,-0.01588388362927946,0.5101899955567274,0.20200631512490275
3.461716890335083,-0.001014798879623413,-0.02938571758568287,-0.012430310249328613,-0.0052233608439564705,0.02632327377796173,0.016459710896015167,-0.015760273439943278,0.5104599003178355,0.20212709575418714
3.471940040588379,0.005925536155700684,-0.019734039902687073,-0.015538513660430908,-0.0002823485992848873,0.011681347154080868,0.02513836696743965,-0.015492720830296845,0.5105828204356009,0.20232657945270782
3.4817557334899902,0.013551384210586548,-0.01214489433914423,-0.017915010452270508,0.021275941282510757,-0.012001344934105873,0.033052217215299606,-0.014983589802268663,0.5104950348800794,0.20252524906767894
3.4917759895324707,0.014707565307617188,-0.0010903486981987953,-0.020134449005126953,0.022041067481040955,-0.03495726361870766,0.029384244233369827,-0.014442293047387268,0.5101797839924781,0.20267908020022715
3.5019826889038086,0.015755146741867065,-0.003662734292447567,-0.02017444372177124,-0.002203020267188549,-0.057576023042201996,0.02206721156835556,-0.014115472339399852,0.5096761459908141,0.20285005887303498
3.5117928981781006,0.0175325870513916,-0.009439637884497643,-0.01787734031677246,-0.022360902279615402,-0.07068876177072525,0.01741029880940914,-0.013956695825552938,0.5090371769865808,0.2030877123179679
3.52227783203125,0.012643307447433472,-0.00909397006034851,-0.016504943370819092,-0.04505716264247894,-0.07460600137710571,0.008962221443653107,-0.013763596213211238,0.508291800884261,0.20337667415609806
3.531770706176758,0.005036443471908569,-0.005239725112915039,-0.015748202800750732,-0.057363077998161316,-0.08136967569589615,0.0005220775492489338,-0.013601957784933144,0.507461346532543,0.20367047487328183
3.541846752166748,0.0015010833740234375,-0.0040010735392570496,-0.013673186302185059,-0.05187297239899635,-0.09023401141166687,-0.00818539410829544,-0.013660316225435808,0.5065487573986084,0.20389636003766803
3.5519227981567383,-0.00019428133964538574,-0.00013190321624279022,-0.009946763515472412,-0.024709461256861687,-0.09344711899757385,-0.00839594379067421,-0.013758434292071683,0.5056266743761706,0.2040047530224605
3.561870813369751,-0.006691545248031616,0.00928009208291769,-0.005265235900878906,0.006076414603739977,-0.09232912212610245,-0.012076964601874352,-0.013715332160106937,0.5047510029504285,0.20395429304182164
3.572056770324707,-0.01278725266456604,0.012782217003405094,-0.007608771324157715,0.03156651183962822,-0.09163177013397217,-0.02145315520465374,-0.013631170128362345,0.5038873519841452,0.20372036002647956
3.581868886947632,-0.014091640710830688,0.006634698249399662,-0.007363080978393555,0.04404768347740173,-0.09536898136138916,-0.028225041925907135,-0.013354711948094422,0.5030052350291354,0.20331208649063623
3.591860771179199,-0.012701362371444702,0.002974318340420723,-0.003587484359741211,0.04262566938996315,-0.09807178378105164,-0.03326188027858734,-0.013002001367165035,0.5021126419995036,0.20283232684674826
3.60182785987854,-0.013014346361160278,0.0036450428888201714,0.0004811286926269531,0.04146239906549454,-0.09797697514295578,-0.03707712143659592,-0.012682205517717957,0.501179455445757,0.20231757026344166
3.6121208667755127,-0.015537828207015991,-0.0037903981283307076,0.0027409791946411133,0.038064491003751755,-0.09649168699979782,-0.04295487701892853,-0.012457714518624454,0.5002277708372452,0.2017888238692551
3.6220107078552246,-0.01857563853263855,-0.010408761911094189,0.0039255619049072266,0.03218236565589905,-0.09864804893732071,-0.05078057572245598,-0.012346946624102453,0.4992548556807554,0.2012086967601148
3.632004737854004,-0.017330825328826904,-0.006861306726932526,0.0023146867752075195,0.023762118071317673,-0.1079597920179367,-0.0550808347761631,-0.012370041218557845,0.49821972682853644,0.2006019715190973
3.6418628692626953,-0.009507894515991211,-0.002375754527747631,0.001091301441192627,0.018963102251291275,-0.10414507985115051,-0.05784093588590622,-0.012614736830796128,0.4971327868897624,0.19999106720813428
3.6518688201904297,-0.008314758539199829,-0.005881014280021191,0.003484368324279785,0.011224738322198391,-0.09834572672843933,-0.056793462485075,-0.012961458403560323,0.49607308378184806,0.19940770780314526
3.6619057655334473,-0.01101309061050415,-0.005263705737888813,0.004067897796630859,0.00721348449587822,-0.09707273542881012,-0.05539104342460632,-0.013244438237749517,0.4950314547289416,0.1988741339942045
3.6720290184020996,-0.007947087287902832,0.0015373127534985542,0.010836601257324219,0.019373010843992233,-0.09858923405408859,-0.05077067017555237,-0.013431965978538752,0.49401105847444393,0.19834390300603177
3.6819279193878174,-0.004251956939697266,0.007202413864433765,0.018364250659942627,0.034074727445840836,-0.10079220682382584,-0.04439666122198105,-0.013458396526806821,0.4929687894251261,0.19779320354847835
3.691934823989868,-0.0011749565601348877,0.014297454617917538,0.017689168453216553,0.04331393167376518,-0.10112891346216202,-0.04020356759428978,-0.013245052093352826,0.4919168298346215,0.19722824030764763
3.7021307945251465,0.0022864043712615967,0.013968586921691895,0.018795490264892578,0.05202273651957512,-0.10253506153821945,-0.03189849853515625,-0.012826199274158049,0.4908434853926231,0.19668816408175804
3.7121078968048096,0.0032507777214050293,0.01251259259879589,0.021414995193481445,0.051812462508678436,-0.1088436022400856,-0.03339551389217377,-0.01239007179908013,0.48973006874233177,0.19615029396867908
3.7222347259521484,0.004920005798339844,0.0070729851722717285,0.02581685781478882,0.025669805705547333,-0.10927316546440125,-0.035909004509449005,-0.012168653073329896,0.4886153954852444,0.1956456357255839
3.7318358421325684,0.007159054279327393,-0.0012076124548912048,0.027949154376983643,-0.007346250116825104,-0.10259364545345306,-0.042195502668619156,-0.01220950287480845,0.48754898466628266,0.19525203500775679
3.741912841796875,0.006940007209777832,-0.005106715485453606,0.028272151947021484,-0.030807366594672203,-0.08661574870347977,-0.041353680193424225,-0.012538074077400839,0.4865902750971091,0.19497803922797843
3.7519240379333496,0.0046173930168151855,-0.0048415325582027435,0.02587103843688965,-0.03512120619416237,-0.06844043731689453,-0.04042477160692215,-0.013066389544999038,0.48583809572468734,0.1947805619333348
3.76203989982605,0.0008762180805206299,-0.0038424385711550713,0.025471270084381104,-0.01779201626777649,-0.055393338203430176,-0.043584078550338745,-0.013593224140281033,0.4852755248199709,0.19454784925082777
3.772064685821533,0.0024186372756958008,-0.0039021754637360573,0.026210129261016846,0.014279967173933983,-0.04426576569676399,-0.036023467779159546,-0.013912389134902644,0.4848279196508018,0.19419541686420277
3.7820568084716797,0.004893302917480469,0.0016229180619120598,0.023059308528900146,0.04003486409783363,-0.02546118199825287,-0.02534712292253971,-0.01392623801383061,0.4845489341323636,0.19378907741570484
3.7919209003448486,0.0057446956634521484,0.007453979924321175,0.019783854484558105,0.054885514080524445,-0.01775887794792652,-0.01443423517048359,-0.013695132779932371,0.48441280385161256,0.19338757414750243
3.8019657135009766,0.007042825222015381,0.003823578357696533,0.02273702621459961,0.05679686367511749,-0.01215265691280365,-0.010613929480314255,-0.013297178818337618,0.4843397464786728,0.19300487359196758
3.811954975128174,0.00747835636138916,-0.00045755784958601,0.028736352920532227,0.03375875949859619,-0.008044376038014889,-0.011528139933943748,-0.012924346504545674,0.4843105553939664,0.19270229347709295
3.8226478099823,0.007582724094390869,-0.0036626067012548447,0.02973717451095581,0.0066978465765714645,-0.009824433363974094,-0.013126037083566189,-0.012772454820093551,0.48429502345401965,0.19249642526054017
3.8323628902435303,0.011081129312515259,-0.011859133839607239,0.02976250648498535,-0.011675701476633549,-0.013600440695881844,-0.01374405063688755,-0.012836052946500939,0.4842390624855545,0.19238659589653026
3.842416763305664,0.013030797243118286,-0.010197333991527557,0.032202303409576416,-0.021471340209245682,-0.020759284496307373,-0.010909914039075375,-0.013035836440330831,0.48410639814064393,0.19236695377855537
3.8522276878356934,0.00892406702041626,-0.0013054963201284409,0.027517259120941162,-0.02228047512471676,-0.021494492888450623,-0.009055076166987419,-0.013268775341097128,0.4839379747878074,0.1923948453025467
3.862262725830078,0.010928988456726074,0.0036574946716427803,0.016443252563476562,-0.010507438331842422,-0.02233312278985977,-0.012769386172294617,-0.013478533417965281,0.48376029043212077,0.1923731573152299
3.8723058700561523,0.013653606176376343,-0.001434910111129284,0.0031197071075439453,-0.008940251544117928,-0.022213680669665337,-0.010539255104959011,-0.013672887354538163,0.48359683540499154,0.19230693778225472
3.8821587562561035,0.012705862522125244,0.001712121069431305,-0.0025254487991333008,-0.013018883764743805,-0.025397490710020065,-0.004270174540579319,-0.013821766602074015,0.48342750871748946,0.19229241412447035
3.892292022705078,0.010719597339630127,0.002527759410440922,0.00036585330963134766,-0.01405864767730236,-0.024621888995170593,-0.006405816413462162,-0.01396744686854394,0.48327639607579537,0.1923085145025025
3.9021220207214355,0.008697867393493652,-0.005064818076789379,0.004482686519622803,-0.022318175062537193,-0.023613881319761276,-0.0037887280341237783,-0.014098487340709873,0.48314807849840163,0.1923460618149381
3.9121618270874023,0.007114380598068237,-0.006970394402742386,0.000914454460144043,-0.015726901590824127,-0.02165357396006584,-0.0042842356488108635,-0.01415775848976855,0.48307571599654386,0.19240777756336122
3.92225980758667,0.009548932313919067,-0.0038380827754735947,-0.004297852516174316,0.0015764543786644936,-0.025833405554294586,-0.0020706162322312593,-0.014092459609066098,0.48303126765109144,0.192417729958468
3.9321208000183105,0.011571705341339111,-0.004900885745882988,-0.0055162906646728516,0.023307116702198982,-0.03607965260744095,0.00687531428411603,-0.013965061541290244,0.48286551743148576,0.19239093355668302
3.94223690032959,0.01501414179801941,-0.00440116785466671,-0.0032663345336914062,0.031206052750349045,-0.04244913160800934,0.020315490663051605,-0.01369420389002071,0.48259473800926733,0.19238876152472478
3.952361822128296,0.015150398015975952,-0.0050869230180978775,-0.003139674663543701,0.015723032876849174,-0.04899287223815918,0.028277061879634857,-0.013357585462573452,0.48223178442359527,0.19248903329506956
3.964831829071045,0.01556396484375,-0.012253053486347198,-0.0009992718696594238,-0.011491809971630573,-0.05273861065506935,0.03450512886047363,-0.013214740554302797,0.4817984400289792,0.1927545711555595
3.973214864730835,0.01579761505126953,-0.018968956544995308,0.003840327262878418,-0.044988952577114105,-0.0579233393073082,0.04286383464932442,-0.013323598676130446,0.4813289388126345,0.19323422130323453
3.9824018478393555,0.014702677726745605,-0.020394332706928253,0.008173763751983643,-0.07265014201402664,-0.0589023157954216,0.0484149307012558,-0.013589331198181284,0.480827444331254,0.19392038986128293
3.9925079345703125,0.013742983341217041,-0.02169717103242874,0.008109033107757568,-0.09535562992095947,-0.06031162291765213,0.04261957108974457,-0.014037724006658507,0.4802953463526832,0.1947134085153341
