timestamp,accel_x,accel_y,accel_z,rotation_x,rotation_y,rotation_z, pitch,roll,yaw
0.04506492614746094,0.001982279121875763,0.0070289792492985725,-0.000593721866607666,0.008443765342235565,0.012930843979120255,-0.008133511058986187,0.013193924778883303,0.07059229761822595,-0.0004658950169573594
0.053894996643066406,-0.0002975165843963623,0.0017417650669813156,0.0004961490631103516,0.004050597548484802,0.006854531355202198,-0.013858082704246044,0.013247291352059447,0.07070569944241689,-0.0005831972143996404
0.05612993240356445,-0.00027664750814437866,-0.0011019790545105934,0.0010423064231872559,0.004313452169299126,0.000929263886064291,-0.013496692292392254,0.013272202550726371,0.07074598936349408,-0.0007269858144203263
0.06224393844604492,0.0021330788731575012,-0.00023299828171730042,0.002888321876525879,0.00032773171551525593,-0.0018566688522696495,-0.014074650593101978,0.013286691341323601,0.07074717080764355,-0.000878905699524312
0.07185888290405273,-0.0009550675749778748,-0.002207968384027481,0.004417538642883301,-0.0024131936952471733,-0.006029575597494841,-0.013736163266003132,0.013249585249674237,0.07070712584411563,-0.001014422564911509
0.08170509338378906,-0.0011302754282951355,-0.005075094290077686,0.003110349178314209,0.004018107429146767,-0.0075538805685937405,-0.012403410859405994,0.013235852429610956,0.07063800053630327,-0.0011471591038114879
0.09238195419311523,-0.00012193620204925537,-0.004361293278634548,0.006180822849273682,0.010519416071474552,-0.0062308222986757755,-0.006220882758498192,0.013308788753181797,0.07057560537759991,-0.0012391711629197292
0.10165214538574219,-0.0013368576765060425,-0.002358163706958294,0.004917740821838379,0.008993159048259258,-0.00844479724764824,-0.0009279029327444732,0.0134045802528652,0.07050871355367727,-0.0012851125986457796
0.11184120178222656,-0.0004171207547187805,-0.0034069884568452835,0.002039492130279541,0.00854867696762085,-0.010517003014683723,-0.0005329561536200345,0.013484910904695566,0.07041277971407409,-0.0013067289600595387
0.12164020538330078,0.0010448023676872253,-0.005219453014433384,0.006133615970611572,0.013723015785217285,-0.0027810074388980865,0.004052421078085899,0.013595064689829985,0.0703240224586116,-0.0012977105713062934
0.13179898262023926,-0.0015794336795806885,-0.0029452573508024216,0.008342146873474121,0.011599943973124027,0.007588276173919439,0.008840784430503845,0.01373304185828634,0.07035448073253003,-0.0012474944171791517
0.14307498931884766,-0.003779686987400055,-0.0010493528097867966,0.0014707446098327637,0.010228216648101807,-0.0006630844436585903,0.005455427803099155,0.013843677972103318,0.07040346788559042,-0.001179546015276232
0.1521458625793457,0.0006500482559204102,0.003692888654768467,0.0002084970474243164,0.010503587312996387,-0.012964492663741112,-0.0012413570657372475,0.013947258304558379,0.07032238961874834,-0.00117245573587457
0.16221308708190918,0.006922028958797455,0.004450822249054909,0.004486680030822754,0.015779443085193634,-0.007093996740877628,-0.0027757638599723577,0.01407959504113352,0.07021480446480348,-0.0012070709417237408
0.17193889617919922,0.0014875233173370361,0.006498652510344982,0.008761227130889893,0.010766574181616306,-0.006315554492175579,-0.0012662841472774744,0.014220089357525695,0.07015614839599023,-0.001219793266453047
0.18184518814086914,-0.002403944730758667,0.008520130068063736,0.0071656107902526855,0.0056895907036960125,-0.01467219926416874,-0.011561905033886433,0.014288449158875954,0.07004959517774194,-0.0012871876000631747
0.19284820556640625,0.0008746609091758728,0.006380856968462467,0.008458316326141357,0.005514353979378939,-0.018988117575645447,-0.020379098132252693,0.014331188007340082,0.06988341375365652,-0.0014584490270432699
0.2018749713897705,0.0031587406992912292,0.004068352282047272,0.011790871620178223,0.00640142010524869,-0.008690295740962029,-0.017751997336745262,0.01447536297579807,0.06976591999612766,-0.0016616546036882036
0.21191906929016113,-0.002589300274848938,0.007667155936360359,0.011321306228637695,0.0016772383823990822,-0.00352482870221138,-0.022820258513092995,0.014549395649924288,0.06970028035163962,-0.0018606742628690261
0.22220993041992188,-0.0041181668639183044,0.004436749964952469,0.011341631412506104,0.00114547205157578,-0.007201855070888996,-0.02594830095767975,0.014553852651430393,0.06962678709180181,-0.002107069328064608
0.2320089340209961,-6.653368473052979e-05,0.0037244614213705063,0.011086821556091309,0.007977278903126717,-0.007539011538028717,-0.026001032441854477,0.014497684554117662,0.06957276448371415,-0.0023748483877164186
0.24270200729370117,0.001806601881980896,0.007890335284173489,0.013098180294036865,0.004480465315282345,-0.0028048427775502205,-0.022504035383462906,0.014452127151987584,0.06962231767554782,-0.002626430661240804
0.25208497047424316,0.00023031234741210938,0.005786716938018799,0.013586819171905518,-0.0020693130791187286,-0.000593886710703373,-0.020520247519016266,0.014332141445567933,0.06964214209054909,-0.002841057753360347
0.26206302642822266,0.0002396106719970703,-0.0005571721121668816,0.011195898056030273,-0.0026724522467702627,-0.0011816462501883507,-0.022607525810599327,0.014122264239323914,0.06961731447153038,-0.003055690493668366
0.2719380855560303,0.002679668366909027,0.0003405837342143059,0.012889325618743896,-0.00018772296607494354,0.0002354215830564499,-0.01666121929883957,0.013982406949704377,0.0696491212405194,-0.0032464387874944502
0.2819390296936035,0.0011154338717460632,0.0033482983708381653,0.010213851928710938,0.0062148491851985455,0.00471157394349575,-0.01588192582130432,0.013938360270798505,0.06973341494818068,-0.003408674699600822
0.29233598709106445,0.002692997455596924,0.0035909824073314667,0.006704509258270264,0.009483879432082176,0.0017277682200074196,-0.01460573822259903,0.013875863836669233,0.06974274089794438,-0.0035649030161759316
0.3019571304321289,0.0031800642609596252,0.0044866204261779785,0.005729615688323975,0.00969788059592247,-0.001317956019192934,-0.01411070954054594,0.01390175365578883,0.06971338834653848,-0.00371176683876254
0.31220388412475586,0.003665141761302948,0.004813867621123791,0.008812665939331055,0.0018498115241527557,-0.0006404481828212738,-0.013912304304540157,0.013908565927589772,0.06970130719749534,-0.003861582052618449
0.3221759796142578,0.004158802330493927,0.0008513890206813812,0.0088120698928833,-0.006195531226694584,0.0019088189583271742,-0.016771581023931503,0.013745512086312733,0.06974164535823289,-0.004010359959926176
0.3321540355682373,0.00411832332611084,-0.004992516711354256,0.00795835256576538,-0.00987309031188488,-0.001363939605653286,-0.017334839329123497,0.013562597715000138,0.06976675667290784,-0.004169009041205357
0.34324216842651367,0.004866935312747955,-0.004826420918107033,0.008325695991516113,-0.007337777875363827,-0.003067785408347845,-0.015565115958452225,0.013484544615181723,0.06976575113888583,-0.0043221235736736596
0.3521099090576172,0.006853252649307251,0.0004950864240527153,0.007091164588928223,-0.009881628677248955,-0.006068901624530554,-0.014507042244076729,0.01338917480707362,0.06976297666215064,-0.004458951379588965
0.3622400760650635,0.008007727563381195,0.002195916138589382,0.005066335201263428,-0.0031966124661266804,-0.005618783179670572,-0.015393181703984737,0.013258939068735159,0.06972217369395287,-0.004608266236777429
0.37216711044311523,0.005436830222606659,-0.001348978839814663,0.005298137664794922,-0.004508219193667173,-0.006713342387229204,-0.01255132257938385,0.013162519329188983,0.06969891889128711,-0.0047473199654932755
0.38217806816101074,0.003679826855659485,-6.447918713092804e-05,0.007238626480102539,-0.008747639134526253,-0.004026834852993488,-0.013161665759980679,0.013027940359220188,0.06968575610334919,-0.004874227007944663
0.3930349349975586,0.0018064901232719421,-0.001161213032901287,0.00670236349105835,-0.004871940240263939,0.005315800663083792,-0.012055122293531895,0.01289250127134716,0.06974331252057688,-0.005008939234111754
0.40216898918151855,0.0008753985166549683,-0.004797510802745819,0.006480395793914795,0.003249435918405652,0.008973830379545689,-0.010439862497150898,0.012872534922839036,0.06986598283130836,-0.00512344343548825
0.41226696968078613,-0.001498594880104065,-0.0017282897606492043,0.008694469928741455,0.01653621345758438,0.012160035781562328,-0.008902419358491898,0.013057858902162912,0.07002802886859912,-0.005228640877357404
0.4222431182861328,-0.001283407211303711,0.0009615067392587662,0.010219395160675049,0.020829293876886368,0.013359434902668,-0.010053650476038456,0.01332153265804904,0.07021028265448241,-0.005338592591472438
0.432265043258667,0.0008280500769615173,-0.0004179012030363083,0.006936967372894287,0.01740846410393715,0.012872342951595783,-0.009746587835252285,0.013498535592295741,0.07041886368059168,-0.0054380531611797995
0.443742036819458,0.002508126199245453,-0.0026689963415265083,0.0054100751876831055,0.01181035116314888,0.013091476634144783,-0.011297665536403656,0.013597303524084487,0.07063151421416933,-0.00555546106674103
0.4523940086364746,0.0034033209085464478,-0.005155915394425392,0.005853235721588135,0.005729821044951677,0.01259586215019226,-0.00964251160621643,0.013689127036789804,0.07082027316823772,-0.005667580909366851
0.46249914169311523,0.002484157681465149,-0.004964054562151432,0.007597446441650391,0.005214199423789978,0.008635741658508778,-0.009748026728630066,0.013728404701102672,0.07096164548696536,-0.005767419480207498
0.47238707542419434,0.004378870129585266,-0.002499452792108059,0.006341338157653809,0.006448308937251568,-0.0006909151561558247,-0.00904974527657032,0.013782122631869039,0.07102025437018385,-0.005861864577133188
0.48232316970825195,0.005312077701091766,0.00020296592265367508,0.0038558244705200195,0.006827992387115955,-0.00777168245986104,-0.005476742051541805,0.013905817237301603,0.07097205952158107,-0.005951409097568523
0.4930448532104492,0.006944082677364349,0.001536835916340351,0.004837691783905029,0.00829779077321291,-0.004781218711286783,-0.00748955924063921,0.013988474082496068,0.07088104201333675,-0.0060344244485691055
0.5024089813232422,0.002817600965499878,0.0005506705492734909,0.004990816116333008,0.011171657592058182,-0.0003810110501945019,-0.004748953506350517,0.01407043377882384,0.07085715302133017,-0.006103403757370296
0.5123720169067383,0.00011315196752548218,-0.0007340237498283386,0.00393754243850708,0.007752957753837109,-0.004269225988537073,-0.008703481405973434,0.01415903936839744,0.07084559305977407,-0.0061749395480148175
0.5224099159240723,0.000668942928314209,0.0019777948036789894,0.0067629218101501465,0.004692303016781807,-0.010950164869427681,-0.011359292082488537,0.014246352877300507,0.07079328155347062,-0.006286870409567509
0.5325331687927246,0.003919042646884918,7.304828613996506e-05,0.008413612842559814,0.004942639730870724,-0.009954676032066345,-0.007117941044270992,0.014355779711143622,0.07073222789651103,-0.006384081282973103
0.5426878929138184,0.0011735931038856506,0.0013928497210144997,0.009453535079956055,-0.0017207051860168576,-0.0057941521517932415,-0.007556724362075329,0.014424368775817957,0.07068527029237806,-0.006458367679512151
0.5524649620056152,-0.0011517703533172607,0.002323877066373825,0.010612308979034424,0.004699910059571266,-0.002470527309924364,-0.005804363638162613,0.014455128652569376,0.07069134472057728,-0.006523484895666055
0.5625090599060059,-0.0026996880769729614,0.0004373425617814064,0.009114205837249756,0.013803576119244099,-0.003970819059759378,-0.0033547882921993732,0.014536985967190434,0.07071352216089967,-0.006576887323778577
0.5727159976959229,-0.0013451054692268372,0.00587957538664341,0.010164022445678711,0.01501504797488451,-0.006314933765679598,-0.0012405049055814743,0.014653915444371696,0.07073239899384791,-0.006612178597757745
0.5824871063232422,0.0027002692222595215,0.005292319692671299,0.008669257164001465,0.011635662987828255,-0.007242956664413214,-0.0016962781082838774,0.014768576742127053,0.07070012703688372,-0.006638626125016328
0.5938801765441895,0.003952592611312866,-0.0003436785191297531,0.009862780570983887,0.002200616290792823,-0.007057067472487688,-0.0042020464316010475,0.014839371405676314,0.07063790110812906,-0.006683547942761039
0.6025009155273438,0.0033620521426200867,-0.0023720217868685722,0.0111197829246521,-0.008201374672353268,-0.009319111704826355,-0.005069278180599213,0.014764147555847013,0.07057206399239722,-0.006729127574587383
0.6125411987304688,0.004583872854709625,0.0012733004987239838,0.010012924671173096,-0.010954550467431545,-0.013155929744243622,-0.006779293529689312,0.014655794130037862,0.07049433230826353,-0.00678790157986807
0.6224079132080078,0.00587250292301178,0.0023676585406064987,0.011091172695159912,-0.011506956070661545,-0.013723536394536495,-0.010130615904927254,0.014514176463603014,0.07038018872698917,-0.00687488533832388
0.6325578689575195,0.0028546899557113647,0.0006056670099496841,0.012535154819488525,-0.006503143347799778,-0.009852100163698196,-0.00998360849916935,0.014384862024667138,0.07026952887328827,-0.006969735005807036
0.6426889896392822,0.0028310567140579224,0.002691035158932209,0.015195488929748535,0.0006043675821274519,-0.0019897380843758583,-0.005524092819541693,0.0143492527935439,0.07020139612783713,-0.007037117217387317
0.6526141166687012,0.001483231782913208,0.005845041945576668,0.012828528881072998,0.004869685973972082,0.007718815468251705,-0.004336589481681585,0.014298909404288965,0.0702370205435317,-0.007089441943461359
0.6628351211547852,-0.0015068575739860535,0.004589698277413845,0.010925590991973877,0.009164898656308651,0.015051119029521942,-0.0017070906469598413,0.014310048190083118,0.07038937415806132,-0.007123645389605857
0.6727080345153809,0.0016794204711914062,0.00425850972533226,0.006531834602355957,0.006650608964264393,0.012869191356003284,0.001057536923326552,0.014406112879283787,0.07057586870145943,-0.007125121017750201
0.6824309825897217,0.005810268223285675,0.004380134865641594,0.003713071346282959,0.0015546001959592104,0.008448921144008636,-0.0032786219380795956,0.014481972510587976,0.07071792921804829,-0.007144674725900588
0.6924409866333008,0.009034045040607452,-0.0019320212304592133,0.007229030132293701,-0.00838591530919075,0.006593496538698673,-0.0018295960035175085,0.014441171352010052,0.07085139156334957,-0.007173832083958591
0.702625036239624,0.008152075111865997,-0.006316982209682465,0.008443355560302734,-0.014073926955461502,0.00457295635715127,-0.0015534794656559825,0.014298139276028077,0.07097057599383305,-0.007170566251224176
0.7125470638275146,0.0069756582379341125,-0.005192616023123264,0.0075569748878479,-0.012830497696995735,-0.0015073064714670181,-0.0014733183197677135,0.014156013530507836,0.07101783146554938,-0.0071776330735591224
0.722538948059082,0.009987570345401764,-0.004603822715580463,0.0060193538665771484,-0.00873881671577692,-0.007651219610124826,-0.00013614515773952007,0.014012367461052354,0.07099644379558283,-0.007182283234702322
0.7325410842895508,0.009044155478477478,-0.0035655032843351364,0.0044386982917785645,-0.003460698062554002,-0.00667783385142684,0.005562753416597843,0.013891009746753178,0.07093248850515396,-0.007158301601457216
0.7436561584472656,0.006185784935951233,-0.004620131105184555,0.004916548728942871,-0.0003836818505078554,-0.0013344674371182919,0.008556945249438286,0.01382819869505678,0.07087622503852427,-0.00708132543252477
0.7527079582214355,0.0022955089807510376,-0.004446129314601421,0.005267918109893799,0.0034150511492043734,-0.0016468563117086887,0.011771379970014095,0.01380383370517307,0.07087548137251641,-0.006971417817456251
0.7637360095977783,0.0015457943081855774,-0.005326761864125729,0.005372345447540283,0.005807369016110897,-0.0016697593964636326,0.012606281787157059,0.013808210956175434,0.07090812388980244,-0.0068456293129516566
0.7726130485534668,0.002843238413333893,-0.005592918023467064,0.0066939592361450195,0.007665189914405346,-0.0005610855296254158,0.017977610230445862,0.01392353319132498,0.07096898315851814,-0.0066954753105662925
0.7826838493347168,-0.000489652156829834,-0.004092923365533352,0.007415473461151123,0.011443150229752064,0.008348253555595875,0.022566769272089005,0.014126550483192384,0.0710827723174426,-0.006503058622487056
0.7929370403289795,-0.001412227749824524,-0.0003727264702320099,0.006990373134613037,0.012212304398417473,0.007515749428421259,0.023609718307852745,0.014321986189809042,0.07122772690478928,-0.006275956118272964
0.8026971817016602,-0.0007586181163787842,0.0046910485252738,0.0031015872955322266,0.014568719081580639,0.004995378665626049,0.02053685672581196,0.014533491642665071,0.07136816241503606,-0.006064398370682216
0.8127689361572266,0.0031326264142990112,0.0027942536398768425,0.004997432231903076,0.01222886610776186,0.004990051966160536,0.02090357430279255,0.014727169630903867,0.07149049869711645,-0.00587043969335382
0.8227319717407227,0.002749398350715637,0.0019655050709843636,0.006665647029876709,0.00962644163519144,0.0056415945291519165,0.02058788202702999,0.014890262706394288,0.07159954515468225,-0.005678161531818262
0.8327679634094238,0.0011565014719963074,0.00596036110073328,0.0056847333908081055,0.0031981035135686398,-0.0010176398791372776,0.015896989032626152,0.015009397460933686,0.07163626098320919,-0.005496548651575009
0.8430290222167969,0.0018162280321121216,0.008270785212516785,0.006769537925720215,-0.0003683685790747404,-0.006332776974886656,0.010340624488890171,0.015076786672799743,0.07160212732626903,-0.005367170323417482
0.8527560234069824,0.0018139705061912537,0.007936890237033367,0.0062531232833862305,-0.0047178431414067745,-0.006523192394524813,0.0056302910670638084,0.015124367430441021,0.07155855272272409,-0.005281090492286399
0.8627948760986328,8.869171142578125e-05,0.008153134025633335,0.005494892597198486,-0.010905682109296322,-0.0037792050279676914,0.0028735462110489607,0.015096467420597892,0.07149835703142947,-0.00523786920352205
0.8727400302886963,-0.0027522295713424683,0.0070684971287846565,0.005805015563964844,-0.011485984548926353,-0.0023741209879517555,-0.005312744528055191,0.014973121225853534,0.07145512449005632,-0.005242507481493601
0.8828558921813965,-0.001390509307384491,0.004490808583796024,0.006619751453399658,-0.010737985372543335,-0.006849962752312422,-0.010870229452848434,0.014806301839754472,0.07140534454290753,-0.005313801098725972
0.893618106842041,-0.0015702471137046814,0.006010265089571476,0.012637555599212646,-0.012595540843904018,-0.00895678997039795,-0.010457972064614296,0.014647275932009,0.07135590396825146,-0.0054148792587410035
0.9027309417724609,-0.001401558518409729,0.004086221568286419,0.014670193195343018,-0.008542259223759174,-0.0006594895385205746,-0.00759816262871027,0.014508493903793121,0.0713396093544148,-0.005495330801500057
0.9128830432891846,-0.0031161457300186157,0.0008571669459342957,0.012977063655853271,-0.006949156057089567,0.0007764869369566441,-0.0021413457579910755,0.014361699098288635,0.07136038235235649,-0.005545722534830468
0.9228248596191406,-0.00479801744222641,0.0029392102733254433,0.010277211666107178,-0.008272247388958931,-0.0025660465471446514,-0.0022425991483032703,0.014200686338980013,0.0713789327881544,-0.005550421201773198
0.9328708648681641,0.001145198941230774,0.0010239258408546448,0.009547650814056396,-0.006592858582735062,-0.0037455600686371326,0.002242696937173605,0.014040145913952744,0.07137120247559174,-0.005548356617252582
0.9431939125061035,0.0029115527868270874,-0.0009829029440879822,0.011230289936065674,-0.012017901055514812,-0.0018445514142513275,0.008326901122927666,0.013879612128698295,0.07134411606711373,-0.005480410610241691
0.9528770446777344,0.0002679601311683655,-0.002811550162732601,0.011677801609039307,-0.019953055307269096,-0.0013289633207023144,0.009526388719677925,0.013653118161969537,0.0713171276217897,-0.0053843072445977185
0.9629049301147461,-0.00044057518243789673,-0.005296418443322182,0.012858986854553223,-0.02426433004438877,-0.005435158032923937,0.01010834239423275,0.013396010633974937,0.07127763124259677,-0.0052671455389225914
0.9730100631713867,0.0026798248291015625,-0.004644353874027729,0.012624561786651611,-0.02342197299003601,-0.00983523391187191,0.013248210772871971,0.013117264606215677,0.07119325088685831,-0.005141846678992171
0.9838671684265137,0.005873456597328186,-0.0005813073366880417,0.01245182752609253,-0.02597842365503311,-0.007766179274767637,0.01815529726445675,0.012846791777200085,0.07109664617459395,-0.004969166271473137
0.9940061569213867,0.0031654760241508484,-0.00036124326288700104,0.011208593845367432,-0.024505695328116417,-0.003256381954997778,0.021368667483329773,0.012609074033818727,0.0710271268452349,-0.0047474057938416605
1.0031530857086182,0.0014569833874702454,-0.0026182327419519424,0.01002579927444458,-0.025611041113734245,-0.00394507497549057,0.0262062456458807,0.012366224157481478,0.07096522659510655,-0.004492831084126752
1.0146398544311523,0.0013103410601615906,-0.0013869460672140121,0.0106428861618042,-0.030650274828076363,-0.008299344219267368,0.021917492151260376,0.012117389290728428,0.07091315756500825,-0.0042302173363639225
1.0231399536132812,0.003462165594100952,-0.0034060580655932426,0.012998104095458984,-0.028772778809070587,-0.004124217201024294,0.019511058926582336,0.011853021264822504,0.07088199547424853,-0.00400654889598928
1.0330901145935059,0.0023499131202697754,-0.006783015094697475,0.01190650463104248,-0.03048279508948326,-0.009182360023260117,0.020519597455859184,0.01163461737470925,0.07081897548966914,-0.0037788372688889135
1.0436902046203613,0.0013084560632705688,-0.0029138633981347084,0.009610295295715332,-0.03186748921871185,-0.007987264543771744,0.017939209938049316,0.011399138967610042,0.07074616245628741,-0.003565995237268743
1.0531258583068848,0.002010039985179901,-0.004149881191551685,0.006627261638641357,-0.04568476974964142,-0.00953189842402935,0.01867770403623581,0.01109388800114145,0.07068505880026003,-0.0033621541764847366
1.0630950927734375,0.0032452568411827087,-0.005183828994631767,0.0046195387840271,-0.03982190415263176,-0.007290360983461142,0.021385125815868378,0.01070078518518567,0.07065489077512674,-0.0031401036155317497
1.0738320350646973,0.003545135259628296,-0.0061041926965117455,0.002782285213470459,-0.04631229117512703,-0.016423938795924187,0.023887431249022484,0.01031445799030509,0.07058343524292723,-0.0028943314206687017
1.0831050872802734,0.006052620708942413,-0.0048470264300704,0.0034439563751220703,-0.04913004860281944,-0.03077864460647106,0.022332090884447098,0.009893135043847739,0.0703486152344703,-0.0026247478251507665
1.093400001525879,0.008504875004291534,-0.0037661632522940636,0.00722503662109375,-0.07660853862762451,-0.04280148074030876,0.03845779970288277,0.009356540654952526,0.07003142333243804,-0.002294802076108851
1.1034832000732422,0.007385917007923126,-0.009344173595309258,0.008702576160430908,-0.11142795532941818,-0.06042845547199249,0.02845326066017151,0.00853924454923731,0.06951591499208788,-0.001857310944180573
1.1131901741027832,0.011212542653083801,-0.019587866961956024,0.020927608013153076,-0.1395653337240219,-0.052398230880498886,0.018932193517684937,0.007328715921728463,0.06895264072677032,-0.001565801890452364
1.1231021881103516,0.001300804316997528,-0.029718516394495964,0.025842368602752686,-0.15872757136821747,-0.0727037638425827,0.03803238645195961,0.005987097336986013,0.06839490877095433,-0.0011677555521542162
1.1331510543823242,-0.0010089650750160217,-0.013635186478495598,0.02638411521911621,-0.21456047892570496,-0.10260520875453949,0.023927751928567886,0.004248140998196302,0.06751293707438076,-0.0007087376508782743
1.1433780193328857,0.0064745694398880005,-0.0206901952624321,0.046259939670562744,-0.2348223626613617,-0.0918392464518547,0.014928503893315792,0.002045415322587952,0.06657284724561738,-0.0003974105918270214
1.1531600952148438,0.0044713616371154785,-0.03697694465517998,0.04486954212188721,-0.26778003573417664,-0.13423703610897064,0.04815303534269333,-0.0002948016554589806,0.06547598231256026,0.0001041248133506001
1.1633739471435547,0.00030456483364105225,-0.008967777714133263,0.04777693748474121,-0.360929936170578,-0.14650101959705353,0.032106850296258926,-0.0033067602950819885,0.06408602466995342,0.0007210555203788075
1.173302173614502,0.004298441112041473,-0.012230300344526768,0.05439138412475586,-0.42600134015083313,-0.14748986065387726,0.04603305459022522,-0.0071949493606018695,0.06268459932519747,0.0013311280950922097
1.1833081245422363,0.006528738886117935,-0.01261303573846817,0.03859353065490723,-0.49679994583129883,-0.2384272664785385,0.04520518332719803,-0.011575681777055754,0.060865266130050576,0.0021216622568774263
1.1935811042785645,0.008183490484952927,-0.002627139911055565,0.05109328031539917,-0.7693006992340088,-0.3134636878967285,-0.03849770128726959,-0.01767321042308277,0.058035569987168314,0.0025357455135165143
1.203212022781372,0.014304868876934052,-0.059893447905778885,0.0872986912727356,-1.1100043058395386,-0.2985494136810303,-0.07492681592702866,-0.026937706728459583,0.05498722757192796,0.002486077057003825
1.213263988494873,0.012083623558282852,-0.11521576344966888,0.06697720289230347,-1.4537034034729004,-0.3568691909313202,-0.16049924492835999,-0.039771525035082696,0.05177749590469334,0.0020557668703862705
1.2232060432434082,-0.005746077746152878,-0.12010639905929565,0.06338232755661011,-1.8860033750534058,-0.4195924401283264,-0.26863178610801697,-0.056461446353142195,0.0478021618837455,0.0007084245011603012
1.233335018157959,-0.003701619803905487,-0.1727180778980255,0.1123422384262085,-2.4737370014190674,-0.5212077498435974,-0.3753041625022888,-0.07837689263439226,0.042985638499769496,-0.0015204519840461357
1.243649959564209,0.009576808661222458,-0.1927478015422821,0.14855271577835083,-3.0360372066497803,-0.6372720003128052,-0.5013541579246521,-0.10623178375068087,0.03675071530840564,-0.004823997570749047
1.2532670497894287,0.012982679530978203,-0.17614269256591797,0.1816965937614441,-3.32722806930542,-0.6296550631523132,-0.6107197999954224,-0.13836044250218318,0.02991017805817089,-0.009352946904305487
1.263361930847168,0.0126650370657444,-0.15287093818187714,0.14200514554977417,-3.3668625354766846,-0.5543122291564941,-0.622677743434906,-0.17227651223137724,0.023233999203876855,-0.01482241545377634
1.2733049392700195,-0.024845898151397705,-0.055296510457992554,0.06303828954696655,-3.333409547805786,-0.4463575780391693,-0.543475866317749,-0.20619916567851218,0.017137939882275403,-0.020121982645057372
1.283358097076416,-0.03160712867975235,0.04449257254600525,-0.02207183837890625,-3.158458948135376,-0.4201508164405823,-0.5350217819213867,-0.23857157555290573,0.011611628011353244,-0.025115706575200666
1.2936081886291504,0.0014819130301475525,0.0364990234375,-0.08135819435119629,-2.9369113445281982,-0.39858800172805786,-0.48494768142700195,-0.2692161551866689,0.00632982189534919,-0.03012894242027194
1.3033151626586914,0.016093425452709198,0.040254801511764526,-0.066447913646698,-2.6459150314331055,-0.42490389943122864,-0.44443872570991516,-0.297232356888311,0.0008666395093944876,-0.03485036515771887
1.3134160041809082,0.017829712480306625,0.08617427945137024,-0.03995072841644287,-2.300426483154297,-0.4427420198917389,-0.4255145788192749,-0.32196251999529824,-0.004833396975878418,-0.03947584711046631
1.3235909938812256,0.008320017717778683,0.09652367234230042,-0.010548949241638184,-2.0985727310180664,-0.5130744576454163,-0.3743225038051605,-0.34381929508232567,-0.011073987746667246,-0.04389543245021392
1.3333511352539062,0.002498909831047058,0.08909052610397339,-0.006439507007598877,-2.1144773960113525,-0.5448217391967773,-0.3608679473400116,-0.36466241734218074,-0.017750790465546708,-0.04807922120185522
1.3436369895935059,0.015756074339151382,0.051837265491485596,-0.020610451698303223,-2.4285402297973633,-0.6434447765350342,-0.43035534024238586,-0.38709423572803825,-0.02548738899329283,-0.05285138905263947
1.353334903717041,0.014946991577744484,-0.0326920747756958,-0.0012387633323669434,-2.739557981491089,-0.49712109565734863,-0.440102756023407,-0.413117441096549,-0.03360296463089148,-0.05851276327790947
1.3634650707244873,0.014739222824573517,-0.12107452750205994,-0.021459758281707764,-2.786405086517334,-0.4103214740753174,-0.4584030210971832,-0.44076529971295775,-0.04058557938073764,-0.06453291265713187
1.373417854309082,-0.022273074835538864,-0.09762018918991089,-0.03197216987609863,-2.7119529247283936,-0.4590964913368225,-0.4802348017692566,-0.4680204695990285,-0.04779354746190086,-0.07118247804676449
1.3834471702575684,-0.04064037278294563,-0.005756258964538574,0.014537394046783447,-2.7046730518341064,-0.5953699350357056,-0.4473772644996643,-0.4948364081838409,-0.05618219116737786,-0.07798025500534328
1.3936419486999512,0.005415774881839752,0.07809361815452576,0.006223142147064209,-2.8244423866271973,-0.6775777339935303,-0.4696356952190399,-0.5220147086832642,-0.06604125635332019,-0.08510382933265671
1.403426170349121,0.03332246094942093,0.023213326930999756,-0.01549232006072998,-3.1652379035949707,-0.6394252777099609,-0.5385754108428955,-0.5514478928776164,-0.077068542508961,-0.09348622263726297
1.4134621620178223,0.01841084659099579,-0.06833863258361816,-0.03676795959472656,-3.538590669631958,-0.6396511197090149,-0.5858572125434875,-0.5842625668410589,-0.08881302420754689,-0.10332043231667859
1.4235100746154785,-0.005048885941505432,-0.09015345573425293,-0.054607391357421875,-3.8755617141723633,-0.5482025742530823,-0.6130192875862122,-0.6207609226357245,-0.10126429038449225,-0.11493377922196318
1.433685064315796,-0.004333317279815674,-0.11015737056732178,-0.04818350076675415,-4.196175575256348,-0.6137924790382385,-0.6199454069137573,-0.6601747212761547,-0.11478688668363461,-0.1279586317780634
1.4437060356140137,-0.0063228607177734375,-0.08951073884963989,-0.028615951538085938,-4.571837902069092,-0.6709966063499451,-0.6751217842102051,-0.7029507540080319,-0.1308255307578307,-0.1431660625466177
1.453476905822754,0.012133218348026276,-0.0774727463722229,-0.003664731979370117,-5.030519485473633,-0.7143949270248413,-0.6978029012680054,-0.7495282633263285,-0.14979252141725985,-0.16127492992192108
1.4635210037231445,0.02935061603784561,-0.1158299446105957,-0.03031933307647705,-5.485815048217773,-0.7008193731307983,-0.7697578072547913,-0.8003588024231393,-0.17225923212082606,-0.18317094726422145
1.4734280109405518,0.02809000015258789,-0.16268235445022583,-0.05019807815551758,-5.803731441497803,-0.6511924266815186,-0.7720537185668945,-0.854674251940301,-0.19885556348164415,-0.21000621042403178
1.483525037765503,0.01150214672088623,-0.14849132299423218,-0.08790087699890137,-5.808624267578125,-0.6578330397605896,-0.7056107521057129,-0.9101145564924751,-0.229140495463275,-0.24086077119201185
1.493807077407837,0.017423957586288452,-0.06818103790283203,-0.12348520755767822,-5.620914459228516,-0.6887086629867554,-0.6898342370986938,-0.9640228409183329,-0.2640951313070249,-0.27588094716885847
1.5035481452941895,0.022333070635795593,-0.015318095684051514,-0.15294033288955688,-5.363779544830322,-0.7116274833679199,-0.6806981563568115,-1.0148939799666143,-0.3047052192344929,-0.3159451209640906
1.5139808654785156,0.014293119311332703,-0.04445439577102661,-0.1773964762687683,-5.146166801452637,-0.6764413118362427,-0.6856106519699097,-1.0624922836227984,-0.35138855425176124,-0.36204769464807446
1.5236449241638184,0.006581097841262817,-0.043205976486206055,-0.1410377025604248,-4.969620227813721,-0.6834521889686584,-0.7066963315010071,-1.1069222975644022,-0.40585096559443384,-0.41594192940376046
1.533869981765747,-0.0029073357582092285,0.01825815439224243,-0.07438722252845764,-5.022507190704346,-0.7004351615905762,-0.7154996395111084,-1.1490126187991365,-0.47103116904398895,-0.48039582578007095
1.5438041687011719,0.006050035357475281,0.008549690246582031,-0.04564136266708374,-5.213932991027832,-0.657245934009552,-0.7433417439460754,-1.1901271794995727,-0.5518502322724861,-0.5607178061621158
1.553642988204956,0.018065467476844788,-0.07108569145202637,-0.0351809561252594,-5.403512954711914,-0.5165807008743286,-0.8470209836959839,-1.2294854049081403,-0.6552406743035634,-0.6648796753958354
1.563727855682373,-0.009324654936790466,-0.13380396366119385,-0.023265361785888672,-5.278598785400391,-0.3843532204627991,-0.8703752756118774,-1.264309019441807,-0.7849193203004333,-0.7968839925379901
1.5737340450286865,-0.044383302330970764,-0.06471359729766846,0.002000153064727783,-4.713329315185547,-0.3712083697319031,-0.8388354182243347,-1.2907045298200823,-0.9333617713996065,-0.9480093696354663
1.5836749076843262,-0.020524561405181885,0.04424351453781128,0.002661474049091339,-3.8740298748016357,-0.41532859206199646,-0.7774201035499573,-1.3068556472717419,-1.083318807224339,-1.0996150134628533
1.5938060283660889,0.014987200498580933,0.11421465873718262,-0.007994405925273895,-3.1631693840026855,-0.48184049129486084,-0.7329618334770203,-1.3142306227504557,-1.2199287019343121,-1.236297695789785
1.6036720275878906,0.03223729133605957,0.14359325170516968,-0.01583564281463623,-2.6882669925689697,-0.4589505195617676,-0.5964101552963257,-1.3162012237877667,-1.338909197753355,-1.3543351848556302
1.6137449741363525,0.036775946617126465,0.1257827877998352,-0.025271888822317123,-2.4670088291168213,-0.4044092297554016,-0.5003576874732971,-1.3154284934045164,-1.4437952946717625,-1.4582659674728142
1.6237189769744873,0.029317706823349,0.06800872087478638,-0.028521716594696045,-2.4621782302856445,-0.35672056674957275,-0.4685561954975128,-1.3125019428001083,-1.5426680572503728,-1.5565102136713687
1.6338019371032715,0.012810319662094116,-0.012762367725372314,-0.028089165687561035,-2.4670052528381348,-0.2922055125236511,-0.4445973336696625,-1.3074964592358782,-1.6379074282698252,-1.6517076517573714
1.6438651084899902,0.004929691553115845,-0.0715596079826355,-0.03662526607513428,-2.337476968765259,-0.2238559126853943,-0.3793611228466034,-1.3006270800436879,-1.7270678626037366,-1.7416173977050855
1.653609037399292,-0.0009990036487579346,-0.046153128147125244,-0.02185070514678955,-2.1386988162994385,-0.2457585334777832,-0.37221667170524597,-1.292510722678137,-1.8052866570729968,-1.8203480010633242
1.6638200283050537,0.008290410041809082,-0.011876165866851807,0.0006825923919677734,-1.8965716361999512,-0.2143743485212326,-0.277879923582077,-1.2840069977212283,-1.8719133037841094,-1.8872518749045988
1.6737990379333496,0.02277269959449768,0.010986924171447754,-0.008063793182373047,-1.5669604539871216,-0.19501690566539764,-0.2072822004556656,-1.276109985532085,-1.9260953807034051,-1.9417325358162838
1.6838111877441406,0.021673619747161865,0.043842852115631104,-0.009183511137962341,-1.2229090929031372,-0.17264369130134583,-0.12102027982473373,-1.2694459173557164,-1.968396066946074,-1.9840159077616473
1.693972110748291,0.01757088303565979,0.062274038791656494,-0.014055371284484863,-1.0160712003707886,-0.13854137063026428,-0.08312828838825226,-1.2640982233227873,-2.0008445813025952,-2.016404784636066
1.7037479877471924,0.01528024673461914,0.05310022830963135,-0.03481173515319824,-0.9892143607139587,-0.11761584132909775,-0.04745550826191902,-1.259243817495647,-2.029400345463284,-2.0450339642726587
1.7137231826782227,0.017919987440109253,0.019799530506134033,-0.03363645076751709,-1.0318522453308105,-0.07763566821813583,-0.03266484662890434,-1.2542744265086891,-2.05758379961784,-2.0736354411114255
1.7238800525665283,0.016994744539260864,-0.025786757469177246,-0.005239859223365784,-1.0007433891296387,-0.05887077376246452,-0.006977060344070196,-1.2491925670783688,-2.0851566403423987,-2.1019821355846435
1.7346479892730713,-0.00043714046478271484,-0.02448636293411255,0.02399265766143799,-1.0160661935806274,-0.08143050223588943,-0.014714395627379417,-1.2440564962562315,-2.1115259509567577,-2.129059785140748
1.7454700469970703,-0.010547757148742676,-0.005578100681304932,0.02042292058467865,-1.111773133277893,-0.07222146540880203,-0.02980109676718712,-1.238297039145515,-2.138249850619557,-2.156462107654603
1.7537970542907715,-0.0030607283115386963,-0.03097093105316162,-0.008462533354759216,-1.2267178297042847,-0.048957157880067825,-0.025576258078217506,-1.2315908914322107,-2.1665697384404643,-2.185830724169746
1.7639398574829102,-0.0020155012607574463,-0.04398846626281738,-0.01812729239463806,-1.2032856941223145,-0.06296809017658234,0.014977825805544853,-1.224468374128419,-2.1952385871891895,-2.2157105842498366
1.7739291191101074,-0.003567606210708618,0.002440333366394043,-0.024651765823364258,-0.9619497060775757,-0.08025653660297394,0.06370063126087189,-1.2182835710648277,-2.2206946401649175,-2.2420357334875844
1.7840218544006348,0.011340171098709106,0.061206817626953125,-0.08548387885093689,-0.7356697916984558,-0.11190833151340485,0.09170014411211014,-1.2137891515903014,-2.240843216930697,-2.2625035775628004
1.7939600944519043,0.008106499910354614,0.09730839729309082,-0.11278820037841797,-0.7029474973678589,-0.12577275931835175,0.06528265029191971,-1.20996820146787,-2.258101455817488,-2.2796285760987853
1.8039278984069824,-0.005506843328475952,0.05566978454589844,-0.0708916187286377,-0.8675641417503357,-0.09880252182483673,0.037527769804000854,-1.2053643247674677,-2.2757593005945806,-2.297307993895688
1.8139581680297852,-0.011137336492538452,-0.03730273246765137,-0.025112420320510864,-0.9146629571914673,-0.08749634027481079,0.023593844845891,-1.1996444198472014,-2.2950421677783948,-2.316999106822763
1.823930025100708,-0.009227156639099121,-0.03859102725982666,0.011606916785240173,-0.730660617351532,-0.11918897181749344,-0.003081334987655282,-1.194147984970033,-2.3119733446830035,-2.3341067443276367
1.833847999572754,-0.004868507385253906,0.01219719648361206,0.03755494952201843,-0.5243008136749268,-0.1479303389787674,0.013807632960379124,-1.1898787135319433,-2.3249577338739607,-2.3465948973181994
1.843954086303711,-0.0003547072410583496,0.0719347596168518,0.036591142416000366,-0.38258108496665955,-0.1512569934129715,0.029291678220033646,-1.1870176637517698,-2.3349037576381946,-2.35569419396377
1.8541650772094727,0.0009200572967529297,0.08845531940460205,0.019411295652389526,-0.4257719814777374,-0.12645816802978516,0.028311634436249733,-1.1844302725217215,-2.343869587217278,-2.363843193160223
1.8642489910125732,-0.009318828582763672,0.045657575130462646,0.03576943278312683,-0.4845275282859802,-0.07759137451648712,0.03221337869763374,-1.181476554697665,-2.353395347276242,-2.372996210645276
1.8740630149841309,-0.00915345549583435,0.009847462177276611,0.028180360794067383,-0.4935931861400604,-0.0449194498360157,0.02683432586491108,-1.1781875179628063,-2.362936036870632,-2.382661587315396
1.8840231895446777,-0.008348673582077026,0.02203124761581421,0.015489190816879272,-0.45464423298835754,-0.024343201890587807,0.021095585078001022,-1.174950711103847,-2.371726440133755,-2.3917988914850086
1.8940420150756836,-0.011831939220428467,0.04562276601791382,0.03163638710975647,-0.4398738145828247,0.002281217835843563,-0.0050619812682271,-1.1717935469237097,-2.3793614077106784,-2.3999516881779046
1.904015064239502,-0.01670593023300171,0.02882254123687744,0.04068973660469055,-0.39020198583602905,0.0272555872797966,-0.030017398297786713,-1.1686248109570194,-2.3857268827321274,-2.407059936137014
1.9140920639038086,-0.021088093519210815,0.016855478286743164,0.04750898480415344,-0.3029933273792267,0.019535349681973457,-0.06662201881408691,-1.1657604201773366,-2.3901668814816435,-2.4121430056325663
1.924065113067627,-0.01794371008872986,0.026072680950164795,0.04336830973625183,-0.15655851364135742,0.019602816551923752,-0.06776898354291916,-1.16355614670916,-2.392563476701204,-2.414976570392649
1.9340901374816895,-0.010398685932159424,0.04524511098861694,0.02471745014190674,0.02275903709232807,-0.018005013465881348,-0.08464037626981735,-1.1625755601821859,-2.3922857285232646,-2.414716603895385
1.9444470405578613,-0.009225577116012573,0.06488567590713501,0.01991674304008484,0.13016517460346222,-0.03147248551249504,-0.08380472660064697,-1.1626074686055985,-2.389751968348316,-2.411666472194555
1.9541940689086914,-0.008888691663742065,0.04128551483154297,0.00669446587562561,0.14440296590328217,-0.02141399122774601,-0.04233931377530098,-1.1631719908272224,-2.386731180970414,-2.408076450717979
1.9643020629882812,-0.002762734889984131,0.022931277751922607,-0.03471723198890686,0.09349192678928375,-0.02076093852519989,-0.05033630505204201,-1.1638210141055245,-2.384227184281555,-2.4051269791782297
1.9741301536560059,-0.002719789743423462,-0.004915416240692139,-0.04505491256713867,-0.04027332365512848,0.011075286194682121,-0.07464324682950974,-1.1635883269673224,-2.3827315909824134,-2.403437147799415
1.9841561317443848,-0.015444457530975342,-0.06874901056289673,-0.011356145143508911,-0.08190732449293137,0.009511744603514671,-0.07968993484973907,-1.162526042669609,-2.3824607371684,-2.4032981542567993
1.9940149784088135,-0.014014124870300293,-0.06237894296646118,0.007577568292617798,-0.003195197554305196,-0.0024802032858133316,-0.0714261457324028,-1.161663943650447,-2.3818774408616488,-2.402680310897162
2.004148006439209,-0.0002860426902770996,-0.017695248126983643,-0.00343477725982666,0.09232744574546814,-0.004999065306037664,-0.05013635382056236,-1.1615719785779388,-2.3801365792038807,-2.4007569681239054
2.0142931938171387,0.0019043385982513428,0.014151334762573242,-0.009686082601547241,0.19079943001270294,-0.007983935996890068,-0.020137976855039597,-1.1623360571493861,-2.3775197266408123,-2.3977940159084596
2.0241751670837402,-0.0009860098361968994,0.024180829524993896,0.001413881778717041,0.27440041303634644,0.01610848307609558,0.0023008070420473814,-1.1639416413080084,-2.373753377772177,-2.3937116384667116
2.034210205078125,0.002178370952606201,-0.002546072006225586,-0.0105513334274292,0.43676242232322693,0.016244303435087204,0.020217755809426308,-1.1665546411600805,-2.368037895770705,-2.3876944718242954
2.0442299842834473,0.001038581132888794,-0.0040604472160339355,0.0008452236652374268,0.5848198533058167,-0.008670410141348839,0.05173397809267044,-1.1706576008737437,-2.359727172911021,-2.3787617070774463
2.0542221069335938,0.001275569200515747,0.020907104015350342,0.028586149215698242,0.5527521967887878,-0.01777336187660694,0.059814006090164185,-1.1752940346809368,-2.3507048325774007,-2.3688667408955992
2.0642828941345215,0.002193361520767212,-0.0068084001541137695,0.027798563241958618,0.3022863566875458,-0.004483389668166637,0.04832316190004349,-1.1785692114920034,-2.3443233804105628,-2.3618125451116274
2.0743510723114014,0.0006313920021057129,-0.08022230863571167,0.029813051223754883,0.03229643404483795,-0.0009677507914602757,0.037047065794467926,-1.1797784911210316,-2.3425995969518105,-2.359860927593728
2.084320068359375,9.834766387939453e-05,-0.10586005449295044,0.03998950123786926,-0.11172308772802353,0.02052413672208786,0.029853124171495438,-1.1795863830984592,-2.344049602203903,-2.361512291051903
2.0942959785461426,0.0014998912811279297,-0.09357994794845581,0.01828935742378235,-0.052782006561756134,0.015399150550365448,0.06294077634811401,-1.1792349459258318,-2.3463016147880738,-2.3641527067494073
2.104261875152588,0.0076684653759002686,-0.019471406936645508,-0.01584365963935852,0.11270440369844437,0.0029197107069194317,0.07971346378326416,-1.179923474574011,-2.347040605679635,-2.365018881577844
2.1143510341644287,0.011133730411529541,0.042660415172576904,-0.030730515718460083,0.20804664492607117,0.012619209475815296,0.10450056940317154,-1.181694714116084,-2.3457361710909947,-2.363676768365371
2.126005172729492,0.0039601922035217285,0.03539693355560303,-0.019994646310806274,0.23823536932468414,0.026042962446808815,0.10601212829351425,-1.184035045334009,-2.3434600336340536,-2.361423503478536
2.135016918182373,0.0003466606140136719,0.010008394718170166,-0.0025157034397125244,0.236714169383049,0.027594519779086113,0.09862079471349716,-1.186341945584028,-2.3409222739330358,-2.3589548008938492
2.1448311805725098,-0.0018878579139709473,-0.01702982187271118,0.014752835035324097,0.21799200773239136,0.029444528743624687,0.10005506128072739,-1.1885850437733423,-2.338485893050973,-2.3566041794834676
2.1543819904327393,-0.000554502010345459,-0.011064767837524414,0.023761868476867676,0.14833064377307892,0.03704306110739708,0.08281828463077545,-1.190351224211854,-2.336727920604687,-2.3550124833025525
2.164412021636963,-0.003813415765762329,-0.007708907127380371,0.016409963369369507,0.030832942575216293,0.06483394652605057,0.06665167212486267,-1.1912175969362768,-2.336463977152116,-2.35520393258374
2.175845146179199,-0.0069921910762786865,-0.030594944953918457,0.02261531352996826,0.0045944154262542725,0.07227348536252975,0.05046951025724411,-1.1915004946063936,-2.3369354085261733,-2.35640431278375
2.1845710277557373,-0.008322417736053467,-0.021387875080108643,0.024124860763549805,0.05813157558441162,0.08764196932315826,0.046458736062049866,-1.1920203868946735,-2.3364212489489176,-2.356710741808314
2.1946380138397217,-0.008432149887084961,0.013339579105377197,0.008395552635192871,0.13301220536231995,0.08812639862298965,0.06211146339774132,-1.1931815827703147,-2.334520045050805,-2.35564912564922
2.204558849334717,-0.008442103862762451,0.04408210515975952,0.005252629518508911,0.19918519258499146,0.08836523443460464,0.07090245187282562,-1.1948930868295655,-2.3316517703147297,-2.353521229741547
2.2145209312438965,-0.00728568434715271,0.04389965534210205,0.014627903699874878,0.26731789112091064,0.09265532344579697,0.07174187898635864,-1.1970162494605099,-2.3277291799200404,-2.3502869323237556
2.2260141372680664,-0.013073891401290894,0.027700722217559814,0.01884746551513672,0.3197554647922516,0.10274306684732437,0.07908059656620026,-1.1995156776103402,-2.3227205918632645,-2.3459130854226125
2.234699010848999,-0.014422297477722168,0.02313411235809326,0.016114935278892517,0.38030457496643066,0.11018473654985428,0.07682622969150543,-1.2023975883979392,-2.316667952418868,-2.3405574839830097
2.244502067565918,-0.013359218835830688,0.029468655586242676,0.00815996527671814,0.32144999504089355,0.09241807460784912,0.06661134958267212,-1.2051982330476112,-2.3103872976872926,-2.334847201926294
2.2545900344848633,-0.007104367017745972,0.02147740125656128,0.011887937784194946,0.10178341716527939,0.12946158647537231,0.05243561416864395,-1.2067262616654524,-2.307011487525717,-2.332237416176161
2.264708995819092,-0.003389894962310791,-0.02325308322906494,0.004381641745567322,-0.0395408533513546,0.18081629276275635,0.0206769909709692,-1.2066597001937607,-2.3067924757902336,-2.3335866452524843
2.2759220600128174,-0.01684778928756714,-0.05058908462524414,0.007108569145202637,0.021150987595319748,0.16466128826141357,0.011220904998481274,-1.206466747779115,-2.3059462242887347,-2.334496095115241
2.284609079360962,-0.011912941932678223,-0.003645777702331543,0.0004430115222930908,0.13511045277118683,0.15057791769504547,0.039413925260305405,-1.2071324370344951,-2.3034718844323834,-2.3335045259709037
2.2945690155029297,0.003725290298461914,0.0585097074508667,-0.01969069242477417,0.20951572060585022,0.13282209634780884,0.05106605589389801,-1.2085759506245803,-2.299691334457053,-2.3309398739508165
2.304490089416504,0.0014455914497375488,0.05779224634170532,-0.018026798963546753,0.236924946308136,0.1359974592924118,0.041225142776966095,-1.2103027941795153,-2.2950307264330747,-2.327341440916763
2.3146581649780273,-0.002872675657272339,0.010341644287109375,-0.0021224170923233032,0.2718730568885803,0.13045117259025574,0.024478653445839882,-1.212111489900768,-2.289428413906999,-2.322769838984468
2.326101064682007,-0.009132087230682373,-0.0066776275634765625,0.005861878395080566,0.27504199743270874,0.12634289264678955,0.033818092197179794,-1.214089138591911,-2.2831562383080444,-2.3173916635788823
2.3346030712127686,-0.008294105529785156,0.008145391941070557,8.910894393920898e-06,0.22206000983715057,0.14021316170692444,0.026228882372379303,-1.2158653493804177,-2.277595232318844,-2.3128582328504628
2.344621181488037,-0.008126795291900635,-0.00404047966003418,-0.011283040046691895,0.15964524447917938,0.12437179684638977,0.01601741835474968,-1.217080172287954,-2.2730567040339045,-2.30938628947393
2.3546030521392822,-0.0035764873027801514,-0.027583003044128418,-0.0121774822473526,0.0827869400382042,0.12098585814237595,0.01511487364768982,-1.2176921128220821,-2.2700504965425488,-2.3074193816205537
2.3646280765533447,0.003776460886001587,-0.030846238136291504,-0.0132627934217453,0.06302309036254883,0.11204322427511215,0.03206003084778786,-1.2181712380863485,-2.268095391637592,-2.306569535166711
2.3760430812835693,-0.0005137324333190918,-0.025755703449249268,-0.00804261863231659,0.14083267748355865,0.086043581366539,0.032522089779376984,-1.2192059917704599,-2.265425780612343,-2.30480675074944
2.384675979614258,-0.0005808174610137939,-0.013564646244049072,-0.011806249618530273,0.20707403123378754,0.06167485937476158,0.045246995985507965,-1.2207180761150145,-2.2614487340025557,-2.3013754575003174
2.3946990966796875,0.0001234114170074463,-0.008267760276794434,-0.011183038353919983,0.28509774804115295,0.04312194883823395,0.06812887638807297,-1.2226746599476885,-2.256868923230321,-2.2970221076747612
2.404667854309082,0.004441052675247192,4.4226646423339844e-05,-0.008797779679298401,0.3844347894191742,0.036401547491550446,0.09400894492864609,-1.2252452054542005,-2.251120996921747,-2.291277187079149
2.414857864379883,0.006668061017990112,-0.00034630298614501953,-0.006655216217041016,0.4775468707084656,0.03502709046006203,0.10585201531648636,-1.2286669901677612,-2.243269752343935,-2.28329960465821
2.4264369010925293,0.0026854872703552246,0.0025262832641601562,-0.0032695233821868896,0.5155870318412781,0.050275418907403946,0.11717796325683594,-1.2325887872293908,-2.233725109945206,-2.2736157837914024
2.4347150325775146,-0.001875847578048706,0.00015294551849365234,0.011070355772972107,0.5433585047721863,0.07129655033349991,0.1116364598274231,-1.236730283145295,-2.223137358132981,-2.2630641097959403
2.444706916809082,-0.005131155252456665,-0.01900649070739746,0.03334423899650574,0.6426875591278076,0.08200942724943161,0.10969442874193192,-1.2411624198494784,-2.210618828252902,-2.250639743192126
2.4547181129455566,-0.0021234452724456787,-0.010981261730194092,0.04076492786407471,0.8366767764091492,0.09783366322517395,0.12452609837055206,-1.2464385619104719,-2.1942561516798196,-2.2343153646365965
2.4647488594055176,-9.208917617797852e-06,0.02752089500427246,0.03744421899318695,1.1130852699279785,0.11235015094280243,0.15458066761493683,-1.2531470711903256,-2.171703732722604,-2.211657649410617
2.475847005844116,-0.0014056265354156494,0.061551809310913086,0.04414379596710205,1.510231375694275,0.12521801888942719,0.2012357860803604,-1.2618489104039832,-2.1398994770894255,-2.179490466635638
2.484982967376709,-0.002396196126937866,0.09170639514923096,0.05381990969181061,2.02582049369812,0.1373000591993332,0.259860634803772,-1.2729727674106752,-2.094239043747501,-2.133011663965415
2.494781017303467,-0.0026183128356933594,0.12318390607833862,0.05927431583404541,2.6217312812805176,0.15334801375865936,0.34626078605651855,-1.2865915206541785,-2.029123566495975,-2.0665717819974065
2.504703998565674,-0.004363685846328735,0.16194647550582886,0.0706709548830986,3.2482335567474365,0.1611601710319519,0.4380745589733124,-1.3019991162853617,-1.9381950129062289,-1.97369330638137
2.5158538818359375,-0.004203125834465027,0.19493699073791504,0.07671056687831879,3.868687868118286,0.16446569561958313,0.5250637531280518,-1.3173625571096672,-1.8146713210143124,-1.8475474250300867
2.5261549949645996,-0.0003296583890914917,0.2045113444328308,0.09085118770599365,4.534829139709473,0.1640983372926712,0.6356085538864136,-1.3299337764466794,-1.6520586961644643,-1.6815839670039137
2.534852981567383,-0.003099411725997925,0.1993551254272461,0.12894272804260254,5.191114902496338,0.18124164640903473,0.7263435125350952,-1.3358199781182925,-1.4483656684431467,-1.473777316920999
2.5448269844055176,-0.022252902388572693,0.1818709373474121,0.1836593747138977,5.677684307098389,0.2542901933193207,0.7758935689926147,-1.3303029269082207,-1.2195795619415197,-1.2406342830073618
2.5548160076141357,-0.0498918741941452,0.1334216594696045,0.22437743842601776,5.993031978607178,0.35782885551452637,0.8307373523712158,-1.311256742955181,-0.9967805304340184,-1.013926287186297
2.564876079559326,-0.06911329925060272,0.08539074659347534,0.24970600008964539,6.228573322296143,0.4408619701862335,0.8817934393882751,-1.2798027496672426,-0.8037081011202458,-0.8175608355278063
2.576756000518799,-0.06907925009727478,0.06323975324630737,0.25697821378707886,6.438024997711182,0.48854854702949524,0.844077467918396,-1.2379674364931614,-0.647931320544044,-0.6587183083577821
2.584981918334961,-0.05970722436904907,0.01721888780593872,0.251581609249115,6.428003311157227,0.595470130443573,0.7259246110916138,-1.188645416693936,-0.5291013990829624,-0.5377595956408996
2.5949950218200684,-0.06164146959781647,-0.018785059452056885,0.23865631222724915,6.364961624145508,0.714788019657135,0.6763317584991455,-1.1350892517532847,-0.43935912335437965,-0.4471653599343516
2.6049671173095703,-0.06283929944038391,0.011231482028961182,0.23350203037261963,6.230267524719238,0.8126893043518066,0.6704482436180115,-1.0797394955856232,-0.3696314976503796,-0.37779450614902144
2.614912986755371,-0.04487098753452301,0.07214975357055664,0.21704185009002686,6.040992736816406,0.9275943040847778,0.6114046573638916,-1.0239440089500815,-0.3141407888545165,-0.3239538354825544
2.626127004623413,-0.035934194922447205,0.09271514415740967,0.2134004831314087,5.72934103012085,1.0105177164077759,0.532430112361908,-0.9690588179362298,-0.2696845324310511,-0.28260899272125267
2.634891986846924,-0.040239155292510986,0.0711260437965393,0.2346392273902893,5.28446626663208,1.0472736358642578,0.4866497814655304,-0.9168614323635912,-0.2336396865323727,-0.2508544257566839
2.6451950073242188,-0.03355896472930908,0.048418402671813965,0.2625408172607422,4.862121105194092,1.0808762311935425,0.49354690313339233,-0.868363846040266,-0.2033451072932508,-0.22565976994039344
2.655003070831299,-0.017267301678657532,0.020868957042694092,0.2541823387145996,4.568511009216309,1.075461745262146,0.46573737263679504,-0.8229785294058977,-0.17709363622395313,-0.20506763775878023
2.66506290435791,-0.010376304388046265,-0.012199103832244873,0.20004117488861084,4.263452529907227,1.0467318296432495,0.3915039598941803,-0.7800291717527241,-0.1545339471839449,-0.18845766617867696
2.6763548851013184,-0.0027042925357818604,-0.03196060657501221,0.1454998254776001,3.908078193664551,1.0223438739776611,0.2950919270515442,-0.7400089920391066,-0.13531595377183375,-0.1756057155619577
2.685175895690918,0.0017874836921691895,-0.048613011837005615,0.12623190879821777,3.518085479736328,0.9824786186218262,0.23786576092243195,-0.70346543679989,-0.11881408466469015,-0.16586553055860748
2.695180892944336,0.008730210363864899,-0.07647925615310669,0.11588728427886963,3.1834683418273926,0.9131613373756409,0.23972971737384796,-0.6704128437966056,-0.10427764007873183,-0.15794348872878988
2.705267906188965,0.021729610860347748,-0.06811147928237915,0.10437357425689697,2.9043383598327637,0.8496333956718445,0.23863308131694794,-0.6403986128364627,-0.0913929657430193,-0.15126419667343363
2.7160329818725586,0.028686918318271637,-0.031380653381347656,0.10672885179519653,2.696880340576172,0.75409996509552,0.2861579656600952,-0.6127040856882654,-0.07968969408205685,-0.14507076266229413
2.7261459827423096,0.037326131016016006,-8.13603401184082e-05,0.10254180431365967,2.5498697757720947,0.6270376443862915,0.3399929404258728,-0.58682017598115,-0.06930686228977563,-0.13891462664984544
2.734961986541748,0.05416423827409744,-0.008876144886016846,0.09680408239364624,2.4767184257507324,0.5263264775276184,0.3178713917732239,-0.5619441578243274,-0.06029307125620082,-0.13295517392737732
2.7450780868530273,0.061329059302806854,-0.033048152923583984,0.052925825119018555,2.4767558574676514,0.46969905495643616,0.20406508445739746,-0.53730566577663,-0.0529231652925134,-0.12827959946899933
2.755110025405884,0.04015137627720833,-0.04204407334327698,0.02229684591293335,2.450643301010132,0.4358252286911011,0.23153799772262573,-0.5128733904556362,-0.04651710161020119,-0.12444447858370462
2.7652909755706787,0.02028808370232582,-0.010068774223327637,0.01556384563446045,2.483757972717285,0.44211718440055847,0.2104564607143402,-0.4882356314401244,-0.040260349290046016,-0.12057106336224138
2.7766761779785156,0.027461020275950432,-0.015238851308822632,0.01729583740234375,2.4572436809539795,0.4687826335430145,0.1284494698047638,-0.4635469684355493,-0.03437518720045035,-0.11768714297760192
2.7851979732513428,0.0011177007108926773,-0.029388725757598877,0.03755074739456177,2.412855863571167,0.5139043927192688,0.16462208330631256,-0.4393195328493274,-0.028366067462700543,-0.1152463567527043
2.7951531410217285,-0.027316734194755554,-0.030310004949569702,0.062041640281677246,2.3479905128479004,0.4897628426551819,0.12836314737796783,-0.4153825004315058,-0.022361760502492688,-0.11290082297935486
2.8051700592041016,-0.022437775507569313,-0.058475762605667114,0.06546765565872192,2.2093725204467773,0.591301441192627,0.126170814037323,-0.392529363724288,-0.016391921893897876,-0.1111328946020349
2.8151769638061523,-0.021079277619719505,-0.045731186866760254,0.052858829498291016,2.1844048500061035,0.5652464032173157,0.16891588270664215,-0.3708546120816045,-0.009177222887949806,-0.10914740349776479
2.8262150287628174,-0.037044934928417206,-0.033440202474594116,0.02994537353515625,1.7523691654205322,0.4936821162700653,0.23635537922382355,-0.3514198012875221,-0.0029126767654264244,-0.10672963087093597
2.8352179527282715,-0.011924874037504196,-0.06964996457099915,0.08324211835861206,1.3583762645721436,0.4760890007019043,0.035844117403030396,-0.3356198798800571,0.0022061083246152392,-0.10535353445420567
2.8452060222625732,0.0036208671517670155,-0.20250076055526733,0.11656290292739868,1.114296317100525,0.5643814206123352,0.0948062390089035,-0.32338812090194125,0.007655620403568722,-0.10480513526756605
2.855274200439453,-0.06252957880496979,-0.19294771552085876,0.09142428636550903,0.9782252907752991,0.5672922134399414,0.13847996294498444,-0.3130730112348504,0.01366421601528208,-0.10368363008147131
2.865333080291748,-0.057508230209350586,-0.08959266543388367,0.08089011907577515,1.0276389122009277,0.6250587105751038,0.18420439958572388,-0.30308935783137353,0.02006349717841438,-0.10216388841063802
2.876181125640869,-0.04955671727657318,-0.032425135374069214,0.05999863147735596,1.2994798421859741,0.6515763401985168,0.2679125964641571,-0.29151067307319495,0.027081915648493327,-0.10015040537178937
2.885317087173462,-0.0470176562666893,0.04145181179046631,0.037206292152404785,1.7753642797470093,0.6011732220649719,0.37666821479797363,-0.27619424918823904,0.03419030391015744,-0.0972207391901276
2.895552158355713,-0.036685097962617874,0.15459796786308289,0.029593229293823242,2.3071584701538086,0.5890888571739197,0.5076446533203125,-0.2557114055524478,0.04111558361021128,-0.0934952495876528
2.90527606010437,-0.02900087833404541,0.1959574967622757,0.01999276876449585,2.727537155151367,0.5487489700317383,0.6303633451461792,-0.2300312235716068,0.047998656179042365,-0.08874630049453507
2.9153950214385986,-0.02087961509823799,0.19690850377082825,0.02220320701599121,2.8405120372772217,0.4961235523223877,0.6503636837005615,-0.20167256254961508,0.05430938713323177,-0.08358199354018377
2.926474094390869,-0.022680554538965225,0.1282709836959839,0.03567463159561157,2.720470666885376,0.5061167478561401,0.586348831653595,-0.17343951714296146,0.06016380244909641,-0.07888597028622643
2.9353599548339844,-0.023548707365989685,-0.017488107085227966,0.026907801628112793,2.3707268238067627,0.5154697895050049,0.5060667991638184,-0.14750852759891891,0.06593806781665834,-0.07497625602107748
2.9452450275421143,-0.02806096524000168,-0.0844682902097702,0.02037668228149414,1.9555974006652832,0.5231998562812805,0.38468971848487854,-0.12560023582686541,0.07154711551523359,-0.07195360141942643
2.955357074737549,-0.03286118805408478,-0.10008841753005981,0.018164992332458496,1.7045449018478394,0.5641512870788574,0.2538454234600067,-0.1072672589912002,0.07715829118730202,-0.0701308493434551
2.9654369354248047,-0.035844460129737854,-0.10641830414533615,-0.009801030158996582,1.6062872409820557,0.597157895565033,0.18593034148216248,-0.09064270426572127,0.08311018963859579,-0.06929798023836459
2.9763150215148926,-0.03963249921798706,-0.00923679769039154,-0.03667259216308594,1.6417094469070435,0.5563249588012695,0.20164698362350464,-0.07430758991695702,0.08897583274625082,-0.06880727167501612
2.9854190349578857,-0.02806221693754196,0.13671547174453735,-0.035238027572631836,1.6374104022979736,0.4442821741104126,0.21906055510044098,-0.05774410153187318,0.09404646526157526,-0.06817331956077623
2.9989850521087646,-0.0054296404123306274,0.1856975257396698,-0.02060621976852417,1.512523889541626,0.3537179231643677,0.15744858980178833,-0.04173155969849508,0.09803331602743899,-0.06778190067769459
3.005772113800049,0.0043294355273246765,0.11312724649906158,0.000934898853302002,1.229645013809204,0.3540164828300476,0.0880293995141983,-0.027913354690140287,0.10150565743640079,-0.06798618327165805
3.0153861045837402,-0.007575862109661102,0.02016843669116497,0.021525859832763672,0.9274004697799683,0.36661243438720703,0.12490858137607574,-0.017185912095808508,0.10510538478596829,-0.0680615912100042
3.0264060497283936,-0.02084062248468399,0.012246533297002316,0.027879655361175537,0.7412654757499695,0.332851767539978,0.14317190647125244,-0.008734401850392134,0.10864386595048244,-0.06756674161059505
3.0355019569396973,-0.023252755403518677,0.02936432883143425,0.025671422481536865,0.6537547707557678,0.2757946252822876,0.12553486227989197,-0.001717818741038559,0.11171150736498066,-0.0669918601259048
3.0455121994018555,-0.015108346939086914,0.03090522438287735,0.012964308261871338,0.6022222638130188,0.18816745281219482,0.1187758669257164,0.004690649442637996,0.1140352459301899,-0.06649027113014136
3.055453062057495,0.006950855255126953,0.041066236793994904,-0.02029484510421753,0.5273858308792114,0.13807153701782227,0.08750955760478973,0.010442045287820077,0.11561206715920616,-0.06610585752667256
3.0655951499938965,0.010297045111656189,0.03708772361278534,-0.037991106510162354,0.4706997871398926,0.1421400010585785,0.0657515823841095,0.015436123162897109,0.11699781773885247,-0.06592612970367771
3.076195001602173,-0.0036925002932548523,0.002838917076587677,-0.04786139726638794,0.508611798286438,0.16857559978961945,0.06903152912855148,0.02035741480188816,0.11857296791346099,-0.06584760462473503
3.0855250358581543,-0.01730182021856308,-0.00449933297932148,-0.046865999698638916,0.5166495442390442,0.1410522758960724,0.07489778101444244,0.025502216923034917,0.12012280217443412,-0.06573360158920678
3.095500946044922,-0.02225644886493683,0.03237302601337433,-0.027354419231414795,0.5353055596351624,0.097024105489254,0.07498060166835785,0.03086731225171347,0.12132066069348302,-0.06561606147112121
3.105501174926758,-0.0064862072467803955,0.029029108583927155,-0.004734933376312256,0.5040726065635681,0.06009533628821373,0.05787644907832146,0.03614758169358719,0.12208801541893352,-0.06557955132565554
3.115629196166992,-0.001384541392326355,0.00046161189675331116,0.010769426822662354,0.4427618980407715,0.06710877269506454,0.030688771978020668,0.04092408977363743,0.12270542137039527,-0.06571578262174414
3.126047134399414,-0.0061071887612342834,-0.036424919962882996,0.017955660820007324,0.37689274549484253,0.09855559468269348,0.01801079511642456,0.04499590380731455,0.12353507127989405,-0.06599513365971518
3.1355819702148438,-0.015814028680324554,-0.05607414245605469,0.02166914939880371,0.3261038661003113,0.12048938870429993,0.014108730480074883,0.04848281152406231,0.12465064489824045,-0.06625738054235507
3.1456551551818848,-0.020507872104644775,-0.04629822447896004,0.03164017200469971,0.32902902364730835,0.1419399082660675,0.010100619867444038,0.05173205292068952,0.12598955802707745,-0.06655064010397616
3.1556460857391357,-0.012999624013900757,-0.03650834038853645,0.03147923946380615,0.34215736389160156,0.1420150101184845,0.009944291785359383,0.055087516065467794,0.12742864645725682,-0.06688761982868648
3.165699005126953,-0.0050110965967178345,-0.020587686449289322,0.024836301803588867,0.32543736696243286,0.1419299691915512,0.004001874476671219,0.05844032972307518,0.12886262615856295,-0.0672420792564914
3.1761531829833984,0.0018801987171173096,-0.018217138946056366,0.024527788162231445,0.2880428433418274,0.16935546696186066,0.003364846110343933,0.06150302472050218,0.13043390814625977,-0.06761483384255586
3.1860129833221436,0.003967374563217163,-0.03037603199481964,0.02115100622177124,0.20317940413951874,0.18310967087745667,0.019584989175200462,0.06396690296842972,0.13221574531293365,-0.06783848118138948
3.1957168579101562,0.005960360169410706,-0.02634841948747635,0.019098341464996338,0.10006499290466309,0.1799389123916626,0.03154684230685234,0.06552585437231467,0.13405568689665542,-0.06778062390524886
3.2057950496673584,0.016376465559005737,-0.023460038006305695,0.019978463649749756,-0.04114992171525955,0.15653106570243835,0.031162550672888756,0.06589733619078071,0.1357313776718589,-0.06749854145855551
3.2158761024475098,0.027655810117721558,-0.038035668432712555,0.02162879705429077,-0.20101574063301086,0.13775551319122314,0.018160996958613396,0.06473169470463302,0.1371686336522423,-0.06707844609355719
3.2261719703674316,0.03300084173679352,-0.05840018391609192,0.01831209659576416,-0.36427542567253113,0.10727541148662567,-0.007129712961614132,0.061939712232098564,0.13837445194862383,-0.06663096623690865
3.235718011856079,0.03418467938899994,-0.07196349650621414,0.00817340612411499,-0.508535623550415,0.08538902550935745,-0.0360974483191967,0.05756964127545105,0.13930126270265217,-0.06623813596840478
3.245725154876709,0.035767823457717896,-0.07912618666887283,0.003706216812133789,-0.6063871383666992,0.0629967600107193,-0.06391756981611252,0.05192437352721039,0.1400486331039389,-0.06593903356269387
3.2557148933410645,0.0317717045545578,-0.07387113571166992,-0.006202578544616699,-0.612371563911438,0.0483349971473217,-0.07625466585159302,0.04574321367081922,0.14059055213118296,-0.06578452247262144
3.2658979892730713,0.025734469294548035,-0.04929105564951897,-0.020710885524749756,-0.5470614433288574,0.02624407596886158,-0.07846498489379883,0.03980026447109521,0.1409502684847041,-0.06573660712062947
3.276149034500122,0.02723844349384308,-0.010172873735427856,-0.037320494651794434,-0.41128602623939514,-0.003800110425800085,-0.0417887307703495,0.03496975332410538,0.14108554718278535,-0.06567960872488489
3.2858948707580566,0.028899937868118286,0.0278065986931324,-0.05337727069854736,-0.27546629309654236,-0.04405738413333893,-0.001570310676470399,0.03151970515440359,0.1408396901542314,-0.06540210560621801
3.2958168983459473,0.025489255785942078,0.055571362376213074,-0.054742276668548584,-0.13042043149471283,-0.07274362444877625,0.038744889199733734,0.0295594389973899,0.14022257725549425,-0.06494326899347737
3.3058810234069824,0.018215522170066833,0.05251545459032059,-0.04649096727371216,-0.03455127403140068,-0.0823172926902771,0.06689061224460602,0.028837813913167223,0.13941324497499605,-0.06430082665435397
3.317115068435669,0.006373777985572815,0.03528798371553421,-0.032289862632751465,0.0060859015211462975,-0.08089835941791534,0.09479361027479172,0.028837516537260743,0.13856641414889553,-0.0634733204270523
3.3282599449157715,-0.00543096661567688,0.01760096102952957,-0.016726434230804443,-0.006450013257563114,-0.07264313846826553,0.10302220284938812,0.029003351668418338,0.1377600437425439,-0.06247082457725393
3.3358800411224365,-0.010942518711090088,-0.00099882110953331,-0.0027557015419006348,-0.03203100711107254,-0.06615114957094193,0.09258953481912613,0.028942969871743877,0.13703866219982855,-0.06146186175070348
3.3458471298217773,-0.01034371554851532,-0.020630786195397377,0.005464434623718262,-0.06017349660396576,-0.06774735450744629,0.06651899218559265,0.028613239442797988,0.1363556240150468,-0.060618290047499565
3.355865955352783,-0.00919613242149353,-0.03462904691696167,0.009845852851867676,-0.11022254824638367,-0.07997313141822815,0.03674139454960823,0.027859301633071758,0.13559456002494777,-0.05999220766625074
3.365952968597412,-0.0032978206872940063,-0.031000884249806404,0.013306260108947754,-0.146775022149086,-0.06080223619937897,0.013632663525640965,0.026573659721290607,0.13485725914931943,-0.05956699550899177
3.37663197517395,-0.0016167908906936646,-0.028587136417627335,0.010140657424926758,-0.14800460636615753,-0.0372668132185936,0.0052455710247159,0.025141718054637913,0.13438754295546126,-0.05928962304814883
3.385972023010254,-0.009257405996322632,-0.018953941762447357,0.0018549561500549316,-0.13751229643821716,-0.047233205288648605,0.003234777832403779,0.02371185996334321,0.13396291180904724,-0.05904699139358789
3.3958940505981445,-0.008851692080497742,0.00642390176653862,0.00659710168838501,-0.12624232470989227,-0.06008375436067581,-0.004777342081069946,0.022401731359126157,0.13341077499743045,-0.058878270438667744
3.405924081802368,-0.0018578767776489258,0.011618813499808311,0.01090550422668457,-0.08205542713403702,-0.0431191511452198,-0.00046222255332395434,0.021279242373979417,0.13286319170326316,-0.05878027284989633
3.416032075881958,-0.006276518106460571,0.010695569217205048,0.007352471351623535,-0.04609156399965286,-0.03184119611978531,0.010028768330812454,0.020737344311143772,0.13247025823660996,-0.05863587286321032
3.426690101623535,-0.011471524834632874,0.019404204562306404,0.0019235610961914062,-0.008104301989078522,-0.044994283467531204,0.010977811180055141,0.02087056762639667,0.13207741040024087,-0.058486994911786015
3.435943126678467,-0.00716736912727356,0.027519382536411285,0.008660554885864258,0.011363671161234379,-0.05032540112733841,0.007202514447271824,0.0214938249816365,0.13156991498432863,-0.05840170884815075
3.4459550380706787,-0.0019149929285049438,0.023359891027212143,0.015394747257232666,0.01076800562441349,-0.023740528151392937,0.004124166443943977,0.022095217603475218,0.1311987873628159,-0.05836321891069391
3.455988883972168,-0.008026018738746643,0.010695330798625946,0.008756935596466064,-0.010431288741528988,0.00026999833062291145,-0.0008791139116510749,0.022599118513713552,0.13111548689168218,-0.05833309669427716
3.4659461975097656,-0.013757243752479553,0.004500038921833038,0.004436969757080078,-0.024588238447904587,0.0018183155916631222,-0.015034614130854607,0.022797306793696664,0.13109455070733408,-0.05838656803384987
3.476166009902954,-0.009213283658027649,-0.0010898690670728683,0.010137498378753662,-0.002726880833506584,0.0072929756715893745,-0.02143205888569355,0.02247160195960544,0.13108136919266328,-0.05855769441828486
3.485980987548828,-0.003746628761291504,0.002321125939488411,0.014299631118774414,0.009925615042448044,0.0015062377788126469,-0.017334040254354477,0.022205156258090632,0.13115350811722334,-0.05874921582950595
3.496035099029541,-0.004911899566650391,0.018481630831956863,0.011670529842376709,0.01236959733068943,-0.005685895215719938,-0.030976882204413414,0.022053978477271145,0.13109714113825294,-0.05899701085961443
3.5059800148010254,-0.0019242018461227417,0.009541323408484459,0.010291516780853271,0.006923399865627289,-0.00011269794777035713,-0.04095420241355896,0.021643239326561856,0.13097584099952395,-0.059370434472179774
3.5160460472106934,0.002063438296318054,-0.004949124529957771,0.009539902210235596,0.006954558193683624,0.010699469596147537,-0.03703296557068825,0.02105341751702038,0.13098445421676527,-0.05977588598663055
3.526069164276123,0.000703170895576477,0.0007387921214103699,0.008681714534759521,0.0004932137671858072,0.008324329741299152,-0.03489748015999794,0.020546153123423207,0.13109305039147479,-0.060135945289440405
3.53609299659729,0.0009354501962661743,0.004549166187644005,0.010642707347869873,-0.007615046575665474,0.00024349987506866455,-0.037524957209825516,0.020282371637808876,0.13107353891350487,-0.06049011050143916
3.546113967895508,0.0049729496240615845,-0.002010144293308258,0.015363693237304688,-0.013372084125876427,-0.0017746882513165474,-0.04408347234129906,0.020085943057232065,0.13094061282503727,-0.06088680073607268
3.5560388565063477,0.00589635968208313,-0.0034564267843961716,0.009959697723388672,0.005359258968383074,0.01808876544237137,-0.033655330538749695,0.020058720109596237,0.1309633524361284,-0.06127503665354545
3.566127061843872,0.005746960639953613,-0.0005628932267427444,0.0016363859176635742,0.010157808661460876,0.01454409770667553,-0.024308858439326286,0.020098864218117716,0.13112958114189469,-0.06156570403379714
3.576198101043701,0.004174292087554932,0.0046363715082407,0.00040286779403686523,0.031168818473815918,0.018183574080467224,-0.019847797229886055,0.019927003463462267,0.13125330938759316,-0.06181685694879067
3.586097002029419,0.004160568118095398,-1.786649227142334e-05,0.0056345462799072266,0.048317644745111465,0.024038266390562057,-0.011432048864662647,0.020155625531329806,0.1314678735455078,-0.062031129684317454
3.596153974533081,0.002824947237968445,0.0009244587272405624,0.005864858627319336,0.032365310937166214,0.02056816779077053,-0.005251118913292885,0.02068606977875975,0.13172382751100412,-0.06216751472206604
3.6061081886291504,0.002476334571838379,0.0035842694342136383,0.003938794136047363,0.013322543352842331,0.02482523024082184,-0.01310813706368208,0.02087399829228875,0.13195292427091118,-0.06227918139404644
3.6161751747131348,0.006584912538528442,-0.012569371610879898,0.006931126117706299,0.010774697177112103,0.03616337478160858,-0.01627223752439022,0.020879416660108837,0.13228764018915665,-0.062451794371635144
3.6263909339904785,0.004912674427032471,-0.01413186825811863,0.0069773197174072266,0.009556383825838566,0.03917527571320534,-0.007022547069936991,0.02099541729840295,0.1327282108753061,-0.06257506912391032
3.636199951171875,0.0034332275390625,0.00041092559695243835,0.008141696453094482,-0.00668170815333724,0.03226783499121666,-0.013869001530110836,0.021057628924904332,0.13314346856137607,-0.0626700251478532
3.6462411880493164,0.007868185639381409,-0.004681320860981941,0.005239605903625488,-0.025333821773529053,0.016979869455099106,-0.026244018226861954,0.020863413957558755,0.1334254920031286,-0.0628502479117034
