timestamp,accel_x,accel_y,accel_z,rotation_x,rotation_y,rotation_z, pitch,roll,yaw
0.046234846115112305,-0.026582464575767517,-0.01162257045507431,0.005127549171447754,0.005729688331484795,0.0049626799300313,0.004700151272118092,-0.03538790465451188,0.2061617948307905,0.003661170947303515
0.06076192855834961,-0.02206474542617798,-0.010355163365602493,0.0026353001594543457,0.00016527902334928513,0.0005705947987735271,0.0029989241156727076,-0.0353564436685689,0.20619162691118256,0.0036976012640751624
0.06360411643981934,-0.019985586404800415,-0.01304715871810913,0.002760648727416992,-0.006219499744474888,-0.0031325751915574074,0.0035507308784872293,-0.035378164087692426,0.20617213723200595,0.00373909217539877
0.06459403038024902,-0.022538572549819946,-0.011369679123163223,0.004055380821228027,-0.019405076280236244,0.001183343818411231,0.003653795225545764,-0.035501298428362124,0.2061623230046521,0.0037966773181330456
0.0716550350189209,-0.02431739866733551,-0.011983543634414673,0.0009558796882629395,-0.03168680891394615,0.005677694454789162,0.0014201486483216286,-0.03574910592322629,0.2062043539581395,0.003878388506349378
0.07842302322387695,-0.021973565220832825,-0.013705786317586899,-0.0008115768432617188,-0.04516133666038513,0.009029282256960869,0.0018302754033356905,-0.03612882051276747,0.20627576163651662,0.003971474274358147
0.08606505393981934,-0.022122859954833984,-0.011982645839452744,-0.0034458041191101074,-0.035988662391901016,0.015286335721611977,0.0036879368126392365,-0.036542186337558576,0.20640035332267498,0.004085900890143426
0.0958249568939209,-0.022334769368171692,-0.008612792938947678,-0.005087435245513916,0.009672297164797783,0.013408806174993515,0.00967285968363285,-0.036666681161789505,0.20657116290856226,0.004183011373296947
0.10591697692871094,-0.021423503756523132,-0.0024692416191101074,-0.0032033324241638184,0.03405413404107094,0.003408903256058693,0.013736150227487087,-0.03642812156336081,0.20665169811523007,0.004244134956188664
0.11586308479309082,-0.018334507942199707,0.0008806176483631134,0.0007960200309753418,0.024462763220071793,-0.006727620493620634,0.015029381960630417,-0.03609928327903421,0.20662672855304584,0.004328085813745835
0.12580394744873047,-0.01722879707813263,-0.010749951004981995,0.0016546249389648438,0.01407115813344717,-0.005798399448394775,0.011226281523704529,-0.0358736275460422,0.2065709745111238,0.004411959626309723
0.1358189582824707,-0.020422518253326416,-0.013650111854076385,0.0004315972328186035,-0.011485069058835506,-0.006256729364395142,0.011204442009329796,-0.035844079047512814,0.20651307997321464,0.004532262854973614
0.14603400230407715,-0.01945003867149353,-0.012687835842370987,0.0018801689147949219,-0.02958151325583458,-0.014740228652954102,0.008806265890598297,-0.03604159942460366,0.20640954990550958,0.004670321636596053
0.15613698959350586,-0.01845507323741913,-0.012606512755155563,0.004732608795166016,-0.021684175357222557,-0.022879382595419884,0.006392376963049173,-0.03629614047324083,0.20622107365320685,0.004795358646429331
0.16764283180236816,-0.021317750215530396,-0.006006304174661636,0.003183603286743164,-0.005699451081454754,-0.020756220445036888,0.00530996173620224,-0.036425141458586885,0.20601315397910677,0.004888178459044649
0.17609000205993652,-0.02548949420452118,-0.004973255097866058,0.00370866060256958,0.0018623284995555878,-0.014729753136634827,0.004788781050592661,-0.03642969537764407,0.205832245109104,0.00493918025324083
0.18605589866638184,-0.02625088393688202,-0.005864124745130539,0.0045432448387146,0.005481547676026821,-0.007652536500245333,0.0031310701742768288,-0.03632867336228264,0.2054243400907877,0.004962870101782691
0.19599103927612305,-0.025944724678993225,-0.008696168661117554,0.007510066032409668,0.004531331360340118,0.0037013182882219553,0.0012455519754439592,-0.03629203726256093,0.20517353096800453,0.0049621817511626455
0.20592713356018066,-0.026690155267715454,-0.010623317211866379,0.008648812770843506,0.005724761169403791,0.00802389532327652,-0.002344815293326974,-0.03599121263748933,0.20502860698303257,0.004935753551223852
0.21587800979614258,-0.024696245789527893,-0.00875532254576683,0.008236885070800781,-0.00264076073653996,0.008555461652576923,-0.0031264531426131725,-0.03566414174449106,0.20485972891195142,0.004900113809052845
0.22593998908996582,-0.021879181265830994,-0.009696662425994873,0.00875091552734375,-0.008214840665459633,0.005314083769917488,-0.004613508936017752,-0.03546094798677641,0.20469263163081527,0.004873295073183332
0.23590683937072754,-0.01830105483531952,-0.012060169130563736,0.007383823394775391,-0.00569682102650404,0.0049673402681946754,0.0025794226676225662,-0.03527611844395457,0.20454319916266095,0.004870574434789788
0.24608492851257324,-0.018708020448684692,-0.009608328342437744,0.0037622451782226562,-0.008649900555610657,0.005507873371243477,0.00653485581278801,-0.03523513950898113,0.20435063710326284,0.004920008782406457
0.2559549808502197,-0.019104331731796265,-0.009728696197271347,0.0032135844230651855,-0.017048710957169533,0.0033067709300667048,0.007267490960657597,-0.035263978100858726,0.20411655166108741,0.005002888458593006
0.26685595512390137,-0.018175750970840454,-0.01287081465125084,0.0041159987449646,-0.008576946333050728,0.0035279463045299053,0.0033977588173002005,-0.035323852691277295,0.2038697675641399,0.005067674733100107
0.27612996101379395,-0.020122408866882324,-0.013034254312515259,0.003832876682281494,-0.0044908588752150536,0.007229208014905453,0.00836189091205597,-0.035212568619193904,0.20362850484481224,0.005119901523633264
0.28618597984313965,-0.020272284746170044,-0.004551861435174942,0.004082441329956055,-0.0009232880547642708,0.005321407224982977,0.00828162394464016,-0.03503084573797368,0.20340614178993793,0.00519344001967359
0.29617905616760254,-0.021149083971977234,-0.008234713226556778,0.0029180049896240234,-0.009048592299222946,0.013021671213209629,0.004546539857983589,-0.03489891921459245,0.20322533522617167,0.005255191422141551
0.3061511516571045,-0.021250814199447632,-0.014161612838506699,0.0007105469703674316,-0.005133695900440216,0.013717155903577805,0.006429075263440609,-0.034798534418013095,0.20314147902485402,0.0053089258620281285
0.318220853805542,-0.019490763545036316,-0.0007550492882728577,-0.0028494596481323242,0.006602589040994644,0.00729600852355361,0.007702331990003586,-0.03454489105810157,0.2030562931915649,0.005381205410820337
0.32621002197265625,-0.015840426087379456,-0.00036004185676574707,-0.003088712692260742,0.01132307481020689,0.007053128443658352,0.00852769985795021,-0.03427179880531368,0.20292611385839093,0.0054406240447718544
0.33621811866760254,-0.015650048851966858,-0.005736876279115677,-0.008025527000427246,0.01598147675395012,0.00515855522826314,0.011492064222693443,-0.033956921016442404,0.20279178236655157,0.005507522805477686
0.3462040424346924,-0.014858976006507874,-0.0038075149059295654,-0.007049918174743652,0.017396146431565285,0.0003811996430158615,0.008873963728547096,-0.033553205274528694,0.2026355344880694,0.005561109699412718
0.35628795623779297,-0.012025982141494751,-0.0012155286967754364,-0.0030822157859802246,0.011197906918823719,-0.008788596838712692,0.00841962918639183,-0.0331888033717555,0.2023889264267608,0.005615979150258975
0.3682379722595215,-0.009666457772254944,-0.004891384392976761,-0.001886904239654541,0.006112300790846348,-0.011338839307427406,0.0051390933804214,-0.03304987867590488,0.20208197393096813,0.005656855741650862
0.3763289451599121,-0.01188187301158905,-0.004825882613658905,-0.0016283392906188965,-0.004324361216276884,-0.01569763571023941,0.0004125151317566633,-0.032923276436913826,0.20172567295652719,0.00567386311589798
0.3863708972930908,-0.01294715702533722,-0.003278229385614395,-0.0013644695281982422,-0.008172279223799706,-0.015334425494074821,-0.003181261010468006,-0.03276408958765286,0.2013477201188027,0.005666080679544197
0.3963038921356201,-0.015387848019599915,-0.006899278610944748,-0.0002346038818359375,-0.009402659721672535,-0.01069333404302597,-0.005228166468441486,-0.03287567460307325,0.2010205404755845,0.005642618037132901
0.40638184547424316,-0.015190064907073975,-0.004881229251623154,-6.538629531860352e-05,0.002462471602484584,-0.00814357865601778,-0.005468756426125765,-0.032948122054000085,0.2007723311236921,0.005591503751670865
0.42046403884887695,-0.013914927840232849,-0.003635689616203308,0.0010412335395812988,0.014617671258747578,-0.006813862361013889,-0.006598735228180885,-0.03278586806526837,0.2005287189187365,0.005519135945874672
0.4273819923400879,-0.016363084316253662,-0.003100484609603882,0.005500197410583496,0.02204444631934166,-0.002909358125180006,-0.011858105659484863,-0.032570984042971575,0.200316071146866,0.005380415021259882
0.4362950325012207,-0.02158769965171814,-0.004431631416082382,0.008135318756103516,0.03191811218857765,0.005925412755459547,-0.011003764346241951,-0.03231507689567952,0.20022713574773482,0.0052152418512901415
0.4464130401611328,-0.022134840488433838,-0.0070654526352882385,0.008603096008300781,0.03756188601255417,0.013821596279740334,-0.016713900491595268,-0.03192746060853165,0.2002379788129745,0.005010700610589095
0.45632481575012207,-0.020327076315879822,-0.006722014397382736,0.010836184024810791,0.03956245258450508,0.017211800441145897,-0.014863003976643085,-0.031522779799086006,0.20027471871185665,0.004777159146052551
0.46736788749694824,-0.019691839814186096,-0.008786546066403389,0.011417627334594727,0.036814868450164795,0.017851758748292923,-0.015410549938678741,-0.03114572224123723,0.20032481250194661,0.004541194740556898
0.4764678478240967,-0.01710928976535797,-0.009336525574326515,0.012662768363952637,0.02920355647802353,0.015802456066012383,-0.014893364161252975,-0.030780001068106383,0.20033420888300843,0.004313762841306048
0.48700881004333496,-0.015259996056556702,-0.01085999421775341,0.012622714042663574,0.020262258127331734,0.01699688285589218,-0.01323075219988823,-0.030518068785601538,0.2003451005567415,0.0041263352600351905
0.4968221187591553,-0.015347674489021301,-0.010501867160201073,0.008700788021087646,0.013253618031740189,0.01662670448422432,-0.0110988924279809,-0.030358231122498604,0.20037130502136577,0.003969037891403887
0.5084130764007568,-0.013432145118713379,-0.008456723764538765,0.005073666572570801,0.009170492179691792,0.01474793255329132,-0.008094473741948605,-0.030266172345563128,0.2003624008213921,0.0038452057051790766
0.5185868740081787,-0.012134790420532227,-0.0056330859661102295,0.0028931498527526855,0.015836117789149284,0.013162286952137947,-0.005623592995107174,-0.03012801790100431,0.20029887639866006,0.003751627150642728
0.5265259742736816,-0.01460273563861847,-0.001813795417547226,0.005220651626586914,0.01808330975472927,0.01136878039687872,-0.006455671042203903,-0.02989443724822254,0.2002155067094468,0.0036544408573410503
0.5365841388702393,-0.016659066081047058,-0.00030867941677570343,0.0063239336013793945,0.014746101573109627,0.012467866763472557,-0.00667644664645195,-0.029670961386092223,0.2001481682163935,0.0035510084793976397
0.5469160079956055,-0.018281981348991394,-0.0008205138146877289,0.00899285078048706,0.0067149074748158455,0.013482354581356049,-0.012061038985848427,-0.029480808489105614,0.20010588914758118,0.003426844361028155
0.5566260814666748,-0.018972739577293396,-0.00042931921780109406,0.007469654083251953,6.95216003805399e-05,0.013947076164186,-0.015548448078334332,-0.029364220492558102,0.20010938795814964,0.003285758014053709
0.5682218074798584,-0.02002681791782379,0.0004360843449831009,0.008733212947845459,0.0059376973658800125,0.013631580397486687,-0.018211716786026955,-0.02924644736932811,0.2001410880480687,0.0031147352270789607
0.5766539573669434,-0.017423704266548157,0.0021054353564977646,0.005730271339416504,0.006154478527605534,0.01046747900545597,-0.017002640292048454,-0.029102915588386173,0.20014652116604326,0.002926743202098665
0.5867798328399658,-0.014835670590400696,0.0049464087933301926,0.005250692367553711,0.006853408180177212,0.003804293926805258,-0.0154713224619627,-0.028977953091547506,0.20012070765860426,0.002755164116336284
0.5966098308563232,-0.013294428586959839,0.0012186169624328613,0.0056236982345581055,0.013283343985676765,-0.0033923666924238205,-0.015371187590062618,-0.028860479894160077,0.20002644437278416,0.0025881211456312363
0.6066579818725586,-0.012068137526512146,-0.000269472599029541,0.010596930980682373,0.01517627015709877,-0.014243638142943382,-0.014471678994596004,-0.028746349722382023,0.19981760767940665,0.002415550373774319
0.6177599430084229,-0.013186991214752197,0.0020049866288900375,0.014573097229003906,0.014346960932016373,-0.011608174070715904,-0.014152898453176022,-0.028638593308333397,0.1995572794851617,0.002248226083601874
0.6270830631256104,-0.011969923973083496,-0.000723985955119133,0.01262509822845459,0.008963081985712051,-0.010010365396738052,-0.013240606524050236,-0.028559918284916015,0.19931135837379832,0.002090516927561255
0.6368811130523682,-0.011824175715446472,-0.003287849947810173,0.00823962688446045,0.006572627928107977,-0.0002682562917470932,-0.014116786420345306,-0.0285297758901704,0.1991157094170777,0.0019390595399386165
0.6466050148010254,-0.013115286827087402,-0.0010683853179216385,0.0038222670555114746,0.004878723993897438,0.00801568292081356,-0.014415699988603592,-0.028522831033897494,0.19900063778947774,0.0017792337624478033
0.6565830707550049,-0.01162920892238617,0.0025771986693143845,0.0016393065452575684,-0.007481538690626621,0.005894741974771023,-0.019369710236787796,-0.02860042494603747,0.19891715464416165,0.0016091051977203444
0.6675839424133301,-0.010724902153015137,0.00011315383017063141,0.004265189170837402,-0.00791699904948473,0.010642891749739647,-0.02361111529171467,-0.028790988967956874,0.19888298285929104,0.0014063369442861805
0.676692008972168,-0.012542232871055603,-0.0030711237341165543,0.0033806562423706055,-0.01315277349203825,0.018163658678531647,-0.027063637971878052,-0.028969358089617807,0.1989323146288622,0.0011861581507372808
0.6867020130157471,-0.012423887848854065,0.002446582540869713,0.002882838249206543,-0.013516994193196297,0.01947277970612049,-0.026507996022701263,-0.029158517888830567,0.19903062744395297,0.000949990500053898
0.6966869831085205,-0.01139405369758606,-0.001527080312371254,0.0026636719703674316,0.002075281459838152,0.0146548543125391,-0.02733037993311882,-0.02928702337494439,0.19911719693205737,0.0006938609239292096
0.7074911594390869,-0.011945649981498718,-0.0009801816195249557,0.0010164380073547363,0.01241227425634861,0.019583389163017273,-0.02582707814872265,-0.02924364455697073,0.1991971184100875,0.0004204443119488939
0.7190258502960205,-0.01342436671257019,-0.002191750332713127,0.005270600318908691,0.007935767062008381,0.020554911345243454,-0.024536509066820145,-0.029142913701449325,0.19930411869193673,0.00014078963893614506
0.7269928455352783,-0.01356913149356842,-0.009463600814342499,0.007912397384643555,0.002142858924344182,0.018690165132284164,-0.02246936410665512,-0.029121054522271924,0.19937389068109082,-0.00010836778312943333
0.7369270324707031,-0.01222895085811615,-0.010280074551701546,0.008385777473449707,-0.0022939671762287617,0.01619132235646248,-0.018214965239167213,-0.029189876673354546,0.19943924392455017,-0.0003124739281083178
0.7467689514160156,-0.010178685188293457,-0.009899960830807686,0.008699357509613037,-0.0039387852884829044,0.006970348302274942,-0.020440194755792618,-0.029252293253412165,0.19946504836670922,-0.0004935925276926091
0.7567851543426514,-0.009744152426719666,-0.009612759575247765,0.009812116622924805,0.005280012730509043,0.002051223535090685,-0.01643107272684574,-0.029239746518924026,0.19939525444025138,-0.0006743170576028552
0.7681100368499756,-0.010069414973258972,-0.010853473097085953,0.007372856140136719,0.006652123294770718,0.0013263553846627474,-0.013842586427927017,-0.02924450065943998,0.19930677329737642,-0.0008451395532804065
0.7768509387969971,-0.010445043444633484,-0.006297016516327858,0.0013364553451538086,0.0030398115050047636,-0.0029344363138079643,-0.008727187290787697,-0.0291893638974268,0.19920703485354954,-0.0009680658679033561
0.7868740558624268,-0.009443312883377075,-0.008791882544755936,0.002570033073425293,-0.011588315479457378,-0.005588232073932886,-0.01146603561937809,-0.029242845210301457,0.19905705502996984,-0.0010696163230668044
0.7970330715179443,-0.011451750993728638,-0.013259943574666977,0.0050196051597595215,-0.02714810147881508,-0.0036875340156257153,-0.0067277392372488976,-0.02942326650969568,0.19891215782019184,-0.0011388727450907287
0.8070249557495117,-0.015758365392684937,-0.010572908446192741,0.007539033889770508,-0.04238381236791611,7.23171979188919e-05,-0.01144345197826624,-0.029650758076587187,0.19879264408819736,-0.00115520491087177
0.8178310394287109,-0.014668524265289307,-0.010580504313111305,0.003428041934967041,-0.05527191609144211,-0.005002868827432394,-0.01467226818203926,-0.030009463372182864,0.198694743624341,-0.0011940098485879428
0.8268649578094482,-0.012347564101219177,-0.010587891563773155,0.002355635166168213,-0.05832294747233391,-0.0058518401347100735,-0.01862381398677826,-0.030459562507645314,0.198571257173947,-0.0012497036599974996
0.8368699550628662,-0.015009388327598572,-0.008819462731480598,0.005374550819396973,-0.07041662931442261,0.0035342047922313213,-0.003510374343022704,-0.03098019822098145,0.19850355946655093,-0.0012394445545010914
0.8468248844146729,-0.016895264387130737,-0.0027511678636074066,0.0013391375541687012,-0.09471381455659866,-0.001397436484694481,-0.032767489552497864,-0.03162608747076736,0.19843900364917225,-0.0012249995230189964
0.856895923614502,-0.012299329042434692,-0.007452581077814102,-0.0010303258895874023,-0.10915720462799072,-0.009683329612016678,-0.06475711613893509,-0.032620128013538446,0.1983021770244332,-0.0015472760783847542
0.8681490421295166,-0.007024824619293213,-0.009133521467447281,0.008994519710540771,-0.07690658420324326,-0.03573170676827431,-0.05710398778319359,-0.03350809413627382,0.19800177895177784,-0.0019661274917489374
0.8771569728851318,-0.003441363573074341,0.0208079032599926,0.009237468242645264,-0.04787946119904518,-0.06905264407396317,-0.06516671180725098,-0.03397770670415929,0.1973845268164383,-0.0024436574960576
0.8874609470367432,-0.003975287079811096,0.03071911260485649,0.005800008773803711,-0.04450932890176773,-0.08817760646343231,-0.06216452643275261,-0.03435113767703209,0.19648394587833085,-0.0029988045094828594
0.8968751430511475,-0.0010987669229507446,0.010533906519412994,-0.00792461633682251,-0.07708911597728729,-0.08908574283123016,-0.07299240678548813,-0.03489860774604929,0.19548345517548438,-0.003536648192411139
0.9069559574127197,-0.0041208416223526,-0.0015624761581420898,-0.003470480442047119,-0.09280034899711609,-0.07589098066091537,-0.07138614356517792,-0.035719254382793296,0.19455622413623425,-0.004080673131961048
0.9180419445037842,-0.014088988304138184,-0.001115061342716217,0.009258151054382324,-0.1380746215581894,-0.07907585054636002,-0.05157169699668884,-0.03678316231077802,0.19371220938480588,-0.0044651157091600705
0.92690110206604,-0.014494717121124268,-0.0006509162485599518,0.014625787734985352,-0.13665297627449036,-0.08076886832714081,-0.047559645026922226,-0.03808995245584193,0.1928440965296281,-0.00468125452977331
0.9369900226593018,-0.004675775766372681,-0.021223831921815872,0.0008035898208618164,-0.12858226895332336,-0.08476387709379196,-0.05984001234173775,-0.039346181569064595,0.19194356453621073,-0.004953482221610674
0.9469931125640869,-0.007810041308403015,-0.014910891652107239,-0.00165480375289917,-0.09984420984983444,-0.066708043217659,-0.04332553595304489,-0.04037352982379692,0.19118005854816225,-0.005262953119496018
0.9570789337158203,-0.0132998526096344,-0.0016920343041419983,-0.0033318400382995605,-0.06921545416116714,-0.04924330115318298,-0.022429045289754868,-0.04143779947825833,0.19062511161715326,-0.005415287877970411
0.9676668643951416,-0.014482393860816956,-0.007079288363456726,0.005604445934295654,-0.057379674166440964,-0.040743112564086914,-0.013827353715896606,-0.042385576836717384,0.19020505671949692,-0.005483866359361762
0.9772088527679443,-0.009890720248222351,-0.01880742236971855,0.010241925716400146,-0.0511164516210556,-0.03458694741129875,-0.008616878651082516,-0.042975329899989555,0.18983787510954614,-0.0054790702961580295
0.9884188175201416,-0.006490111351013184,-0.010718263685703278,0.010741174221038818,-0.047459933906793594,-0.027395080775022507,-0.006695408374071121,-0.043355154733648406,0.1895321171167254,-0.005466048998797563
0.99692702293396,-0.006767988204956055,-0.009237159043550491,0.011665821075439453,-0.05634237453341484,-0.023421645164489746,0.0001949882134795189,-0.043766529225492116,0.1892278231363107,-0.005396268372975869
1.007140874862671,-0.0035505294799804688,-0.011582296341657639,0.012868523597717285,-0.07094597816467285,-0.019948529079556465,0.0007183526176959276,-0.0443116522775267,0.1889546823205396,-0.005271958766733015
1.018143892288208,-0.003898829221725464,-0.012708764523267746,0.01049715280532837,-0.08862164616584778,-0.011878617107868195,0.0027479478158056736,-0.044767190983851436,0.18880036020817864,-0.005098787850042318
1.0271999835968018,-0.0015945881605148315,-0.01338544487953186,0.009995996952056885,-0.09404730796813965,-0.015734519809484482,-0.0011537964455783367,-0.04541400743340497,0.18863471782663058,-0.004914135950464222
1.0374529361724854,0.0020460039377212524,-0.01021014153957367,0.012537479400634766,-0.10638386756181717,-0.02107468992471695,-0.010760883800685406,-0.04632902207411497,0.18836917598080946,-0.004788581710774269
1.047170877456665,0.0034583956003189087,-0.002361137419939041,0.016236305236816406,-0.12098341435194016,-0.020197002217173576,-0.013059777207672596,-0.04733121376072387,0.18808947567867085,-0.004690970169788886
1.0574119091033936,0.004543498158454895,-0.0009072236716747284,0.012952029705047607,-0.13974831998348236,-0.02124389074742794,-0.01912166364490986,-0.048365671367508016,0.18784834392998964,-0.0046147032725729585
1.0691821575164795,0.006193876266479492,-0.0032633617520332336,0.010294616222381592,-0.1656709909439087,-0.02674296125769615,-0.026343198493123055,-0.04971635141326104,0.1875941213719292,-0.0045535006950743525
1.077279806137085,0.006299346685409546,-0.005953703075647354,0.011761724948883057,-0.20368628203868866,-0.029234081506729126,-0.032908689230680466,-0.0513864840485121,0.1873004834483545,-0.004506641142323333
1.0874040126800537,0.006148055195808411,-0.010160349309444427,0.013322055339813232,-0.25891825556755066,-0.026795649901032448,-0.03406444936990738,-0.053490314460826215,0.18702460752595387,-0.004396088960964164
1.0973598957061768,0.004608154296875,-0.013416752219200134,0.0123138427734375,-0.3219723105430603,-0.03036455251276493,-0.040652576833963394,-0.056140342667802684,0.18675533323083884,-0.004210372766520522
1.1073830127716064,0.005943432450294495,-0.01775415614247322,0.014603018760681152,-0.40680575370788574,-0.03552859649062157,-0.05147092416882515,-0.05952209986060394,0.186457750926532,-0.003990635185965412
1.1181190013885498,0.006094202399253845,-0.026353619992733,0.018315374851226807,-0.5140296816825867,-0.03513658046722412,-0.05959782749414444,-0.06390322014816045,0.18615283202503638,-0.0036841207323048603
1.1274168491363525,0.003460034728050232,-0.034244708716869354,0.01696115732192993,-0.645319402217865,-0.03635399788618088,-0.07265514880418777,-0.0695179930421897,0.18587535445381306,-0.0032604366802986414
1.137535810470581,0.002740025520324707,-0.04210011661052704,0.018557965755462646,-0.7769463658332825,-0.05202004313468933,-0.08806739002466202,-0.0764611089524954,0.18552218512354166,-0.002742416333682664
1.1472880840301514,0.0012959688901901245,-0.04385347664356232,0.0272788405418396,-0.8854533433914185,-0.0749901682138443,-0.10151059925556183,-0.08483349840454704,0.18494243056061574,-0.002138355854137425
1.1574039459228516,0.0033053606748580933,-0.03518303483724594,0.023821353912353516,-0.9629278779029846,-0.10453048348426819,-0.11061381548643112,-0.09414468015635627,0.18410582599913355,-0.0014741441339037827
1.1681499481201172,0.0042908936738967896,-0.02563801407814026,0.007459878921508789,-1.0657427310943604,-0.13516250252723694,-0.13293473422527313,-0.10428764407394726,0.1829739792763723,-0.0008170173686846649
1.1774230003356934,0.004263743758201599,-0.03143491595983505,-0.00011754035949707031,-1.257088541984558,-0.14717496931552887,-0.16574327647686005,-0.11595361136576986,0.181616035270178,-0.00018690466984976035
1.188330888748169,-0.0008419454097747803,-0.05124771595001221,0.005175888538360596,-1.4835695028305054,-0.1434798687696457,-0.198007732629776,-0.12978252482536096,0.18023422404334644,0.0005066386691601583
1.1973240375518799,-0.012227490544319153,-0.06731833517551422,0.005584359169006348,-1.6599922180175781,-0.15013937652111053,-0.24060499668121338,-0.1457143187876731,0.17886842818292156,0.0011624762829575606
1.2073359489440918,-0.010436490178108215,-0.04926776885986328,8.702278137207031e-06,-1.7341609001159668,-0.19306443631649017,-0.2634827196598053,-0.16294873585492983,0.17725816839995098,0.0016978428035944678
1.2176730632781982,0.010216057300567627,-0.00822843611240387,-0.01698368787765503,-1.7508538961410522,-0.24532389640808105,-0.2745247185230255,-0.1806107446869576,0.17512183271714624,0.002116429679654944
1.2273218631744385,0.014648988842964172,0.018131375312805176,-0.03617382049560547,-1.7918131351470947,-0.26650556921958923,-0.27524489164352417,-0.19851724292225478,0.17259356174157686,0.0024554575169273775
1.237488031387329,0.004700645804405212,0.003515973687171936,-0.04277181625366211,-1.896248698234558,-0.25990384817123413,-0.2811443507671356,-0.21715019909773087,0.17004433137921046,0.0028815312614170144
1.2473509311676025,-0.01102699339389801,-0.032648518681526184,-0.03263688087463379,-2.0502026081085205,-0.2541092336177826,-0.32011738419532776,-0.23711955229022655,0.16755373376966093,0.003249544624329911
1.2576990127563477,-0.02121114730834961,-0.052339911460876465,-0.010172724723815918,-2.1904428005218506,-0.2500822842121124,-0.35699018836021423,-0.2586757547535215,0.16507674000744643,0.003409038624296997
1.2676818370819092,-0.011089831590652466,-0.04955175518989563,0.013266682624816895,-2.2940704822540283,-0.29753226041793823,-0.3766983151435852,-0.2814321139224158,0.16238934343123257,0.0034583701462635678
1.2775018215179443,0.0006793439388275146,-0.035155415534973145,0.029245615005493164,-2.420012950897217,-0.3530634045600891,-0.3984829783439636,-0.30530286120421896,0.1591289365886965,0.003415203235079006
1.2875010967254639,0.006529957056045532,-0.03459843993186951,0.0382159948348999,-2.523737907409668,-0.3891083598136902,-0.3925919830799103,-0.3304025892357963,0.15537292998581645,0.0033521799936810552
1.2974209785461426,0.012116804718971252,-0.06364944577217102,0.016860127449035645,-2.6877167224884033,-0.40171709656715393,-0.41325145959854126,-0.35670351142999285,0.15142993921777073,0.0033973156292757276
1.3074920177459717,0.013999998569488525,-0.06772071123123169,0.01202237606048584,-2.8939619064331055,-0.4125012457370758,-0.45821940898895264,-0.38502466820772757,0.1472351784003127,0.003194753526653605
1.3181040287017822,0.011854544281959534,-0.07768163084983826,0.038575589656829834,-3.018360137939453,-0.38116514682769775,-0.44020792841911316,-0.41500810147139683,0.14318849204378348,0.0030081418902891182
1.3274779319763184,-0.0005589723587036133,-0.08911582827568054,0.055719077587127686,-3.1606016159057617,-0.39015281200408936,-0.4430268704891205,-0.44619731022061754,0.13934915233807812,0.0030048869322275734
1.3377578258514404,-0.0058627501130104065,-0.07962456345558167,0.07792186737060547,-3.351119041442871,-0.39243194460868835,-0.45695412158966064,-0.4791076260892418,0.13541383729436923,0.003007606654125363
1.3476788997650146,0.009313337504863739,-0.0803307592868805,0.057297706604003906,-3.5836071968078613,-0.4095502495765686,-0.48207780718803406,-0.5141024049864948,0.1313281874678378,0.0029501420956472854
1.3582208156585693,0.017284952104091644,-0.10892236232757568,0.02953404188156128,-3.8544678688049316,-0.3903677761554718,-0.46608737111091614,-0.5516385882711133,0.12739331337249557,0.003044632209743619
1.3681690692901611,0.018351897597312927,-0.1474916934967041,-0.0008074641227722168,-4.00574254989624,-0.33378589153289795,-0.4054766297340393,-0.591310501623696,0.12412770029531656,0.0037513240338026806
1.3775718212127686,0.022530943155288696,-0.1242561936378479,-0.032635390758514404,-4.037485122680664,-0.3305099308490753,-0.24961458146572113,-0.6318530173523992,0.12184100824896886,0.005619307757751655
1.3876550197601318,0.03377123922109604,-0.07096225023269653,-0.04643428325653076,-4.00710916519165,-0.4181654751300812,-0.30065464973449707,-0.6722532387602858,0.11984929058936288,0.008601188104878487
1.3974988460540771,0.017729662358760834,-0.12845498323440552,-0.02791762351989746,-3.9454643726348877,-0.32175612449645996,-0.22879323363304138,-0.7120913141380115,0.11768752979973925,0.011058235374417247
1.4076099395751953,-0.02834182232618332,-0.11615562438964844,-0.014298856258392334,-3.8477466106414795,-0.2341657131910324,-0.15867285430431366,-0.7510743386046056,0.11745052871588028,0.014783735781949631
1.4181158542633057,-0.023668743669986725,-0.06979906558990479,0.060604095458984375,-3.7295081615448,-0.23217898607254028,-0.14730727672576904,-0.7889303898493601,0.11801995549336738,0.018831261386983607
1.4278509616851807,-0.016499273478984833,-0.03866434097290039,0.07774293422698975,-3.440488576889038,-0.22395901381969452,-0.09412571042776108,-0.8248106992194254,0.11890452795583589,0.023268391865450624
1.437696933746338,-0.013787418603897095,0.029918789863586426,0.014733970165252686,-3.1535696983337402,-0.17133547365665436,-0.01710416004061699,-0.857670640405925,0.12054205434782517,0.028241630848328373
1.4480178356170654,-0.014902710914611816,0.024841785430908203,-0.021346747875213623,-3.017271041870117,-0.14087259769439697,0.02802576683461666,-0.8882996278094827,0.12366288305333951,0.03428994903217479
1.4576218128204346,0.003651231527328491,0.035766780376434326,-0.038424015045166016,-2.8672878742218018,-0.11784450709819794,-0.0389479398727417,-0.9173960695997988,0.12699493397464054,0.04015622405252658
1.4683070182800293,-0.0027650073170661926,-0.007759451866149902,-0.030175626277923584,-2.852494478225708,-0.11625806242227554,-0.017602279782295227,-0.9459592708655487,0.1302768804485831,0.04575285029489599
1.4777729511260986,-0.009921662509441376,-0.029070138931274414,-0.012437224388122559,-2.738783359527588,-0.07660812139511108,-0.03167948126792908,-0.973746694292608,0.1342960392331889,0.05184723791496945
1.4878480434417725,-0.03176996856927872,-0.008230388164520264,-0.009398996829986572,-2.4569969177246094,-0.1016269251704216,-0.07734305411577225,-0.9996819784455351,0.13799118850637265,0.057265538220358
1.4976980686187744,-0.036542318761348724,0.01959604024887085,0.01702958345413208,-2.180218458175659,-0.2097904086112976,-0.10843679308891296,-1.022775848845697,0.1400077649399849,0.06150677571916398
1.5078461170196533,-0.0030231475830078125,0.048103272914886475,0.006605744361877441,-1.9356015920639038,-0.25071051716804504,-0.07448239624500275,-1.0432636638267692,0.14093258917543938,0.06530530207963625
1.5178959369659424,0.01179312914609909,0.0781446099281311,-0.03566443920135498,-1.7810074090957642,-0.27747446298599243,-0.055625878274440765,-1.0616886817067723,0.14176524767038592,0.06931951300585354
1.5277221202850342,-0.005475759506225586,0.057658851146698,-0.043466031551361084,-1.7554121017456055,-0.25734731554985046,-0.062465835362672806,-1.079200171599456,0.1425491910344924,0.07330428416791653
1.537750005722046,-0.02029016613960266,0.015150845050811768,-0.03598368167877197,-1.849605679512024,-0.2242109477519989,-0.07060099393129349,-1.0971118794982875,0.14381966499007617,0.07742963460580067
1.5477049350738525,-0.021837405860424042,-0.006532132625579834,-0.02122625708580017,-1.9619277715682983,-0.2212764024734497,-0.09058018773794174,-1.1160967380233682,0.14546458328363723,0.0817778750809881
1.5579540729522705,-0.020792070776224136,-0.03605300188064575,-0.014133840799331665,-2.141784906387329,-0.19891038537025452,-0.1432119756937027,-1.1365981218380976,0.14719963504663877,0.08607191761729992
1.568755865097046,-0.02705719694495201,-0.05822134017944336,-0.031235963106155396,-2.2571866512298584,-0.1907031387090683,-0.18046869337558746,-1.1586256941687711,0.1489573493176081,0.09006525363336193
1.577765941619873,-0.03165647014975548,-0.03698265552520752,-0.02124166488647461,-2.273531198501587,-0.18985812366008759,-0.18062475323677063,-1.181432902519666,0.15085409039069764,0.09420895972027493
1.5879418849945068,-0.02413010597229004,0.004223942756652832,-0.005027145147323608,-2.239152431488037,-0.17125864326953888,-0.18022917211055756,-1.2040235970663795,0.15311545772594487,0.09856461783293784
1.5978848934173584,-0.021411754190921783,0.026030659675598145,-0.004369527101516724,-2.121814012527466,-0.17169514298439026,-0.1396002471446991,-1.225919308735497,0.15622127412391199,0.10369715139021428
1.6079270839691162,-0.025037039071321487,0.021812081336975098,-0.013742715120315552,-2.0129473209381104,-0.15524771809577942,-0.16555839776992798,-1.2465750512205913,0.15964174623566524,0.10908344865954595
1.6183269023895264,-0.037296004593372345,-0.011218369007110596,-0.021185994148254395,-1.8834559917449951,-0.12010090798139572,-0.16755311191082,-1.2660956682023676,0.16272274072638418,0.11374084507749858
1.627983808517456,-0.029588699340820312,0.009465217590332031,-0.0346604585647583,-1.7830106019973755,-0.14733591675758362,-0.15951333940029144,-1.284458677769044,0.16603060590817048,0.11859846291091186
1.638091802597046,-0.008094843477010727,0.019562482833862305,-0.041554391384124756,-1.8356448411941528,-0.12590332329273224,-0.20486457645893097,-1.3025328348637037,0.16887160255598924,0.12302458440490739
1.6479671001434326,-0.01396799087524414,-0.0284806489944458,-0.022926539182662964,-1.989368200302124,-0.11093200743198395,-0.24288040399551392,-1.3217146721835697,0.1715188300601971,0.1269643880703406
1.6579499244689941,-0.01976824551820755,-0.051240622997283936,0.012567579746246338,-2.170370578765869,-0.13729676604270935,-0.2916436791419983,-1.3426712608951166,0.17425112399069162,0.13105495477148998
1.6685731410980225,-0.006771191954612732,-0.07388037443161011,0.014927864074707031,-2.301567792892456,-0.13945810496807098,-0.32196569442749023,-1.3653529521933754,0.17667420353871627,0.13495695733429677
1.6780569553375244,0.0030668601393699646,-0.04926484823226929,-0.025204047560691833,-2.366511344909668,-0.1895204782485962,-0.3663922846317291,-1.388967139138489,0.17908918308114427,0.1391361690692549
1.6883509159088135,0.0150944534689188,-0.03478217124938965,-0.07242093980312347,-2.3125698566436768,-0.18745572865009308,-0.40240392088890076,-1.41277608513878,0.1791588150979106,0.14112231500992534
1.6981661319732666,0.0038732141256332397,-0.006106376647949219,-0.05862104892730713,-2.148031234741211,-0.16513551771640778,-0.3857663571834564,-1.4355099873206314,0.1781279081939511,0.14187879814991608
1.7085440158843994,-0.006661878898739815,0.06448352336883545,-0.0009370967745780945,-1.929107427597046,-0.22370636463165283,-0.3747611939907074,-1.4563131875704765,0.17529459663906807,0.1409047438921291
1.7184031009674072,-0.004874182865023613,0.051400721073150635,0.056818075478076935,-1.8674131631851196,-0.21255624294281006,-0.3770533800125122,-1.4756194303440138,0.1686599395672868,0.13645396466535925
1.728201150894165,-0.006855301558971405,0.039947569370269775,0.08347994834184647,-1.848154902458191,-0.19490814208984375,-0.3602743446826935,-1.4946284510317611,0.15894141656268082,0.128774631418634
1.738713026046753,-0.004639401100575924,0.06725084781646729,0.0781903862953186,-1.809219241142273,-0.22960379719734192,-0.32098153233528137,-1.5132834748033204,0.1489587628382417,0.12087413364745833
1.7481839656829834,0.011766161769628525,0.06464570760726929,0.07149988412857056,-1.781145691871643,-0.2382703423500061,-0.35632166266441345,-1.5314863915914572,0.12962286262787426,0.10394158440198431
1.7590279579162598,-0.011127852834761143,0.0007027387619018555,0.06743305921554565,-1.7198410034179688,-0.23261113464832306,-0.3945468068122864,-1.5493561031391536,0.058609819046579414,0.0351489397003642
1.7690479755401611,-0.03660181537270546,0.0003820657730102539,0.09311795234680176,-1.573940634727478,-0.30624666810035706,-0.4099826216697693,-1.5651310249888362,-0.5253426326488504,-0.5461638253074048
1.7780430316925049,-0.019646821543574333,0.01010286808013916,0.10354244709014893,-1.4550566673278809,-0.3371766209602356,-0.4400414526462555,-1.558313571809596,-2.537724285124041,-2.5552837443139684
1.7881038188934326,-0.019365746527910233,0.004703521728515625,0.05154561996459961,-1.3093552589416504,-0.3247261643409729,-0.3833077847957611,-1.5441547971345264,-2.7090048454367532,-2.723304539479626
1.7980320453643799,-0.011498906649649143,0.021919310092926025,-0.02512478455901146,-1.1068772077560425,-0.32037776708602905,-0.35011759400367737,-1.5315356549734196,-2.7560432546043447,-2.767114527565278
1.8083739280700684,0.0014230087399482727,0.02636134624481201,-0.0660238265991211,-0.8760504722595215,-0.3207452893257141,-0.2770625948905945,-1.5211883995061202,-2.775178598522479,-2.7830516652725557
1.8183009624481201,-0.0003613904118537903,0.03377079963684082,-0.07271313667297363,-0.7544263005256653,-0.3037356734275818,-0.22815179824829102,-1.5127934584227956,-2.7874897840161763,-2.792247407313247
1.8281500339508057,-0.00027875788509845734,-0.021178245544433594,-0.061269283294677734,-0.8290796279907227,-0.2956683337688446,-0.19748400151729584,-1.5047085081366405,-2.8010024169865804,-2.8028079956011744
1.8381810188293457,0.010799851268529892,-0.08085072040557861,-0.05990911275148392,-0.9794720411300659,-0.26459670066833496,-0.1864854097366333,-1.4955639069302702,-2.8200275249035016,-2.8190382383943584
1.8481271266937256,0.002859571948647499,-0.10743182897567749,-0.05377769470214844,-1.1613426208496094,-0.22796671092510223,-0.19235357642173767,-1.4847697532964064,-2.840969514580117,-2.8376008141197153
1.8581950664520264,-0.013092393055558205,-0.11372017860412598,-0.024259909987449646,-1.3245582580566406,-0.22433841228485107,-0.19078975915908813,-1.4722086868019764,-2.8618661990270056,-2.8563279244263255
1.868485927581787,-0.0030884146690368652,-0.10634225606918335,-0.00658021867275238,-1.3922263383865356,-0.2229120284318924,-0.22891835868358612,-1.4585045789479023,-2.879666634251753,-2.8719533241959185
1.8781540393829346,-0.0047725047916173935,-0.07872283458709717,-0.001330733299255371,-1.3300594091415405,-0.2305355966091156,-0.22077520191669464,-1.444639908379831,-2.89244661840585,-2.882561636912051
1.8882420063018799,0.002279624342918396,-0.0014341473579406738,-0.003760591149330139,-1.1350992918014526,-0.25646695494651794,-0.19857196509838104,-1.4321343443466128,-2.9020196127538656,-2.8897448927981517
1.898237943649292,0.017588689923286438,0.05813807249069214,-0.028397902846336365,-0.9228354692459106,-0.2361244112253189,-0.153617262840271,-1.4216941488637758,-2.9093531890199777,-2.89463532518386
1.9083359241485596,0.008721105754375458,0.07236850261688232,-0.056188225746154785,-0.7134091258049011,-0.20131130516529083,-0.14017294347286224,-1.413434817193266,-2.9143780519598907,-2.897512785344559
1.9187800884246826,0.0006636083126068115,0.06722283363342285,-0.047173380851745605,-0.6305952072143555,-0.20381148159503937,-0.0901409238576889,-1.4066873576666592,-2.918534795657108,-2.899698008149188
1.9283199310302734,0.01706446334719658,0.04516202211380005,-0.021284818649291992,-0.7027382850646973,-0.18499186635017395,-0.11963735520839691,-1.400073841713448,-2.9232927012206313,-2.902500033981114
1.9388301372528076,0.005632489919662476,-0.02358609437942505,-0.0005902200937271118,-0.811174213886261,-0.1701948046684265,-0.11996731907129288,-1.3923840019552243,-2.9274025334403113,-2.9049204966487348
1.9483520984649658,-0.0030163712799549103,-0.02193892002105713,0.02874469757080078,-0.9088457822799683,-0.1880483627319336,-0.13944721221923828,-1.3837398585819272,-2.9325405054864806,-2.908290794006102
1.9584858417510986,0.001039218157529831,-0.028453528881072998,0.016037583351135254,-1.0846401453018188,-0.13490818440914154,-0.1829986870288849,-1.3735869367219191,-2.936262112751073,-2.910422681708468
1.968580961227417,-0.012204304337501526,-0.037873268127441406,0.005512237548828125,-1.0692381858825684,-0.14034152030944824,-0.1578114777803421,-1.3625473739195904,-2.940287426010593,-2.913150427283167
1.9783799648284912,0.00596252828836441,0.030301988124847412,-0.00821220874786377,-0.8892812132835388,-0.13550202548503876,-0.18145263195037842,-1.3525307358688872,-2.9430697604475577,-2.914578201455932
1.9884710311889648,0.003836698830127716,0.059711754322052,-0.03241683542728424,-0.6976944208145142,-0.1349107176065445,-0.17361196875572205,-1.344406326366864,-2.9434677698283327,-2.9135941440115163
1.9984281063079834,-0.0018084608018398285,0.0808764100074768,-0.03409463167190552,-0.5091966390609741,-0.14835327863693237,-0.14926640689373016,-1.3381648273316702,-2.943289162955669,-2.9119722820225915
2.00888991355896,0.005196351557970047,0.07816481590270996,-0.013235300779342651,-0.3188362419605255,-0.16112607717514038,-0.12534131109714508,-1.3338184529920063,-2.9423957148914694,-2.9094527543440387
2.0195810794830322,0.000580914318561554,0.06857812404632568,-0.022601604461669922,-0.07535328716039658,-0.17327940464019775,-0.07297690212726593,-1.3316354737605391,-2.9419345396830328,-2.907253247620405
2.0285050868988037,0.001417163759469986,0.08952486515045166,-0.0591445118188858,0.19477874040603638,-0.1519157588481903,-0.05076688900589943,-1.3321663306047984,-2.9403198917469804,-2.9039109452241174
2.038612127304077,-0.010448534041643143,0.08868628740310669,-0.0529170036315918,0.427064448595047,-0.1670321226119995,0.03330537676811218,-1.3352171366368164,-2.939104318164827,-2.901022561971742
2.048462152481079,-0.0019766241312026978,0.08815133571624756,-0.0311739444732666,0.6006319522857666,-0.16275650262832642,0.06187278777360916,-1.34037567335854,-2.9381926691210456,-2.898390880707397
2.0584769248962402,-0.010844845324754715,0.06903845071792603,-0.009495973587036133,0.7055647373199463,-0.1510322093963623,0.09905876964330673,-1.3470572514138421,-2.9375613096550564,-2.896107334298953
2.0686848163604736,-0.031192738562822342,0.028277277946472168,0.02047264575958252,0.5722694993019104,-0.13371442258358002,0.08409271389245987,-1.3537099408599296,-2.93707751479481,-2.8941703715264384
2.0786139965057373,-0.04725715145468712,-0.060869038105010986,0.062230587005615234,0.15105676651000977,-0.12168651074171066,0.023624839261174202,-1.3575184764275627,-2.9374661493183543,-2.8932615901531418
2.0889899730682373,-0.04839182645082474,-0.17997193336486816,0.09933602809906006,-0.29309868812561035,-0.10603582859039307,-0.06043102219700813,-1.3566927944922431,-2.9383518787490566,-2.8930011989271684
2.098818063735962,-0.047056782990694046,-0.19608688354492188,0.09674738347530365,-0.5093153715133667,-0.12431497126817703,-0.09092608094215393,-1.3524330295433333,-2.9399723477335327,-2.8934819576113844
2.110234022140503,-0.034227047115564346,-0.0957862138748169,0.050882384181022644,-0.5172907710075378,-0.1135958805680275,-0.12440824508666992,-1.3471233777193548,-2.9410391716204827,-2.8933498594087683
2.1191649436950684,-0.038461554795503616,-0.03208911418914795,0.022173404693603516,-0.4237121045589447,-0.1116003766655922,-0.10058920085430145,-1.3421916568569714,-2.9413311006125062,-2.892517729902398
2.128631830215454,-0.025204233825206757,0.02208685874938965,0.0030020177364349365,-0.21604956686496735,-0.1223234161734581,-0.0688534826040268,-1.3388171287404764,-2.9418048488108086,-2.891802041182189
2.1387388706207275,-0.0015923231840133667,0.0684327483177185,-0.029784798622131348,0.054932668805122375,-0.10657002031803131,-0.04352415353059769,-1.3379346338336755,-2.9413153904266025,-2.890100724199352
2.1488230228424072,-0.014781445264816284,0.08278822898864746,-0.035705894231796265,0.20995429158210754,-0.08384841680526733,-0.009821905754506588,-1.3392748611660212,-2.939914754963854,-2.887692161819692
2.1586339473724365,-0.017734911292791367,0.06724017858505249,-0.012210339307785034,0.22325944900512695,-0.08615577965974808,0.006864662282168865,-1.3414766952699488,-2.938847386021651,-2.8857368545150557
2.168743848800659,-0.008593946695327759,0.01828104257583618,0.02316485345363617,0.12279031425714493,-0.06664212793111801,-0.024491075426340103,-1.343199707211349,-2.9376582421956883,-2.883712240741902
2.1785240173339844,-0.028440620750188828,-0.02349478006362915,0.06496283411979675,0.028580190613865852,-0.07216951996088028,-0.022333119064569473,-1.3438643091535558,-2.936762661167297,-2.882093607404862
2.188628911972046,-0.030689414590597153,-0.014441251754760742,0.06989005208015442,-0.02851528488099575,-0.06393023580312729,-0.033514879643917084,-1.3437751213032723,-2.9362466477181592,-2.8808681101379
2.1986000537872314,-0.029371805489063263,-0.007752716541290283,0.04616597294807434,-0.008456887677311897,-0.0561295710504055,-0.04662269353866577,-1.3434812807408947,-2.9353807256544844,-2.8793623097375685
2.208591938018799,-0.034510575234889984,-0.005554854869842529,0.023853331804275513,0.023218583315610886,-0.03709986433386803,-0.047226909548044205,-1.3434783590784576,-2.933776085739505,-2.8772365934362063
2.21891713142395,-0.03455358371138573,0.000973045825958252,0.011594995856285095,0.025427410379052162,-0.03162280470132828,-0.05700976774096489,-1.343626074810752,-2.9316893191989757,-2.8747427347033634
2.2286150455474854,-0.02928541600704193,-0.009143531322479248,0.018866539001464844,0.010158075019717216,-0.015893200412392616,-0.05153542757034302,-1.343761751285352,-2.9293973858414426,-2.8721421409388883
2.238682985305786,-0.02230629324913025,-0.0087815523147583,0.008945465087890625,0.01408703625202179,0.0007928353734314442,-0.0472826212644577,-1.3437804412038954,-2.927272188074016,-2.8699015002746178
2.2486789226531982,-0.024372827261686325,-0.0014695525169372559,0.004001498222351074,0.010194709524512291,0.012171679176390171,-0.042061228305101395,-1.3437670898803056,-2.925094713872148,-2.867738116115832
2.258690118789673,-0.025665074586868286,-0.001365959644317627,0.014116153120994568,-0.015393739566206932,0.021498337388038635,-0.04759075120091438,-1.3433069304015313,-2.923361897070442,-2.866125106700685
2.2687790393829346,-0.022109325975179672,-0.01647329330444336,0.008718013763427734,-0.07515698671340942,0.046610478311777115,-0.04636351391673088,-1.3420974073372127,-2.921616818125759,-2.864686804501134
2.2786359786987305,-0.023036152124404907,-0.016111552715301514,0.014120250940322876,-0.028826240450143814,0.026319589465856552,-0.020322322845458984,-1.341043262172733,-2.920478673514671,-2.863893455033765
2.2887041568756104,-0.00867779552936554,0.010445058345794678,0.004802927374839783,0.03829793632030487,0.03231578320264816,-0.015094751492142677,-1.340880752171336,-2.9191247773007003,-2.862784689397357
2.298678159713745,-0.014138221740722656,0.0070819854736328125,-0.016046077013015747,0.04255979135632515,0.058511167764663696,-6.387103348970413e-05,-1.3411755693425882,-2.9175232496905164,-2.861652401673456
2.309303045272827,-0.023334547877311707,-0.0122147798538208,-0.00507354736328125,0.023715229704976082,0.04462624713778496,0.008693081326782703,-1.3411513827712085,-2.9164260248932763,-2.861097631782609
2.3189828395843506,-0.009146109223365784,-0.030924677848815918,0.0037476420402526855,-0.0021547172218561172,0.03843439742922783,-0.003760125720873475,-1.341094870112938,-2.915665071474704,-2.860760876593523
2.32871413230896,-0.0038551315665245056,-0.03907358646392822,-0.008175581693649292,-0.052162040024995804,0.05149795860052109,0.00033134198747575283,-1.3407647112028733,-2.9147030888760197,-2.860264135100264
2.339390993118286,-0.009015236049890518,-0.031348586082458496,-0.006139963865280151,-0.047049570828676224,0.05125347897410393,-0.007269319612532854,-1.3399452723283698,-2.9140137574312983,-2.8601258082246663
2.3490569591522217,-0.004416726529598236,-0.015989363193511963,0.0019235610961914062,0.012561378069221973,0.026035519316792488,-0.0055902497842907906,-1.3395063441507258,-2.912916918834187,-2.8594314491097843
2.3597300052642822,0.004515893757343292,0.0036020278930664062,0.00778961181640625,0.05228455737233162,0.01539459265768528,0.017402950674295425,-1.3395100996616949,-2.9122701884695306,-2.8589725505233705
2.369601011276245,0.00020651519298553467,-0.0017361640930175781,-0.0067573487758636475,0.02494797296822071,0.04697249084711075,-0.0013034127186983824,-1.3399000127901461,-2.9118436502869156,-2.858854481854081
2.3789689540863037,-0.013465143740177155,-0.044756293296813965,-0.018149584531784058,-0.003300176002085209,0.04733787849545479,-0.007687276229262352,-1.3402580503720178,-2.910045449429089,-2.8575601289363415
2.388873815536499,0.0005416162312030792,-0.034753382205963135,-0.0039018094539642334,0.047650907188653946,0.024783078581094742,0.021934904158115387,-1.340488403441308,-2.9093365755657214,-2.8572302330741466
2.398887872695923,0.01350003108382225,0.004638731479644775,-0.00885424017906189,0.10180708765983582,0.031078524887561798,0.028375493362545967,-1.3411175266912974,-2.9092342185890385,-2.8574152218535462
2.4090349674224854,0.0025325417518615723,0.0015241503715515137,-0.011221528053283691,0.1377413272857666,0.01627703197300434,0.0437176451086998,-1.3423346133784668,-2.9091565040611145,-2.8575835497978748
2.419358968734741,0.007047787308692932,0.0005147457122802734,-0.0037121474742889404,0.1250087469816208,0.009200479835271835,0.041825201362371445,-1.3436966713815834,-2.9092997644475687,-2.857890863784096
2.428990125656128,0.00035427510738372803,-0.01566934585571289,0.007552847266197205,0.02968101017177105,-0.008135057054460049,0.03212304040789604,-1.3444183109554158,-2.910071788495648,-2.858686053894156
2.4390299320220947,-0.002065364271402359,-0.049661993980407715,0.02586875855922699,-0.04842258244752884,-0.007696433924138546,0.00821850635111332,-1.3441968550014805,-2.911524054935761,-2.8600567445476086
2.448936939239502,-0.007616899907588959,-0.04779183864593506,0.023465991020202637,-0.1005110964179039,0.002185979625210166,-0.0095552708953619,-1.343480897586855,-2.9120981783718998,-2.8606040588505603
2.4590609073638916,-0.009728450328111649,-0.021088480949401855,0.011549904942512512,-0.13779987394809723,-0.01026243343949318,-0.012672767043113708,-1.3423297810540915,-2.9125194075469674,-2.861007508143149
2.470984935760498,0.0004119277000427246,-0.004064738750457764,0.009398698806762695,-0.15303896367549896,0.0014885419514030218,-0.014712854288518429,-1.3408084716718096,-2.9135159032038938,-2.861970137367878
2.4799699783325195,-0.005897451192140579,0.0030133724212646484,0.009745597839355469,-0.08878647536039352,-0.014920258894562721,-0.015862541273236275,-1.339681599682315,-2.914182003804887,-2.862600320877456
2.4896669387817383,-0.005021743476390839,0.02012765407562256,0.016951709985733032,-0.014515412971377373,-0.02346794120967388,0.0001750676892697811,-1.339375925910732,-2.9143879777343398,-2.8626012521305597
2.49914288520813,-0.0004576742649078369,0.031403303146362305,0.00514376163482666,-0.0030539666768163443,-0.004696915857493877,0.002019573003053665,-1.3394446464780605,-2.9147225285227565,-2.8627915299440527
2.5091121196746826,-0.012945558875799179,0.0116843581199646,-0.00045418739318847656,-0.05000586435198784,0.007779994048178196,-0.014733201824128628,-1.3391321962508052,-2.9148514822543565,-2.86293263206222
2.519078016281128,-0.01547268033027649,-0.018969953060150146,0.012808948755264282,-0.0974346250295639,0.015243768692016602,-0.02482844702899456,-1.3378705704069587,-2.9149670498762323,-2.8631721694543235
2.529033899307251,-0.011355701833963394,-0.010215222835540771,0.02613881230354309,-0.04745197296142578,0.004752201493829489,-0.037652842700481415,-1.3366342430170257,-2.9145556717800467,-2.862837721028054
2.539078950881958,-0.010054532438516617,0.016726016998291016,0.026546001434326172,0.03904776647686958,-0.010416097939014435,-0.03738439828157425,-1.336330279980365,-2.9129431913631727,-2.8611564367784426
2.5492308139801025,-0.00897323340177536,0.03337085247039795,0.015082240104675293,0.08420848101377487,-0.014207551255822182,-0.037086766213178635,-1.3368013935767855,-2.9110731574301285,-2.859097646177919
2.559138059616089,-0.008977603167295456,0.021671652793884277,0.015507370233535767,0.0922379121184349,-0.023118754848837852,-0.04103836417198181,-1.33750806840232,-2.908767277033251,-2.8565339870757422
2.5693199634552,-0.010329749435186386,0.0029814839363098145,0.019432783126831055,0.10459858179092407,-0.021446112543344498,-0.03473849222064018,-1.338226994414817,-2.9065913639211463,-2.854055681612583
2.5791759490966797,-0.008908584713935852,0.0004361271858215332,0.00436006486415863,0.1250186264514923,-0.01453760638833046,-0.03233685716986656,-1.3392759174948257,-2.904285056385543,-2.8514878259255667
2.589081048965454,-0.012022484093904495,0.000665128231048584,0.0014361143112182617,0.15692642331123352,-0.015997063368558884,-0.0286917332559824,-1.3406092636239049,-2.9015373916695673,-2.8485241123256864
2.59926700592041,-0.010544072836637497,-0.007182657718658447,0.005882740020751953,0.1799507737159729,-0.0009091906249523163,-0.03157860040664673,-1.3417698629570527,-2.898595575091856,-2.8454022876117886
2.609205961227417,-0.011414192616939545,-0.0120849609375,0.006585836410522461,0.19150954484939575,0.002537028631195426,-0.027545403689146042,-1.3429340256883435,-2.8958207252611317,-2.842546873558889
2.619313955307007,-0.009925216436386108,-0.014886081218719482,0.014713555574417114,0.1266128420829773,0.017961524426937103,-0.04457738250494003,-1.343921270719984,-2.8928889612792212,-2.8396232039264073
2.6292099952697754,-0.009355112910270691,-0.044354021549224854,0.02860012650489807,0.06253579258918762,0.023003777489066124,-0.04600302502512932,-1.3444109304077492,-2.889937623402112,-2.836797101656245
2.6392879486083984,-0.004133552312850952,-0.0327221155166626,0.03499594330787659,0.0793459340929985,0.018129926174879074,-0.045620061457157135,-1.3446618996643882,-2.8873229706901604,-2.834321033130397
2.6493189334869385,-0.003164134919643402,-0.007868528366088867,0.02742600440979004,0.1350122094154358,0.016300467774271965,-0.05061455816030502,-1.3451516920866022,-2.8841929584769144,-2.8312659473404165
2.6594009399414062,-0.0027653202414512634,0.0013647079467773438,0.01382426917552948,0.16579276323318481,0.02360951155424118,-0.028523636981844902,-1.3463074050400379,-2.8806527509083986,-2.8278307443090798
2.669347047805786,-0.0034329481422901154,0.00873631238937378,0.002522706985473633,0.18694928288459778,0.04045409709215164,-0.013770468533039093,-1.3478121467440267,-2.8773611596167745,-2.8247872235543126
2.6793010234832764,-0.008394729346036911,-0.006522655487060547,-0.0010001659393310547,0.1995747983455658,0.048359956592321396,-0.00821751169860363,-1.3494054877037045,-2.8742340187298985,-2.8220263962724217
2.6899819374084473,-0.009666457772254944,-0.019563138484954834,-0.005675554275512695,0.2181389331817627,0.060263216495513916,0.01111016608774662,-1.3511230707277648,-2.8714250159089416,-2.819695054711966
2.701002836227417,-0.008581753820180893,-0.019730091094970703,-0.016808152198791504,0.24108818173408508,0.07096300274133682,0.025688577443361282,-1.3529471452867081,-2.869063272597194,-2.8179348386811762
2.7093279361724854,-0.006342597305774689,-0.015612483024597168,-0.02846182882785797,0.2321794331073761,0.08631976693868637,0.028615176677703857,-1.354587072076773,-2.867438203074686,-2.8170317532036613
2.7191920280456543,-0.006129853427410126,-0.035494208335876465,-0.03723287582397461,0.21934007108211517,0.11092684417963028,0.034022193402051926,-1.3561553387624843,-2.865716874775836,-2.8162592858404913
2.7292349338531494,-0.0081256665289402,-0.03281593322753906,-0.02130277454853058,0.2848067879676819,0.11055684089660645,0.060448046773672104,-1.3582060877348494,-2.864215963179334,-2.8158217102682386
2.7393038272857666,-0.001646433025598526,-0.007798492908477783,-0.002399444580078125,0.2924063801765442,0.08644697815179825,0.07704354077577591,-1.3610042914937681,-2.862788286797573,-2.8153300574641102
2.7492358684539795,-0.005148027092218399,-0.01096421480178833,0.018486380577087402,0.19185024499893188,0.07884511351585388,0.11195507645606995,-1.3634709008974664,-2.863401652319251,-2.816798404325051
2.75945782661438,0.0010256469249725342,-0.04539889097213745,0.006233334541320801,0.11556772142648697,0.08714699000120163,0.07601810991764069,-1.3650118861658538,-2.865052188410105,-2.819300460857511
2.769758939743042,-0.008618779480457306,-0.07138991355895996,-0.016356557607650757,0.07628030329942703,0.09009155631065369,0.08024992793798447,-1.3660864465415328,-2.8660851793207516,-2.821267919066186
2.779601812362671,-0.008151337504386902,-0.022358953952789307,-0.018149614334106445,0.003065211698412895,0.10562604665756226,0.11301000416278839,-1.3667409252744211,-2.8691305712438298,-2.825385789377114
2.7911951541900635,-0.002929750829935074,-0.015586674213409424,-0.0245821475982666,-0.04565267637372017,0.09678545594215393,0.07771752774715424,-1.3668287573703775,-2.8725138106006445,-2.829908002861483
2.8019111156463623,-0.0011172182857990265,-0.03352987766265869,-0.02873159945011139,-0.0060610584914684296,0.0747845470905304,0.09415828436613083,-1.3668984135023876,-2.8757194794735885,-2.83405869787618
2.811885118484497,0.009009428322315216,0.014081418514251709,-0.04569074511528015,0.033367738127708435,0.06405138969421387,0.08396817743778229,-1.3673327173447272,-2.8786943257766238,-2.8377975395477715
2.821355104446411,0.004372302442789078,0.01998990774154663,-0.054352179169654846,0.07612532377243042,0.06339625269174576,0.08121127635240555,-1.3679958605900926,-2.881268651150758,-2.841083964430588
2.8293800354003906,0.003272108733654022,0.01762181520462036,-0.04768562316894531,0.19618377089500427,0.05895494297146797,0.08226083219051361,-1.369302986280111,-2.882807390165041,-2.8432837660484944
2.8394789695739746,0.0025863386690616608,0.04639899730682373,-0.028940916061401367,0.3683864176273346,0.04710014909505844,0.12769141793251038,-1.372148608084226,-2.883781033024103,-2.8448128076236463
2.8524680137634277,-0.00015928223729133606,0.06696605682373047,-0.009895578026771545,0.4720500707626343,0.06499583274126053,0.18370436131954193,-1.3766143509364903,-2.8851505234488166,-2.8467722796054304
2.8595330715179443,-0.011122345924377441,0.051445722579956055,-0.0016382932662963867,0.6151641011238098,0.07352487742900848,0.21604232490062714,-1.3823229318212074,-2.887449695095636,-2.849864496763859
2.869503974914551,-0.018291860818862915,0.010377287864685059,0.0012645572423934937,0.7479546070098877,0.0724790096282959,0.187949538230896,-1.3894991850984275,-2.887854785683374,-2.850976057750511
2.879469156265259,-0.02653072401881218,-0.00778883695602417,0.003076806664466858,0.809723436832428,0.11049403250217438,0.23988623917102814,-1.3975943029318993,-2.8873854996395125,-2.851437532300889
2.889482021331787,-0.020077232271432877,0.01730203628540039,0.008997932076454163,0.9140190482139587,0.11213378608226776,0.2835266888141632,-1.4065583033397886,-2.8886796469456453,-2.853901070497307
2.901386022567749,-0.01156255230307579,0.031848132610321045,0.01474905014038086,1.1790962219238281,0.12136856466531754,0.32338887453079224,-1.4173332111563095,-2.8895563081359423,-2.8559570594066823
2.9095118045806885,-0.010553382337093353,0.0909929871559143,0.0005899667739868164,1.6526895761489868,0.14428594708442688,0.44196653366088867,-1.4318808053937842,-2.8892873268187245,-2.8570262424537503
2.91961407661438,-0.009733567014336586,0.1998102068901062,-0.011020667850971222,2.294973850250244,0.17883247137069702,0.6247081160545349,-1.4522739524169586,-2.889474060937503,-2.8588338159596183
2.9294819831848145,-0.015954766422510147,0.2696061134338379,-0.0024254247546195984,3.055558443069458,0.19390574097633362,0.8491005897521973,-1.4800082902374716,-2.8922229715720853,-2.8635146249638868
2.9397950172424316,-0.03146092966198921,0.27531522512435913,0.028500795364379883,3.9507360458374023,0.1926971971988678,1.062160611152649,-1.516363264875392,-2.9014090124385183,-2.8746743357483426
2.951133966445923,-0.05252816155552864,0.24907761812210083,0.05402565002441406,4.85752010345459,0.21092267334461212,1.269858956336975,-1.5619761125210263,-2.9896208949877185,-2.9648857745379527
2.959784984588623,-0.07473903894424438,0.2119932770729065,0.08980399370193481,5.638688087463379,0.25323179364204407,1.4508346319198608,-1.5251717955811812,0.27411484192796526,0.2964945960674656
2.9694509506225586,-0.0782717615365982,0.16372710466384888,0.14658842980861664,6.314733505249023,0.21123164892196655,1.572317361831665,-1.4634803172225164,0.2610345259912081,0.2810636840040401
2.9798319339752197,-0.06876236945390701,0.09985476732254028,0.19645781815052032,6.782498836517334,0.24977530539035797,1.5920734405517578,-1.395872318317635,0.2541356945364366,0.27168632289323497
2.989670991897583,-0.06550755351781845,0.04897373914718628,0.20543771982192993,7.029345989227295,0.3266253173351288,1.5453578233718872,-1.3247623762719873,0.2474838143371464,0.2619871020342608
3.0011708736419678,-0.08082401007413864,0.024336636066436768,0.2398001253604889,7.026008605957031,0.43037301301956177,1.5398155450820923,-1.2526923071994043,0.24374824218181473,0.2541531154354379
3.009598970413208,-0.08908794075250626,0.02623152732849121,0.28632819652557373,6.967266082763672,0.541128396987915,1.5585490465164185,-1.180958693580559,0.2436064854358516,0.24882112844409585
3.0196290016174316,-0.09619864821434021,0.02773427963256836,0.3235620856285095,6.9284586906433105,0.6190900802612305,1.570003867149353,-1.1096875476704007,0.2458350271303024,0.24487027203204936
3.029486894607544,-0.10369397699832916,0.03404778242111206,0.3414219617843628,6.916264057159424,0.6444880962371826,1.562378168106079,-1.0386184959615141,0.24896345200440048,0.24118488840349311
3.039726972579956,-0.10167801380157471,0.015584290027618408,0.3388938903808594,6.883661270141602,0.6180700659751892,1.5000170469284058,-0.9679234370434384,0.25180940354989373,0.23708495518034017
3.051285982131958,-0.08326756954193115,-0.03804028034210205,0.29527485370635986,6.677607536315918,0.5417068600654602,1.3588708639144897,-0.8983298390312066,0.2534684987062384,0.23183761589576773
3.0597259998321533,-0.05593256652355194,-0.12195998430252075,0.22001910209655762,6.318463325500488,0.5013940334320068,1.1326289176940918,-0.8321208608889666,0.2536424821556981,0.22531573882289327
3.0695300102233887,-0.038392335176467896,-0.2122124433517456,0.1296175718307495,5.903512477874756,0.6077295541763306,0.8828902244567871,-0.7703322445775558,0.2534187426746342,0.21733117920117437
3.079913854598999,-0.05236560106277466,-0.2195892333984375,0.051508963108062744,5.448807239532471,0.7439425587654114,0.6459911465644836,-0.7134945689018822,0.2538316800871859,0.20797262538565697
3.0904228687286377,-0.07307863235473633,-0.13529092073440552,0.03807288408279419,5.06219482421875,0.8681751489639282,0.5282285809516907,-0.6611052278911761,0.25565957495649877,0.198089686998292
3.1014468669891357,-0.07425914704799652,-0.05916839838027954,0.05625063180923462,4.636795997619629,0.9378647208213806,0.47556138038635254,-0.6128364342688118,0.25916295709173787,0.18874313538873716
3.1098411083221436,-0.07225397229194641,-0.019573986530303955,0.08822178840637207,4.300606727600098,1.0521092414855957,0.4313627779483795,-0.5685230657720447,0.26433927584829237,0.18014205804527222
3.1202218532562256,-0.07285155355930328,-0.01025080680847168,0.07461696863174438,3.967175245285034,1.1178648471832275,0.352646142244339,-0.527546394890836,0.27088806576567276,0.1717719123691036
3.1298630237579346,-0.06771180033683777,0.003887355327606201,0.06887561082839966,3.61144757270813,1.099261999130249,0.28107950091362,-0.4901434986944674,0.2779606686447645,0.16344587996573828
3.1400139331817627,-0.033377647399902344,0.006053805351257324,0.06551027297973633,3.222369432449341,1.1007193326950073,0.25735634565353394,-0.45655750649239485,0.2853858025123268,0.15564988029238977
3.1519248485565186,-0.005710422992706299,0.0029514729976654053,0.050061047077178955,2.9178316593170166,1.0944329500198364,0.24394601583480835,-0.42640257458147557,0.2934136965166883,0.1486390577702283
3.160167932510376,-0.009622663259506226,0.00599592924118042,0.055582523345947266,2.681105136871338,1.0893311500549316,0.2221967875957489,-0.39897518443362456,0.30167366968123793,0.14209401585392314
3.1708290576934814,-0.017084717750549316,0.016510605812072754,0.08241701126098633,2.557708740234375,1.0901261568069458,0.21487118303775787,-0.3733102503774265,0.3102807458860205,0.1358461376922183
3.1799869537353516,-0.024360060691833496,0.03172138333320618,0.09465551376342773,2.454850196838379,1.0706565380096436,0.16728687286376953,-0.34884622326471365,0.3188498478080544,0.12950811815228008
3.190838098526001,-0.03159457445144653,0.05910584330558777,0.11347031593322754,2.3691108226776123,0.9735609889030457,0.07967601716518402,-0.3256154056824275,0.32678423003677826,0.12265270329521684
3.2018158435821533,-0.026213347911834717,0.062474071979522705,0.13277029991149902,2.2694218158721924,0.9237513542175293,0.07560138404369354,-0.3033156940323209,0.3340903575024319,0.11540271088769202
3.2103960514068604,-0.006971150636672974,0.039694398641586304,0.11999303102493286,2.096557855606079,0.8671435713768005,0.10896147042512894,-0.2823719436560456,0.34107861576528276,0.10876049209429703
3.22012996673584,0.0016684532165527344,0.016268104314804077,0.10504049062728882,1.8939131498336792,0.8610891699790955,0.09293217211961746,-0.2632038269916296,0.3480899189384037,0.10277192922386037
3.2299020290374756,-0.01512792706489563,-0.016532599925994873,0.06539219617843628,1.6801745891571045,0.8840456008911133,0.06261192262172699,-0.24613746096962377,0.3554078948946405,0.09714824802611507
3.2398200035095215,-0.022137194871902466,-0.04251056909561157,0.022041916847229004,1.4559942483901978,0.8804199695587158,0.03993110731244087,-0.23127330387435255,0.36303043562306037,0.09197297923372476
3.2512319087982178,-0.004707217216491699,-0.06335146725177765,-0.012277305126190186,1.2855342626571655,0.8542832136154175,0.05028042197227478,-0.21831017642488454,0.3707069581171085,0.0873349577125255
3.259950876235962,0.014379948377609253,-0.06552587449550629,-0.028961896896362305,1.1553325653076172,0.8117576241493225,0.06517201662063599,-0.2067665194082345,0.37821657643090356,0.08335726002003377
3.269886016845703,0.017483055591583252,-0.044168710708618164,-0.040550827980041504,1.055303692817688,0.7798364758491516,0.06614343076944351,-0.19627487955618336,0.3854559017152388,0.07977725350565873
3.2800369262695312,0.008067101240158081,-0.02374058961868286,-0.047495484352111816,0.9995819330215454,0.7395577430725098,0.09743344038724899,-0.18647094790421262,0.3924728580049862,0.07657287309541201
3.290038824081421,0.0057878196239471436,-0.01697494089603424,-0.048854172229766846,0.9230798482894897,0.6940258145332336,0.14013803005218506,-0.17709410858631977,0.3991742596266864,0.07391842795146908
3.301819086074829,0.004453837871551514,-0.020780518651008606,-0.04362940788269043,0.8054895401000977,0.6475648283958435,0.15741075575351715,-0.1685036702070706,0.4055293656662324,0.07188028730293729
3.3099911212921143,-0.003563493490219116,-0.0505361407995224,-0.03745824098587036,0.6337071657180786,0.6248692274093628,0.16032788157463074,-0.16123443214777008,0.41165424818867385,0.07044818650427857
3.319998025894165,-0.01817232370376587,-0.08623640239238739,-0.030562877655029297,0.47641709446907043,0.6293933987617493,0.16263630986213684,-0.15552719225822484,0.41779369283756723,0.06969165853041107
3.330312967300415,-0.03114771842956543,-0.10133054852485657,-0.03400468826293945,0.34552937746047974,0.6401941180229187,0.17118947207927704,-0.15109918790598853,0.4241416892343797,0.06954102824168192
3.340092897415161,-0.032796651124954224,-0.08439649641513824,-0.044354259967803955,0.2701299488544464,0.6192970871925354,0.18270525336265564,-0.14756881868290211,0.43053043553018516,0.06989734257902826
3.3509910106658936,-0.02029314637184143,-0.05957694351673126,-0.04688960313796997,0.2438553124666214,0.5902772545814514,0.17458878457546234,-0.14453707906960112,0.4366390488100074,0.07046649752438919
3.360136032104492,-0.013199061155319214,-0.04182864725589752,-0.05894201993942261,0.2604380249977112,0.5700172185897827,0.18334685266017914,-0.14148232184918638,0.44253241807779237,0.07101616856496647
3.370069980621338,-0.009726881980895996,-0.017909198999404907,-0.06940042972564697,0.2754252552986145,0.5423544049263,0.18293854594230652,-0.13826817488790677,0.4481807616677343,0.07153607937524284
3.3801281452178955,-0.00734362006187439,-0.003707513213157654,-0.05582106113433838,0.3176073133945465,0.5222635269165039,0.177019402384758,-0.13482237445464412,0.45354393190881104,0.07186195213935863
3.3902950286865234,-0.015248626470565796,-0.0006167888641357422,-0.045017898082733154,0.34403982758522034,0.5046108365058899,0.17968782782554626,-0.13104216867329882,0.458698560151827,0.07201529157579782
3.401927947998047,-0.023509085178375244,0.011468186974525452,-0.03229856491088867,0.3506447374820709,0.48661449551582336,0.1659453809261322,-0.12713390217669282,0.46367591251980517,0.07201405114010301
3.412858009338379,-0.021712154150009155,0.0006568655371665955,-0.015618860721588135,0.3333658277988434,0.45553261041641235,0.15272930264472961,-0.12335876738220192,0.4683816521073975,0.07189234257666934
3.4230940341949463,-0.014914751052856445,-0.006271205842494965,0.004525303840637207,0.30473658442497253,0.42670735716819763,0.1310913860797882,-0.11985446158301417,0.47277777218378836,0.07169954514594865
3.437150001525879,-0.011523276567459106,0.003936208784580231,0.010375678539276123,0.2592349648475647,0.3887626528739929,0.11501062661409378,-0.11678193528237034,0.4768357430086105,0.07149686917262404
3.4419429302215576,-0.004110366106033325,0.00423237681388855,0.006956696510314941,0.18560388684272766,0.3515540361404419,0.09612561762332916,-0.11428713225261372,0.48053076157584595,0.07140549608844753
3.452471971511841,0.007922500371932983,-0.015383720397949219,-0.0003927946090698242,0.0717216208577156,0.3129537105560303,0.05740320309996605,-0.11277533049441511,0.48386252202062685,0.07149786769574591
3.4602489471435547,0.01613679528236389,-0.03712087869644165,-0.009584784507751465,-0.017407722771167755,0.29081591963768005,0.02659522369503975,-0.11238476179178529,0.4868890335197646,0.07174097776076956
3.4701390266418457,0.016959011554718018,-0.04004283994436264,-0.02503645420074463,-0.049290306866168976,0.28228095173835754,0.015827957540750504,-0.11260734068644723,0.489808294178081,0.07210122779653481
3.4801318645477295,0.011474192142486572,-0.01676243543624878,-0.03528624773025513,-0.05466882511973381,0.2616177499294281,0.005474652163684368,-0.11302649369358532,0.4925757811424809,0.07245664805138449
3.4906790256500244,0.010970473289489746,-0.00728674978017807,-0.03155863285064697,-0.034789539873600006,0.2477804720401764,0.008952952921390533,-0.11339508738022447,0.49514497147530445,0.07272834688572703
3.5011730194091797,0.010924279689788818,-0.008378282189369202,-0.029601633548736572,-0.018307771533727646,0.23719599843025208,0.02109563536942005,-0.1135568688536991,0.49761806532185365,0.07299868563111876
3.510258913040161,0.005029618740081787,-0.003420218825340271,-0.02333986759185791,-0.011431173421442509,0.22336022555828094,0.024000292643904686,-0.11355792554622941,0.4999495475464392,0.07327263078595418
3.5202510356903076,-0.0007365942001342773,-0.0150894895195961,-0.011894941329956055,-0.006418571341782808,0.21137785911560059,0.027552416548132896,-0.11349276838672964,0.5021674275341503,0.07353481858500197
3.530255079269409,-0.0028953254222869873,-0.025316894054412842,-0.0034192800521850586,-0.04442126303911209,0.19286280870437622,0.029162511229515076,-0.11354288909286347,0.504212434775853,0.07388353996961801
3.540632963180542,0.0002739131450653076,-0.02965444326400757,0.004877448081970215,-0.1319761425256729,0.19037115573883057,0.01781771145761013,-0.11416129233974721,0.5061874155450342,0.07451667745962082
3.5512349605560303,0.0012700557708740234,-0.041444629430770874,-0.006011545658111572,-0.2556906044483185,0.1943572759628296,-0.0005626279162243009,-0.11579994553557475,0.5082381442150812,0.07555022231966706
3.560396909713745,0.006424695253372192,-0.04409709572792053,-0.019333243370056152,-0.36172088980674744,0.19681884348392487,-0.027832597494125366,-0.1185936426126359,0.5103608317474972,0.0769708491106039
3.5702598094940186,0.011903911828994751,-0.03875516355037689,-0.010327935218811035,-0.40904900431632996,0.21141070127487183,-0.0436098538339138,-0.12218886481912296,0.51259513191897,0.0785688529462733
3.580220937728882,0.010033190250396729,-0.021733298897743225,-0.004994750022888184,-0.3832552134990692,0.21767738461494446,-0.02158418297767639,-0.12584019301239163,0.5149637353053391,0.08024088200934314
3.590395927429199,0.009497225284576416,0.012184396386146545,-0.0046942830085754395,-0.297408789396286,0.2276330292224884,0.019321277737617493,-0.1288425507402771,0.5174127548896945,0.08193062475283316
3.601897954940796,0.011951029300689697,0.028442591428756714,-0.006563663482666016,-0.15639497339725494,0.20578579604625702,0.06214677542448044,-0.13061992300176745,0.5198163053384564,0.0834340320625425
3.610377073287964,0.013600558042526245,0.02723531424999237,0.005460679531097412,-0.012822624295949936,0.15067140758037567,0.07669562101364136,-0.13099114339170626,0.5217409331627738,0.0844575718521117
3.6205289363861084,0.019242435693740845,0.021759063005447388,0.01602381467819214,0.08761556446552277,0.10649888962507248,0.09396622329950333,-0.13018920305317616,0.523087721554301,0.08498936315711866
3.6304638385772705,0.02509409189224243,0.017425566911697388,0.020996570587158203,0.11260911822319031,0.08842813968658447,0.1142815575003624,-0.12875815080568326,0.5240907293061023,0.08538010296749217
3.6405141353607178,0.01754230260848999,-0.0007705539464950562,0.025259017944335938,0.07543271780014038,0.10947883129119873,0.12468120455741882,-0.12731968769075952,0.5251374056920222,0.0859338142117212
3.65106201171875,0.005768030881881714,-0.02414698898792267,0.02751237154006958,0.014629188925027847,0.12843264639377594,0.1268763393163681,-0.12630444603374483,0.5264431003241565,0.08680993571993222
3.6604740619659424,0.0027945637702941895,-0.028161272406578064,0.02876371145248413,-0.016548704355955124,0.13784877955913544,0.12899968028068542,-0.1256750694159625,0.5279249356722568,0.08792522517401054
3.6703240871429443,0.009474575519561768,-0.018167495727539062,0.015579938888549805,-0.03222469985485077,0.13463923335075378,0.12197335809469223,-0.1252605469666436,0.5294478763693646,0.08916444854364808
3.6803090572357178,0.01410365104675293,-0.0004841238260269165,0.0064334869384765625,-0.020177893340587616,0.12184513360261917,0.10819149762392044,-0.12527750188336256,0.5308864052098086,0.09029852538810566
3.690480947494507,0.015251398086547852,0.006106622517108917,0.010872721672058105,0.006071554496884346,0.10444910079240799,0.09667812287807465,-0.1252016602109604,0.5321792472039459,0.09122387666619017
3.7010459899902344,0.014734208583831787,0.008745037019252777,0.020548105239868164,0.028930796310305595,0.08581309765577316,0.09406449645757675,-0.12491082573174583,0.5332984569990242,0.09196974645271068
3.7104239463806152,0.007953822612762451,0.008975997567176819,0.035325586795806885,0.04499194025993347,0.07209262251853943,0.08198113739490509,-0.12449352510292112,0.5343100283790602,0.09256431460438287
3.7207658290863037,0.006187319755554199,0.009104788303375244,0.04296761751174927,0.04391495883464813,0.056802619248628616,0.06440401077270508,-0.12382552277195535,0.5351500172734814,0.09298892566711436
3.7305469512939453,0.0059111714363098145,0.009341515600681305,0.03597372770309448,0.03128063678741455,0.05329732224345207,0.043011002242565155,-0.12281821840903095,0.5357928988187058,0.09327426388512872
3.7413690090179443,0.005441129207611084,-0.001385018229484558,0.02537226676940918,0.014779424294829369,0.061499591916799545,0.019738968461751938,-0.12197226404413038,0.5364429061295867,0.09343918823014852
3.75131893157959,0.004503488540649414,-0.0018488392233848572,0.01654362678527832,0.015400758013129234,0.06795016676187515,0.006554084364324808,-0.12153255345841951,0.5371523284306626,0.0934677415465678
3.760715961456299,0.003615140914916992,0.003475777804851532,0.011363446712493896,0.025565776973962784,0.07510581612586975,0.0014932791236788034,-0.12139491692983609,0.5379157601344577,0.09340698495055025
3.7705438137054443,0.004917800426483154,0.001722179353237152,0.008156359195709229,0.03905200958251953,0.08291646838188171,-0.005363721400499344,-0.12130151482105883,0.5387796592234712,0.0932341843669998
3.780627965927124,0.0035218000411987305,0.0018688961863517761,0.006501317024230957,0.0463557243347168,0.08565766364336014,-0.010473262518644333,-0.1211998289314059,0.5397124504004513,0.0929634421348166
3.7906038761138916,0.002613842487335205,0.0007672980427742004,0.010818064212799072,0.062269244343042374,0.0815151110291481,-0.01292725931853056,-0.12104909967261453,0.5406425379410723,0.09258728724030053
3.8011319637298584,-0.001420140266418457,-0.002724267542362213,0.01970130205154419,0.07352536916732788,0.07971002161502838,-0.012281974777579308,-0.12078506807876171,0.5415264813898906,0.09212831006692329
3.810563802719116,-0.005061209201812744,-0.0058093443512916565,0.0265234112739563,0.07459696382284164,0.07910987734794617,-0.009437931701540947,-0.12041899404988257,0.5423720911456515,0.09166277535204646
3.8213131427764893,-0.008890151977539062,-0.009150460362434387,0.025120973587036133,0.07098092883825302,0.07625097781419754,-0.011170051991939545,-0.1198958804371826,0.5431585145262319,0.09120909442782758
3.830509901046753,-0.008387863636016846,-0.008626706898212433,0.020944595336914062,0.06542374193668365,0.08284842222929001,-0.015380456112325191,-0.11939909236229264,0.5439319716802464,0.09074582970157798
3.8407328128814697,-0.007725119590759277,-0.00900142639875412,0.00920712947845459,0.062353119254112244,0.09006825089454651,-0.01623346656560898,-0.11900809487106775,0.5447580785077809,0.09027912980031344
3.851456880569458,-0.005191504955291748,-0.009254544973373413,-4.303455352783203e-05,0.06764969229698181,0.09486651420593262,-0.01903330162167549,-0.11860222647683497,0.5456444967779317,0.08979231066225471
3.8608238697052,-0.002494633197784424,-0.0075933560729026794,-0.0026480555534362793,0.07920781522989273,0.0909508690237999,-0.01578238047659397,-0.11811254321661578,0.5465308795310846,0.08925775477702652
3.8716509342193604,-0.00017911195755004883,-0.0010434836149215698,0.00011134147644042969,0.07597765326499939,0.08394245058298111,-0.019449127838015556,-0.11760160192960585,0.5473440401660149,0.08869797269215889
3.8807270526885986,0.00124359130859375,-0.003996118903160095,0.001331627368927002,0.05522017553448677,0.07924783229827881,-0.02288726717233658,-0.11719449525688776,0.5481022755924221,0.08818002707014812
3.890718936920166,0.0005748867988586426,-0.007429175078868866,-0.00044333934783935547,0.03187245875597,0.08433486521244049,-0.027065446600317955,-0.11696387104168154,0.5488928091744532,0.0877451875009637
3.9013659954071045,-0.0023668408393859863,-0.006819605827331543,-0.0013239383697509766,0.018770240247249603,0.08029325306415558,-0.03299817070364952,-0.11684175202616291,0.5496728876709132,0.08735395609057875
3.9106969833374023,-0.0032740235328674316,-0.004788286983966827,0.003964483737945557,0.017339255660772324,0.07159164547920227,-0.03812539577484131,-0.11682446988773061,0.5503645249554698,0.08695209204711495
3.9207088947296143,-0.004769504070281982,-0.00015885382890701294,0.00857532024383545,0.02706538699567318,0.06153155118227005,-0.04715670645236969,-0.11675695907080928,0.5509007122472883,0.08646054863110292
3.9308040142059326,-0.0062441229820251465,0.003434985876083374,0.00554656982421875,0.03083893284201622,0.053310949355363846,-0.05494805425405502,-0.1166413331386525,0.551318709165608,0.08585535748552199
3.941943883895874,-0.008474349975585938,0.007346600294113159,0.0041710734367370605,0.039290208369493484,0.05147789418697357,-0.06033989042043686,-0.1165437586978835,0.5516933363171972,0.08516879996496383
3.9511711597442627,-0.011925578117370605,0.00484205037355423,-3.6597251892089844e-05,0.05259311944246292,0.04708470031619072,-0.06437191367149353,-0.1164690585475437,0.5520519865949957,0.08439117119058306
3.961024045944214,-0.01637929677963257,0.0064895376563072205,0.00038558244705200195,0.06621359288692474,0.04584340378642082,-0.06935735046863556,-0.11625445671449634,0.552395274431341,0.0835076845262302
3.9711689949035645,-0.015616953372955322,0.007441185414791107,-0.005071520805358887,0.07675515115261078,0.05402471870183945,-0.06633013486862183,-0.11588011781515593,0.552748104145875,0.08254490179342448
3.9813899993896484,-0.012943506240844727,0.006804339587688446,-0.015049755573272705,0.08586235344409943,0.053460925817489624,-0.06142272800207138,-0.11541522389991866,0.5531261786726178,0.0815597736617985
3.9927480220794678,-0.009386539459228516,0.002888418734073639,-0.01553046703338623,0.0945262685418129,0.04249966889619827,-0.059700462967157364,-0.1149180695261489,0.5534678394633725,0.08056410249251093
4.005696058273315,-0.0075397491455078125,-0.0011503174901008606,-0.00887984037399292,0.09596464037895203,0.03159588947892189,-0.05457228049635887,-0.11445240196284355,0.5537049427165529,0.07956408425057959
4.013213872909546,-0.003944873809814453,-0.0006791353225708008,-0.005182743072509766,0.08446429669857025,0.02205577865242958,-0.050714850425720215,-0.11405491935638497,0.5538285216643065,0.0786285677982576
4.021937131881714,-0.00014913082122802734,-0.00829371064901352,-0.006125330924987793,0.05847237631678581,0.010659847408533096,-0.048254888504743576,-0.11387105011042074,0.5538560210708179,0.07781689558657974
4.030908823013306,0.00171738862991333,-0.018720664083957672,0.00010961294174194336,0.032686106860637665,-0.007410100195556879,-0.05041183531284332,-0.1138609345472354,0.5537230801238802,0.07714780476814269
4.0408408641815186,0.002611398696899414,-0.018219545483589172,0.009157359600067139,0.015750795602798462,-0.02804400585591793,-0.04581069201231003,-0.11406303569950335,0.5533656539937929,0.07658913931948531
4.0510499477386475,0.003537416458129883,-0.012352444231510162,0.009120583534240723,0.007911465130746365,-0.045068662613630295,-0.03800598159432411,-0.11433172063493517,0.5528307232964336,0.076157505229933
4.061192989349365,0.007912874221801758,-0.011414431035518646,0.00262451171875,-0.0007073224987834692,-0.06050354614853859,-0.034829627722501755,-0.1145855510211929,0.5521314919425712,0.0758144755743016
4.070850133895874,0.006337285041809082,-0.0129380002617836,-0.002026855945587158,-0.011728981509804726,-0.061374396085739136,-0.031163785606622696,-0.11482897475290922,0.5513778085685507,0.07555588902521362
4.080775022506714,0.0016551017761230469,-0.013719923794269562,-0.008194983005523682,-0.01795625127851963,-0.053020596504211426,-0.024469131603837013,-0.11506312428821705,0.5507246867997516,0.07539274199706057
4.090963125228882,0.0033312439918518066,-0.013887420296669006,-0.014300048351287842,-0.011968832463026047,-0.049596745520830154,-0.023345863446593285,-0.11529318762745379,0.5501850214560309,0.07527270491877071
4.101246118545532,0.006287515163421631,-0.012235209345817566,-0.01065737009048462,-0.009934975765645504,-0.05532760173082352,-0.02260017953813076,-0.11535033747172732,0.5496532482215742,0.07513147810559308
4.111083030700684,0.0069942474365234375,-0.007492385804653168,-0.002719283103942871,-0.0033481628634035587,-0.06297872960567474,-0.020228207111358643,-0.11523012838929485,0.5490807407940133,0.07498468115133994
4.1228859424591064,0.00885683298110962,-0.007974334061145782,0.005249500274658203,0.0014242215547710657,-0.0724065825343132,-0.018506208434700966,-0.11507015683094388,0.54845608493771,0.07483512621245851
4.131181955337524,0.007331550121307373,-0.009868524968624115,0.012093186378479004,0.006905157119035721,-0.08716640621423721,-0.017167437821626663,-0.11494938347122152,0.5477269701911989,0.07465930725058385
4.141977071762085,0.006815314292907715,-0.005092285573482513,0.016713976860046387,0.005112582817673683,-0.0982171967625618,-0.01552293449640274,-0.11482625919809544,0.5468698815237331,0.07448556574645256
4.1508848667144775,0.00795048475265503,-0.002160780131816864,0.016551554203033447,-0.004990983754396439,-0.09677597880363464,-0.011448192410171032,-0.11470154779022364,0.545937146313492,0.07437730305872478
4.1610801219940186,0.006165027618408203,-0.007792234420776367,0.01066887378692627,-0.014279556460678577,-0.08763308078050613,-0.011798664927482605,-0.11464108295988837,0.545016863664373,0.0743378160247432
4.171061992645264,0.0015167593955993652,-0.010882467031478882,0.00961834192276001,-0.015175111591815948,-0.07803975045681,-0.011720473878085613,-0.11463373216876638,0.5441836089396908,0.07432272562327134
4.180938959121704,-0.0021483898162841797,-0.006844811141490936,0.012870728969573975,-0.00804929155856371,-0.07110727578401566,-0.00820962805300951,-0.11462432710293004,0.5434685406504205,0.07429910547441156
4.191087961196899,-0.0023273825645446777,-0.001848168671131134,0.015519976615905762,-0.0025305559393018484,-0.0703384205698967,-0.004187403246760368,-0.11458655400072999,0.5428332021804425,0.07429361763666914
4.201245069503784,-0.0015161633491516113,-0.001959957182407379,0.023713231086730957,-0.0065873488783836365,-0.0730481892824173,-0.0030965725891292095,-0.11454549049741625,0.5422176355316702,0.07430099503936234
4.21107292175293,-0.005047798156738281,-0.006139397621154785,0.031129121780395508,-0.014797475188970566,-0.06481973081827164,-0.0030586491338908672,-0.11454400728587216,0.5416518699379342,0.07434415783463187
4.221702814102173,-0.011607170104980469,-0.012151345610618591,0.03245919942855835,-0.024902839213609695,-0.04779840260744095,-0.006311700213700533,-0.11469758901832793,0.5412300931624979,0.0744180306897647
4.231058835983276,-0.014362096786499023,-0.01208176463842392,0.029656708240509033,-0.029892006888985634,-0.031549565494060516,-0.005759573541581631,-0.11496546670748904,0.5409897236736514,0.07452621846092457
4.241128921508789,-0.013108253479003906,-0.011838242411613464,0.02304595708847046,-0.018482757732272148,-0.022275909781455994,-0.0013025072403252125,-0.11511968931439731,0.5408181233843398,0.0746429766759489
4.251301050186157,-0.012280404567718506,-0.009689323604106903,0.024277925491333008,0.0061587062664330006,-0.012004896998405457,0.002539688488468528,-0.11507619880023093,0.540685110421805,0.0746863704450151
4.261202096939087,-0.013231039047241211,-0.004333168268203735,0.0216367244720459,0.026092199608683586,-0.0017751618288457394,0.012049837037920952,-0.11486083719353413,0.5406397998586937,0.07466951276437217
4.271086931228638,-0.011314570903778076,-0.0021072253584861755,0.014639556407928467,0.038035646080970764,0.008948855102062225,0.016825363039970398,-0.11450941165295117,0.5406943210750124,0.07463466777591764
4.281184911727905,-0.011707603931427002,-0.0073597729206085205,0.014029085636138916,0.04497450962662697,0.015344702638685703,0.018541503697633743,-0.11406754650675976,0.5408386994460537,0.07456402003511281
4.291263818740845,-0.011832714080810547,-0.008284352719783783,0.01417851448059082,0.04051309823989868,0.02167392708361149,0.020991932600736618,-0.11356983923127324,0.5410588926424869,0.07452108709879247
4.301241159439087,-0.009969651699066162,-0.010365448892116547,0.014869868755340576,0.02449631877243519,0.01699874736368656,0.015126585960388184,-0.11314577119649703,0.5412790432891806,0.07450160052261587
4.311291933059692,-0.007094264030456543,-0.015104241669178009,0.015088081359863281,-0.0026027108542621136,0.01786596141755581,0.010099337436258793,-0.11295475929054585,0.5414551666863127,0.0745466076209017
4.321210145950317,-0.0065909624099731445,-0.01767534762620926,0.011484622955322266,-0.025119470432400703,0.02841048128902912,0.01001997571438551,-0.11299315516059917,0.5416909610397678,0.07471120919837095
4.331211805343628,-0.007569789886474609,-0.017281942069530487,0.002526402473449707,-0.019824158400297165,0.03941088914871216,0.012933474034070969,-0.11310398026234954,0.5420597060463443,0.07492948424078354
4.34127402305603,-0.0073111653327941895,-0.00864662230014801,-0.006523549556732178,-0.005709670949727297,0.031205691397190094,0.016943128779530525,-0.11315122429949773,0.5424404331432547,0.07513686779193991
4.35130500793457,-0.0005121827125549316,0.0003579631447792053,-0.005825817584991455,0.02021891437470913,0.01183984987437725,0.01683734729886055,-0.11301109430324115,0.5426534805964127,0.07523991770574533
4.361346006393433,0.005375981330871582,6.514042615890503e-05,-0.003676295280456543,0.03551504388451576,-0.005186804570257664,0.017060520127415657,-0.11264547196415302,0.542666485447497,0.07522506328909007
4.372161149978638,0.0008407831192016602,-0.0011245235800743103,-0.0019624829292297363,0.03752579912543297,-0.015013691037893295,0.014276772737503052,-0.11219962679514098,0.5425324500252325,0.07516543906510603
4.3812549114227295,-0.005319058895111084,-0.006287574768066406,-0.0003402233123779297,0.01665434055030346,-0.025369925424456596,0.006066246889531612,-0.11183672276790685,0.5423230748274223,0.07511462551595967
4.391287088394165,-0.00876927375793457,-0.01030055433511734,0.0034593939781188965,-0.00850242841988802,-0.03351471573114395,-0.00554071506485343,-0.1116677433606792,0.5420268516034741,0.07509382184318197
4.401329040527344,-0.009190738201141357,-0.012213237583637238,0.003708958625793457,-0.02880796790122986,-0.03215490281581879,-0.014146187342703342,-0.11170381694162243,0.541681970334514,0.07510604019997486
4.411389112472534,-0.014465630054473877,-0.01368512213230133,-0.002094745635986328,-0.04639817774295807,-0.019374484196305275,-0.017875250428915024,-0.11191051351579756,0.5413858489068474,0.07516369142516978
4.421386003494263,-0.019460022449493408,-0.016606740653514862,-0.006530702114105225,-0.04393688589334488,-0.009339161217212677,-0.01822226122021675,-0.11230161853072966,0.5411849571572894,0.07524949178038465
4.4314939975738525,-0.017490506172180176,-0.013120487332344055,-0.007762312889099121,-0.02128918096423149,-0.007259720470756292,-0.014638872817158699,-0.11269358579799969,0.5411027511616389,0.0752759162995896
4.443659067153931,-0.013377130031585693,-0.007541857659816742,-0.007204413414001465,0.013490371406078339,-0.010774293914437294,-0.004243222996592522,-0.11276114153156287,0.5410433708359159,0.07521531223154806
4.454128980636597,-0.008144676685333252,-0.007234029471874237,-0.0066599249839782715,0.04788123443722725,-0.01702331192791462,0.005506183952093124,-0.11246670271894048,0.5408994840170419,0.07507089260223856
4.461336851119995,-0.002526581287384033,-0.005594521760940552,-0.009324729442596436,0.07456398010253906,-0.032417718321084976,0.016395850107073784,-0.1117842103448028,0.5405992072516091,0.07483745577573121
4.471455812454224,0.0031603574752807617,-0.006518378853797913,-0.013292372226715088,0.07238469272851944,-0.04844865947961807,0.02140541560947895,-0.11091742322738728,0.540134642952937,0.0746109241495516
4.481328010559082,0.010625243186950684,-0.013099610805511475,-0.017628967761993408,0.05315960571169853,-0.06081876903772354,0.024069376289844513,-0.11012381355329663,0.539541049739224,0.07447396229534972
4.4914209842681885,0.014297723770141602,-0.022315271198749542,-0.017203450202941895,0.021183861419558525,-0.07478616386651993,0.030887814238667488,-0.10950911786977863,0.5387906781715369,0.07450231771252576
4.501634836196899,0.017703533172607422,-0.024866394698619843,-0.012427091598510742,-0.018153958022594452,-0.09163571894168854,0.03969515487551689,-0.10914363292803263,0.5378690969432445,0.07478783208923756
4.511477947235107,0.02154296636581421,-0.023751981556415558,-0.006371736526489258,-0.04703274369239807,-0.10413526743650436,0.05038747936487198,-0.10908170189901832,0.5368354582126619,0.07533903792126433
4.521405935287476,0.020246684551239014,-0.026218384504318237,-0.004359543323516846,-0.06720486283302307,-0.10871084034442902,0.06575950980186462,-0.10922964908467671,0.5357907172426702,0.07612787644981014
4.531466960906982,0.01861625909805298,-0.025624334812164307,-0.0010950565338134766,-0.07076490670442581,-0.11256230622529984,0.07670307904481888,-0.10941490678560253,0.5347650536027494,0.07710822947958103
4.541466951370239,0.017833232879638672,-0.020061984658241272,0.005399346351623535,-0.06360233575105667,-0.12026496976613998,0.09574121981859207,-0.10949881189176494,0.5337059268589421,0.07819445580345465
4.551624059677124,0.014504194259643555,-0.01054452359676361,0.008737325668334961,-0.05363546684384346,-0.12649086117744446,0.10975749045610428,-0.10939539470261207,0.532614963561322,0.07938681627111431
4.5614659786224365,0.008611083030700684,-0.013470470905303955,0.016176700592041016,-0.06328783184289932,-0.12092804908752441,0.10987919569015503,-0.1091613826192457,0.5315527089099252,0.08064597694641659
4.571551084518433,-0.00012046098709106445,-0.0195668563246727,0.02406489849090576,-0.07369662821292877,-0.10838136076927185,0.10557658970355988,-0.10892396898151231,0.5305980206019344,0.08194112312888432
4.581568956375122,-0.009621739387512207,-0.013826034963130951,0.02691042423248291,-0.06875140219926834,-0.09059011936187744,0.1016007587313652,-0.10872087834637213,0.5298319575921525,0.08322738366529325
