timestamp,accel_x,accel_y,accel_z,rotation_x,rotation_y,rotation_z, pitch,roll,yaw
0.04732370376586914,0.022474877536296844,-0.021368183195590973,0.008373022079467773,0.052544329315423965,0.012168158777058125,0.00179207359906286,0.07242977931139749,0.08791481076596638,-0.0031872675096249496
0.053494930267333984,0.01916337013244629,-0.0214071124792099,0.008418917655944824,0.04503408446907997,0.007906390354037285,0.002358634490519762,0.0729262150588491,0.08802586727874992,-0.0032054761944439025
0.0549468994140625,0.020752452313899994,-0.017316214740276337,0.006539702415466309,0.03750772401690483,-0.0017728679813444614,0.005863620899617672,0.07334085866085206,0.08805707992931232,-0.003205088664046346
0.06180095672607422,0.023224085569381714,-0.011149652302265167,0.004685640335083008,0.03847203776240349,-0.009692620486021042,0.008736265823245049,0.07372537828863716,0.08799843670082956,-0.00316820706837202
0.07105183601379395,0.023364312946796417,-0.008037954568862915,0.0018863081932067871,0.04249873757362366,-0.006533845793455839,0.0104649243876338,0.07413739644321972,0.08790605139537548,-0.0031068541813167837
0.0810708999633789,0.019173502922058105,-0.005630806088447571,0.0013709068298339844,0.04271258786320686,-0.0037415209226310253,0.011669471859931946,0.07456206993441672,0.08785735335155162,-0.0030359709402519347
0.0910038948059082,0.01614721119403839,-0.004091031849384308,0.0034481287002563477,0.04063825309276581,-0.004418496508151293,0.011436445638537407,0.07498915103242697,0.08781918158076835,-0.0029564924060859073
0.10105180740356445,0.01679195463657379,-0.003132857382297516,0.005074560642242432,0.03473858907818794,-0.009798703715205193,0.007628924213349819,0.07536856190010356,0.08774099435879294,-0.0028884835907833917
0.1113576889038086,0.018663451075553894,-0.0031202808022499084,0.008327245712280273,0.027091052383184433,-0.014011557213962078,0.00337612209841609,0.0756719171495851,0.08762547938533274,-0.0028627093834309703
0.1209707260131836,0.020222924649715424,-0.005684614181518555,0.010928928852081299,0.022689413279294968,-0.011809036135673523,0.0027418630197644234,0.0759158989170711,0.08750111769290651,-0.002860006722442377
0.1311349868774414,0.01893162727355957,-0.0022875145077705383,0.009379386901855469,0.023204468190670013,-0.01202901266515255,0.0010273201623931527,0.07615512532165124,0.08738945404118059,-0.002852799588783931
0.14122867584228516,0.017110221087932587,-0.0004490762948989868,0.008460938930511475,0.018518120050430298,-0.01907968707382679,-0.0027582566253840923,0.07636147364516625,0.08724286085879591,-0.0028889683440319687
0.15124273300170898,0.019088156521320343,0.00016448646783828735,0.010664403438568115,0.014486361294984818,-0.022910909727215767,-0.006750069092959166,0.07651773357888,0.08703458948035342,-0.002963625578580873
0.16141486167907715,0.020007073879241943,-0.0030385851860046387,0.015130579471588135,0.0077797891572117805,-0.021633215248584747,-0.008899453096091747,0.07662612161526236,0.08681683113761747,-0.003051597100102238
0.1713237762451172,0.017283357679843903,-0.0063344985246658325,0.017734944820404053,0.0015772869810461998,-0.012299634516239166,-0.01144064124673605,0.07667203004596727,0.08665587401783713,-0.0031602186298522834
0.1811509132385254,0.013568542897701263,-0.00720609724521637,0.019621610641479492,-0.007188424468040466,-0.008782263845205307,-0.011492572724819183,0.07663956586878942,0.08657046077866276,-0.003281312884563553
0.1912527084350586,0.013428717851638794,-0.0069241151213645935,0.020626366138458252,-0.00886621605604887,-0.009548721835017204,-0.01060281042009592,0.07655508184019125,0.08649560297093,-0.0033884317920778737
0.20125675201416016,0.01712851971387863,-0.006966598331928253,0.022205471992492676,-0.002146944170817733,-0.0017092186026275158,-0.010663317516446114,0.07660430266206222,0.08671912830136788,-0.003512908887593912
0.21136474609375,0.016033105552196503,-0.009080283343791962,0.023155033588409424,-0.003373329760506749,0.013313407078385353,-0.010751201771199703,0.07659631244336139,0.08703843275403828,-0.003639928883416506
0.2212977409362793,0.014883019030094147,-0.007333472371101379,0.01845526695251465,-0.00015248614363372326,0.016225174069404602,-0.005300616845488548,0.07658833637468819,0.08739742595987857,-0.0037377243255830145
0.23138785362243652,0.01778627187013626,-0.00728752464056015,0.013825535774230957,0.004165829159319401,0.021305155009031296,-0.0030893939547240734,0.07661911658266538,0.08779294109976528,-0.0037919687916307754
0.2413618564605713,0.017968490719795227,-0.007309935986995697,0.012920856475830078,0.010869771242141724,0.023549310863018036,0.0034996923059225082,0.07678028681116751,0.08822509574479458,-0.0038239593077814596
0.25136685371398926,0.018201634287834167,-0.003244169056415558,0.01459580659866333,0.006451320834457874,0.020103979855775833,0.002565721981227398,0.07698617508140644,0.08860631231692734,-0.0038068523208189113
0.26207685470581055,0.01683962345123291,-0.004520006477832794,0.021559596061706543,0.00044366251677274704,0.022604065015912056,-0.0032269731163978577,0.07712984193487178,0.08893396995268917,-0.0038225481785271963
0.27129077911376953,0.01549963653087616,-0.013063207268714905,0.019986391067504883,-0.007945295423269272,0.020853569731116295,-0.005997193045914173,0.07717748407234452,0.08925416557752928,-0.0038559000746579246
0.2813148498535156,0.017789147794246674,-0.007985226809978485,0.015409708023071289,-0.007112042047083378,0.01632268913090229,-0.008476223796606064,0.07718957487810806,0.08957621861061768,-0.003927096896524262
0.29123973846435547,0.019719235599040985,-0.001977302134037018,0.013110220432281494,-0.007905397564172745,0.010642966255545616,-0.007443449459969997,0.0772314444498148,0.08983021421267783,-0.004000519505704784
0.30127668380737305,0.01856541633605957,-0.002665087580680847,0.010130167007446289,-0.006983777042478323,0.008641600608825684,-0.013239446096122265,0.07724560185789893,0.09003955008046578,-0.004103372642228707
0.31140685081481934,0.018863163888454437,-0.007362633943557739,0.009621918201446533,-0.006257000379264355,0.0041768113151192665,-0.015878906473517418,0.07726307019078264,0.09024692593069895,-0.004257843209412444
0.3213629722595215,0.017437882721424103,-0.003317631781101227,0.007421314716339111,-0.01111898384988308,0.008018732070922852,-0.015910277143120766,0.07726449184426033,0.09045295473788913,-0.004403095601805013
0.33139801025390625,0.01747792959213257,-0.003703854978084564,0.007788956165313721,-0.012442309409379959,0.009057365357875824,-0.01888289861381054,0.07716790147713444,0.09068855783013689,-0.004578191043048745
0.34131288528442383,0.01836124062538147,-0.00831206887960434,0.00856238603591919,-0.008237610571086407,0.009076184593141079,-0.01640498638153076,0.07713723964289242,0.09093594383712614,-0.004759311547739216
0.3515329360961914,0.016466394066810608,-0.007164016366004944,0.008439898490905762,-0.0044985320419073105,0.0067626964300870895,-0.014877131208777428,0.07726332854608306,0.09117012978663297,-0.0049216345526977056
0.3618659973144531,0.016339734196662903,-0.005482308566570282,0.005797922611236572,0.0006878410931676626,0.00873485580086708,-0.00990064162760973,0.07737371902026578,0.09143680142936787,-0.005053185795977212
0.37152671813964844,0.017366625368595123,-0.007523775100708008,0.0015703439712524414,0.0005208607763051987,0.009465627372264862,-0.00414182199165225,0.07742284474737922,0.09173994437760703,-0.005140690322474014
0.38157176971435547,0.018974654376506805,-0.005975164473056793,0.00021249055862426758,-0.0007079718634486198,0.009590485133230686,-0.005248791538178921,0.07747625979247456,0.09202645163423215,-0.005184603988778502
0.3915410041809082,0.01954101026058197,-0.009534411132335663,-0.0006101727485656738,-0.007456421852111816,0.0022148604039102793,-0.0023427503183484077,0.07756411824218584,0.0922712011141448,-0.005230957315005171
0.40155887603759766,0.02064557373523712,-0.012040391564369202,0.001338183879852295,-0.022124329581856728,-0.00874364748597145,-0.004529631696641445,0.07746874975756171,0.09240288094292574,-0.005260786936360543
0.41326284408569336,0.020639099180698395,-0.015696197748184204,0.007590115070343018,-0.03296792507171631,-0.011826256290078163,-0.008535025641322136,0.07724548704153607,0.09246927527332309,-0.005320546873852908
0.4217257499694824,0.018795527517795563,-0.01923440396785736,0.008195042610168457,-0.03009069338440895,-0.011719508096575737,-0.007117318920791149,0.07704838334603778,0.09252658098855046,-0.005387084979593032
0.43179893493652344,0.018003806471824646,-0.017935141921043396,0.0072119832038879395,-0.024871431291103363,-0.01161244884133339,-0.002489277394488454,0.07688229559884133,0.09256974953239586,-0.005419315001790637
0.44164085388183594,0.015328623354434967,-0.015563175082206726,0.007914543151855469,-0.009106566198170185,-0.010022232308983803,0.0031916177831590176,0.07681265522890325,0.09262029017927322,-0.005416693982077106
0.4522738456726074,0.014524534344673157,-0.01098216325044632,0.0046405792236328125,0.00024538999423384666,-0.016342977061867714,0.00758423563092947,0.07689256644793115,0.09264694645045306,-0.0053664457469436355
0.46176576614379883,0.015010625123977661,-0.009508609771728516,0.004705369472503662,0.00984964706003666,-0.017925161868333817,0.007015544455498457,0.07703903249386558,0.09265019800837797,-0.0053127374541370505
0.4716808795928955,0.014896601438522339,-0.014646768569946289,0.008326828479766846,0.00985204428434372,-0.006158517207950354,0.013863597065210342,0.07730327929678192,0.0927054741861828,-0.005229652789992921
0.48166894912719727,0.008789069950580597,-0.015995129942893982,0.010760366916656494,0.008009037002921104,0.005762856919318438,0.01753140799701214,0.07757315363815086,0.09289592241802536,-0.0050902390275814535
0.49168968200683594,0.0037461593747138977,-0.014305606484413147,0.009519338607788086,0.007373075000941753,0.01063724048435688,0.018613450229167938,0.07790565606459984,0.09316721928813412,-0.00493066324700578
0.501715898513794,0.006233677268028259,-0.012712575495243073,0.0055089592933654785,0.0203151386231184,0.008995845913887024,0.019898371770977974,0.07834033942191715,0.09343139568159325,-0.004769933788252558
0.5128738880157471,0.007990255951881409,-0.008719421923160553,0.004849255084991455,0.03245116397738457,0.010881630703806877,0.025079285725951195,0.07887139193351818,0.09367945938084263,-0.004584168543175098
0.5216789245605469,0.009306617081165314,-0.004120364785194397,0.005008876323699951,0.038003355264663696,0.01421244628727436,0.028286851942539215,0.07945922999170682,0.09392570349649096,-0.004357502266945689
0.5317308902740479,0.007510431110858917,-0.0004424378275871277,0.0029393434524536133,0.04711935669183731,0.015316326171159744,0.026831699535250664,0.08004147119928005,0.09418709130394928,-0.004124003357615146
0.5417537689208984,0.007307045161724091,-0.002371370792388916,0.00010406970977783203,0.05924363061785698,0.011088823899626732,0.025686485692858696,0.08067806385804427,0.09442763857265002,-0.003924168760420117
0.5518417358398438,0.011985883116722107,0.0002759769558906555,-0.0003285408020019531,0.06595799326896667,0.0008835908956825733,0.023945044726133347,0.08149705310776247,0.09459338773228496,-0.0037488511245204414
0.5618109703063965,0.014734603464603424,0.004429161548614502,-0.0024980902671813965,0.05408143997192383,-0.018124233931303024,0.01405156310647726,0.08231129444234118,0.09456681782764646,-0.0036220730357617715
0.5721578598022461,0.01597481220960617,0.004581764340400696,0.00023490190505981445,0.03177054226398468,-0.028574476018548012,0.0063483696430921555,0.08290843553570805,0.09435190425171099,-0.0035724565106246284
0.5827016830444336,0.01681309938430786,-0.007364600896835327,0.008276402950286865,0.002389234723523259,-0.03174341842532158,-0.003495792392641306,0.08320061751548127,0.09409369442938889,-0.003575021948838844
0.5918316841125488,0.011870890855789185,-0.013528548181056976,0.014721691608428955,-0.01836451329290867,-0.023163512349128723,-0.0073041124269366264,0.08317061039751236,0.09389187807084465,-0.0036250635711667406
0.601921796798706,0.0047761425375938416,-0.01089140772819519,0.018421828746795654,-0.01781633496284485,-0.01048801839351654,-0.0079913679510355,0.08298422920309743,0.0938129259703362,-0.0036906632879968554
0.6122307777404785,0.0009108558297157288,-0.005923271179199219,0.016675710678100586,-0.0007673101499676704,0.002062128158286214,-0.008513080887496471,0.08284017977024777,0.09384741105189795,-0.0037716749236401752
0.6218698024749756,-0.0004135221242904663,0.003486126661300659,0.011204361915588379,0.02151307836174965,0.014504904858767986,-0.0112295588478446,0.08294206079458724,0.09401420777019705,-0.0038853411613891504
0.6317038536071777,0.0003410950303077698,0.010315105319023132,0.005982339382171631,0.03672612085938454,0.021281318739056587,-0.010072414763271809,0.08319538470698414,0.09431681192645087,-0.0040238813982677694
0.641880989074707,0.0017497614026069641,0.011847659945487976,0.005154788494110107,0.044345755130052567,0.029457399621605873,-0.014613850973546505,0.08352362791591864,0.09471440881313163,-0.004198229426257695
0.6519289016723633,0.0026545450091362,0.008257746696472168,0.006562173366546631,0.03491363674402237,0.03828711062669754,-0.02188907377421856,0.0838410791145024,0.09520460831293164,-0.004427506739302956
0.6623008251190186,0.0028091371059417725,0.0021480023860931396,0.007988452911376953,0.02246619015932083,0.04141250625252724,-0.02750786580145359,0.08420233790800442,0.09577466908294249,-0.004710217830189132
0.6720137596130371,0.004864908754825592,-0.004002109169960022,0.009012281894683838,0.009423092938959599,0.03576980158686638,-0.03453248366713524,0.08450777472984526,0.09628903410764808,-0.0050393996725894286
0.6818788051605225,0.011502586305141449,-0.008306749165058136,0.009330272674560547,0.0018608467653393745,0.02402481809258461,-0.039689693599939346,0.0846592368859445,0.09665940497847661,-0.005418920864809886
0.6919188499450684,0.01689993590116501,-0.010583065450191498,0.009579122066497803,0.00845190417021513,0.007753436453640461,-0.03477589786052704,0.0847483598533291,0.09684907345348553,-0.005796373931731885
0.7020149230957031,0.02127683162689209,-0.008903108537197113,0.00831061601638794,0.006654470227658749,-0.0006191865541040897,-0.025063667446374893,0.08473454400395339,0.09688212709092377,-0.006100614227941251
0.7121648788452148,0.022659428417682648,-0.00926496833562851,0.005877375602722168,0.007535709999501705,-1.1719763278961182e-05,-0.01800868846476078,0.08463171014167631,0.09688728123854384,-0.006329432176766796
0.7219676971435547,0.019766122102737427,-0.01306898146867752,0.0008064508438110352,0.0066914549097418785,-0.0076660881750285625,-0.007773894816637039,0.08453524132159244,0.09686518668405283,-0.006468712740554651
0.7319717407226562,0.01911795139312744,-0.013204008340835571,0.003704667091369629,-0.004761735443025827,-0.0073829940520226955,-0.0012454213574528694,0.08444566950944973,0.09679488472647411,-0.006510644971653329
0.7419567108154297,0.0177532359957695,-0.0163896381855011,0.010096907615661621,-0.011245117522776127,-0.006613030098378658,0.007828980684280396,0.08434194217802439,0.09673922741890932,-0.0064657052655550384
0.7520368099212646,0.014802984893321991,-0.021822236478328705,0.013503193855285645,-0.008899139240384102,-0.0030947281047701836,0.015346817672252655,0.08431084657798626,0.09672893757985022,-0.006349584299080029
0.7624497413635254,0.011829540133476257,-0.020330898463726044,0.0181160569190979,-0.0060852100141346455,-0.001929328776896,0.02267429232597351,0.08436806382670031,0.09678891521474418,-0.006173935785006674
0.772061824798584,0.010497115552425385,-0.015004158020019531,0.01829010248184204,-0.0002683335915207863,0.005606618244200945,0.027949215844273567,0.08449199902433348,0.09693335373388023,-0.005930360545435647
0.7820549011230469,0.011540472507476807,-0.010717593133449554,0.014452159404754639,0.012378968298435211,0.00936615839600563,0.031256433576345444,0.0846899051341169,0.09715995563995014,-0.005643452497771887
0.7920248508453369,0.012600012123584747,-0.0064482614398002625,0.006915569305419922,0.017981993034482002,-0.0009970003738999367,0.03209879249334335,0.08499305861568682,0.09735576723103918,-0.005349851532573338
0.8020858764648438,0.014150068163871765,-0.002438381314277649,0.008631289005279541,0.019025320187211037,-0.009097449481487274,0.03400124981999397,0.08537271784166992,0.09742687423629516,-0.005053512888449245
0.812255859375,0.01723511517047882,-0.007341854274272919,0.010200977325439453,0.012148771435022354,-0.01081199198961258,0.030398260802030563,0.08571954123688272,0.09745777152242742,-0.004768586648716473
0.8220939636230469,0.017108015716075897,-0.007700741291046143,0.009327232837677002,-0.004375244490802288,-0.01589321345090866,0.02550848200917244,0.08597193105220995,0.09743418357214836,-0.004499157534624138
0.8323507308959961,0.014262966811656952,-0.010028243064880371,0.012950420379638672,-0.017880134284496307,-0.017190705984830856,0.02020559459924698,0.08614751720017297,0.09736570079118635,-0.004277688208180351
0.842094898223877,0.015417434275150299,-0.015094928443431854,0.013949453830718994,-0.031005389988422394,-0.01581740379333496,0.01802009902894497,0.08616206133767208,0.09727872562333616,-0.00407304343029555
0.8521358966827393,0.014515474438667297,-0.01358671486377716,0.009696543216705322,-0.030969705432653427,-0.018146337941288948,0.015278108417987823,0.08603711737858623,0.09718705458009623,-0.0038864740364171414
0.8623178005218506,0.013600654900074005,-0.005785979330539703,0.007977783679962158,-0.02202562615275383,-0.020794274285435677,0.01209296751767397,0.08591811110520609,0.09707761766792085,-0.0037358227649698273
0.8721668720245361,0.013362884521484375,-0.0016929209232330322,0.008873045444488525,-0.021343324333429337,-0.02358473464846611,0.00704388041049242,0.08578398511833797,0.09693159764883853,-0.0036306775032928134
0.8821508884429932,0.009862862527370453,-0.002698741853237152,0.010023415088653564,-0.01861080527305603,-0.0153517946600914,0.0027932091616094112,0.08561679637673479,0.09685906870863707,-0.0035712975919554952
0.8921618461608887,0.007263995707035065,-0.005186043679714203,0.01042628288269043,-0.018996698781847954,-0.011398063972592354,0.0014677537837997079,0.08554009479932649,0.096863347105831,-0.0035496800343972814
0.9022150039672852,0.005363248288631439,-0.005210168659687042,0.01043093204498291,-0.02260616235435009,-0.004262968432158232,-0.0005258352612145245,0.08542399680532975,0.09691727055698046,-0.0035357623397642163
0.9122598171234131,0.004448369145393372,-0.004604637622833252,0.011413991451263428,-0.008380355313420296,0.007170515134930611,0.0035016629844903946,0.08538852463649196,0.09703941547727947,-0.003526044767887533
0.9221940040588379,0.002439633011817932,-0.006615094840526581,0.01302260160446167,0.0055638886988162994,0.013793796300888062,0.0015443996526300907,0.08557602420019046,0.09728170879755527,-0.0035105203743809534
0.9322776794433594,0.0009787306189537048,-0.00042391568422317505,0.009696602821350098,0.012462541460990906,0.008723936975002289,-0.0007142273825593293,0.08584779140225082,0.09751083562252798,-0.0035126074401173333
0.9421918392181396,0.0049962252378463745,0.0014608874917030334,0.009096860885620117,0.01708257757127285,0.004312365781515837,-0.009905967861413956,0.08607019564300268,0.09767750715166651,-0.0035893261380700297
0.9523108005523682,0.007975637912750244,-0.005496352910995483,0.009719610214233398,0.019330019131302834,0.006654882337898016,-0.014870899729430676,0.08627007539020784,0.09784450017077144,-0.003747316003509932
0.9627118110656738,0.0032095015048980713,-0.006739944219589233,0.011744439601898193,0.01606162078678608,0.014207163825631142,-0.01592971943318844,0.08646152183137168,0.09803624733711926,-0.0039267926125929635
0.97222900390625,0.0009097456932067871,-0.004464179277420044,0.010133147239685059,0.01600116677582264,0.015454322099685669,-0.015682578086853027,0.08666285145256546,0.09826446314551078,-0.004112718332995063
0.9822628498077393,0.002407766878604889,-0.0019170716404914856,0.004126429557800293,0.02484947070479393,0.012193769216537476,-0.01706704869866371,0.08690679661382052,0.09846395764826338,-0.004298588633794615
0.9923028945922852,0.007332347333431244,0.0002378523349761963,-0.002108156681060791,0.03145144507288933,0.005566226784139872,-0.01603986695408821,0.08721657601780446,0.09859380079054905,-0.0044923037463696575
1.0023508071899414,0.00943804532289505,0.003118284046649933,-0.004478037357330322,0.02534490078687668,0.0028621861711144447,-0.01516022440046072,0.08755006202479898,0.0986582678405597,-0.004677087048744885
1.0126068592071533,0.00863984227180481,-0.00042037665843963623,-0.005600690841674805,0.021633518859744072,0.002955663250759244,-0.013790560886263847,0.08776589577477084,0.0987111244441644,-0.004855953126336532
1.022392749786377,0.007948793470859528,-0.003542795777320862,-0.005009293556213379,0.015692973509430885,-0.004388802219182253,-0.014716435223817825,0.08792472558103608,0.09876312370108119,-0.005030408095460296
1.0330958366394043,0.008973143994808197,-0.00360126793384552,-0.004530191421508789,0.004702107049524784,-0.015411091968417168,-0.015068238601088524,0.08806516247386896,0.09873153953375179,-0.005192919868382641
1.0423548221588135,0.013900995254516602,-0.00804680585861206,-0.001529395580291748,-0.003078900743275881,-0.022456087172031403,-0.012217005714774132,0.08812118822621572,0.0985788465903372,-0.00534241373887449
1.0524919033050537,0.015590861439704895,-0.011603809893131256,0.0011603832244873047,-0.0011052320478484035,-0.02503455989062786,-0.005997193045914173,0.08813479813989464,0.09836735535586687,-0.0054398954139103645
1.0624988079071045,0.012394286692142487,-0.007289797067642212,7.611513137817383e-05,-0.006010674871504307,-0.03600722923874855,0.0004820646718144417,0.08811523094006028,0.09808227402214255,-0.005463796997747999
1.0724759101867676,0.011438272893428802,-0.002617783844470978,0.004237353801727295,-0.008163307793438435,-0.04213888943195343,0.004585463088005781,0.08802615581593808,0.0977375424763261,-0.005438507118886024
1.082392692565918,0.011251591145992279,-0.007938273251056671,0.00803685188293457,-0.008001088164746761,-0.04124877229332924,0.007140073925256729,0.08790846231706281,0.09737075813202088,-0.005388585414804663
1.0925259590148926,0.007950730621814728,-0.008573062717914581,0.010301768779754639,-0.0028209735173732042,-0.03541645035147667,0.013406758196651936,0.0878532956935527,0.0970366893843438,-0.0052818302081352846
1.1024658679962158,0.00541725754737854,-0.0032241344451904297,0.013429522514343262,0.013370213098824024,-0.028527826070785522,0.02104896679520607,0.08796890310058413,0.09677656828640087,-0.005123503666331206
1.1125049591064453,0.005773171782493591,0.0015494301915168762,0.015088438987731934,0.03383500874042511,-0.02640129253268242,0.026928693056106567,0.08825749633683036,0.09655856665281556,-0.004914643131834956
1.1223888397216797,0.006119847297668457,0.010474100708961487,0.012703001499176025,0.06890253722667694,-0.027871934697031975,0.03358142822980881,0.08886852443542018,0.09636806772269683,-0.004672445663291801
1.132455825805664,0.009288869798183441,0.013695143163204193,0.007696986198425293,0.127068892121315,-0.032735664397478104,0.03821319714188576,0.08997301874602229,0.09615160463142577,-0.004420072401864958
1.1424198150634766,0.011507779359817505,0.02248205989599228,0.010298311710357666,0.17467708885669708,-0.047358859330415726,0.041222624480724335,0.09159497219352153,0.09582073324876414,-0.004169830496386571
1.1526508331298828,0.009628355503082275,0.030721917748451233,0.017821073532104492,0.20896102488040924,-0.05197039246559143,0.042319316416978836,0.0935412893530037,0.09537884299607824,-0.003950048949687147
1.1626167297363281,0.00919930636882782,0.027872495353221893,0.02051752805709839,0.22121204435825348,-0.03903626278042793,0.057254429906606674,0.09576775478073454,0.09498511582842377,-0.0036888780160903205
1.172663688659668,0.008944123983383179,0.022939831018447876,0.016496777534484863,0.22250261902809143,-0.034844715148210526,0.06993080675601959,0.09806326789786914,0.09466328799765347,-0.0032456228764243945
1.182555913925171,0.006482064723968506,0.030329115688800812,0.02434009313583374,0.26947617530822754,-0.0275395717471838,0.08129153400659561,0.10050547249187065,0.09436833182089914,-0.0027303665064919713
1.1925430297851562,0.004175439476966858,0.02905172109603882,0.03017657995223999,0.30097097158432007,-0.05074901878833771,0.08950392156839371,0.10334745097130142,0.09398238007879034,-0.002140984650865189
1.2025818824768066,0.007975243031978607,0.035509832203388214,0.024688005447387695,0.330651193857193,-0.07357968389987946,0.07708938419818878,0.10635833557258571,0.09334911615609126,-0.0016070145226784972
1.2126617431640625,0.015424899756908417,0.030955307185649872,0.02161431312561035,0.3569038510322571,-0.09155894815921783,0.07567019015550613,0.1096814768661415,0.09253149459454112,-0.0011772774125343483
1.2225828170776367,0.015976794064044952,0.013554587960243225,0.00951695442199707,0.37871912121772766,-0.0925566554069519,0.06425780057907104,0.11316108186085003,0.09162425205863947,-0.0008270459764844114
1.2326388359069824,0.005300246179103851,0.016890838742256165,0.00891345739364624,0.3862212300300598,-0.08790811151266098,0.0653960332274437,0.11673454576281889,0.09074729807045107,-0.0005360409793974622
1.242595911026001,-0.0015635937452316284,0.008740417659282684,0.008613824844360352,0.4165946841239929,-0.07976540178060532,0.06472364068031311,0.12052790884363644,0.08995240726519989,-0.0002612573027439652
1.2526416778564453,-0.0019971951842308044,0.007173113524913788,0.016148269176483154,0.4050424098968506,-0.09105268120765686,0.06165220960974693,0.12442190757869001,0.08912202985719671,-6.912362924382166e-06
1.262631893157959,-0.0032314807176589966,0.015001580119132996,0.03042018413543701,0.3950047194957733,-0.09392160922288895,0.07277139276266098,0.12817566133995334,0.08822074944062591,0.00031215181339937936
1.2726387977600098,0.0007078051567077637,0.018252655863761902,0.04125088453292847,0.4187566637992859,-0.12709741294384003,0.08427145332098007,0.13227011290624502,0.08707578728263435,0.0007394741096515117
1.2826719284057617,0.003449089825153351,0.026238664984703064,0.051824331283569336,0.43941912055015564,-0.17087715864181519,0.0987638384103775,0.13669501785635968,0.08552559014963448,0.0012885009058744648
1.2927179336547852,-0.00264807790517807,0.02673456072807312,0.06380820274353027,0.40353888273239136,-0.18797865509986877,0.09575286507606506,0.14101669247445997,0.08362210207968782,0.0019113344989554813
1.3026628494262695,-0.003594830632209778,0.004337683320045471,0.05152922868728638,0.3025471568107605,-0.17622722685337067,0.09584448486566544,0.14467330236042963,0.08170187492971974,0.0025769684215535245
1.3126168251037598,-0.0034623444080352783,-0.028803333640098572,0.027847588062286377,0.12390419095754623,-0.14987552165985107,0.07547955960035324,0.14691062657152493,0.07993853529595984,0.0032709106529099693
1.3227477073669434,-0.00574108213186264,-0.05640016496181488,0.017979323863983154,-0.05118907243013382,-0.11283960193395615,0.07959344238042831,0.1473180885464541,0.07854044495184621,0.003999067408470048
1.3330578804016113,-0.01046954095363617,-0.0687648355960846,0.02757197618484497,-0.1839875876903534,-0.12854373455047607,0.08211173117160797,0.14617152606977835,0.0772103507526424,0.004923625217162298
1.3450169563293457,-0.009347327053546906,-0.06379678845405579,0.05509161949157715,-0.3040434718132019,-0.16314543783664703,0.058759648352861404,0.14377497286605753,0.07561309725145915,0.005831733633414414
1.3531079292297363,-0.004635222256183624,-0.07490868866443634,0.0844610333442688,-0.4206015169620514,-0.1975257694721222,0.03947969153523445,0.14024164363530012,0.07373881510290704,0.006606274092550438
1.362804889678955,-0.005429394543170929,-0.07625734806060791,0.09555459022521973,-0.6964560747146606,-0.2788540720939636,-0.0025080260820686817,0.13484420560626448,0.07126042698609424,0.007212009299279743
1.3727858066558838,-0.005745209753513336,-0.10304217785596848,0.1252560019493103,-1.244652271270752,-0.344833642244339,-0.11554589867591858,0.1252666501521086,0.06809847243150552,0.007343710338951965
1.3828239440917969,0.0001426488161087036,-0.17671933770179749,0.14607328176498413,-1.9757182598114014,-0.35158950090408325,-0.2904520332813263,0.10911096438416372,0.0646787734544338,0.006391128286088928
1.3942759037017822,-0.00963837280869484,-0.23390594124794006,0.152199387550354,-2.8839316368103027,-0.3637910485267639,-0.5158683657646179,0.0847990675809197,0.061380366121194276,0.003954573196553154
1.4028286933898926,-0.027612507343292236,-0.27976858615875244,0.16392427682876587,-4.058150291442871,-0.30575883388519287,-0.8372215628623962,0.04971958392178874,0.058265411382621285,-0.0007556484150660733
1.4127240180969238,-0.04685063287615776,-0.35158637166023254,0.20608937740325928,-5.124682903289795,-0.21817387640476227,-1.0802805423736572,0.0033482159408214215,0.05589788507265791,-0.0076658315353867
1.4227898120880127,-0.0723586231470108,-0.4153677821159363,0.222673237323761,-6.06057071685791,-0.15515008568763733,-1.3560879230499268,-0.05345487442739892,0.05396809734137343,-0.016795172988469574
1.4330239295959473,-0.0925038754940033,-0.35970258712768555,0.2507190704345703,-6.6173834800720215,-0.2283867448568344,-1.478596806526184,-0.11781809143061452,0.05097846024246682,-0.027816302229735947
1.4444069862365723,-0.08847828209400177,-0.30113574862480164,0.2257114052772522,-7.097358703613281,-0.1392797827720642,-1.4861024618148804,-0.1871600820759355,0.04739206315361299,-0.0394036512560383
1.4528868198394775,-0.0632791742682457,-0.2565761208534241,0.1691151261329651,-7.3611955642700195,-0.05892554670572281,-1.3939943313598633,-0.26012552109105824,0.04392700399838703,-0.050898852114501576
1.4629197120666504,-0.07046191394329071,-0.13733193278312683,0.17106914520263672,-7.590953350067139,-0.19396157562732697,-1.234145998954773,-0.33551670034256625,0.039614682269338244,-0.061331563991480174
1.4731459617614746,-0.04272293299436569,-0.05232018232345581,0.2163764238357544,-7.6557841300964355,-0.27226516604423523,-1.0639692544937134,-0.4123238378297346,0.03371327310919504,-0.07071671957987644
1.4830548763275146,0.011791111901402473,-0.0757000744342804,0.1910915970802307,-7.6316657066345215,-0.30941882729530334,-0.9335372447967529,-0.4891208099523366,0.02712872476533253,-0.07914812610391134
1.494405746459961,0.025385629385709763,-0.056354403495788574,0.09456360340118408,-7.4319257736206055,-0.29547637701034546,-0.7513285875320435,-0.5648959341374037,0.020204189598515984,-0.08692419746795182
1.5029330253601074,0.025099918246269226,0.043615520000457764,-0.003984928131103516,-7.058819770812988,-0.33733537793159485,-0.5585011839866638,-0.6376587623191327,0.013503556945845941,-0.09331458813444947
1.513002872467041,0.03287247195839882,0.12100088596343994,-0.0503312349319458,-6.601339817047119,-0.4459784924983978,-0.4850415885448456,-0.7060733582604581,0.005928993579653632,-0.0990700595013616
1.523000717163086,0.04959254711866379,0.15319877862930298,-0.07630020380020142,-6.1327900886535645,-0.46603530645370483,-0.4300556778907776,-0.7698736727798858,-0.0027224963537719094,-0.10513128897371146
1.533031940460205,0.07461594045162201,0.18650120496749878,-0.14673030376434326,-5.637702941894531,-0.5005687475204468,-0.40283605456352234,-0.8287887383923159,-0.012262071777888102,-0.11167744804875825
1.5438518524169922,0.08712027221918106,0.25109708309173584,-0.16752183437347412,-4.969376564025879,-0.5780577063560486,-0.37302735447883606,-0.8817973406415024,-0.0231992531740507,-0.11903808360559533
1.553030014038086,0.07834382355213165,0.2805047035217285,-0.12453567981719971,-4.29299259185791,-0.5614784955978394,-0.31090617179870605,-0.928059881907926,-0.035019799959722424,-0.12671899513403023
1.562973976135254,0.05815594643354416,0.29092466831207275,-0.09431660175323486,-3.3723061084747314,-0.5915731191635132,-0.2662445902824402,-0.9659700009616818,-0.04701354240365295,-0.13434929305934556
1.573253870010376,0.0213589109480381,0.24500733613967896,-0.09153920412063599,-2.9743027687072754,-0.5396361947059631,-0.1977054923772812,-0.9974510335172436,-0.05898786648167064,-0.14160299874103102
1.5830659866333008,-0.015690647065639496,0.2523918151855469,-0.08651483058929443,-2.9593684673309326,-0.3647376000881195,-0.24451686441898346,-1.026610197438166,-0.07007638144737016,-0.14924382801290678
1.5945219993591309,-0.026365485042333603,0.11087042093276978,-0.07816800475120544,-3.077515125274658,-0.288941890001297,-0.26066654920578003,-1.0569902552530217,-0.08171359052785475,-0.1589614904939396
1.6030278205871582,-0.04578719660639763,-0.031241953372955322,-0.011960059404373169,-3.0717613697052,-0.24350480735301971,-0.24012601375579834,-1.0873506621515991,-0.09386698139817712,-0.16970862579771606
1.6128997802734375,-0.054581787437200546,-0.061269402503967285,0.003970980644226074,-3.0335874557495117,-0.17731966078281403,-0.26445239782333374,-1.117463244073058,-0.10702213225247448,-0.1821553332635574
1.622877836227417,-0.06649073958396912,-0.02596205472946167,0.018053770065307617,-3.1387925148010254,-0.20158588886260986,-0.26223888993263245,-1.1477853815528132,-0.12197880268655438,-0.1965686681889692
1.6330158710479736,-0.049069587141275406,-0.04846853017807007,0.05057728290557861,-3.2727181911468506,-0.14163094758987427,-0.3402825593948364,-1.1790181644388371,-0.14009234359749909,-0.21442412676723868
1.644561767578125,-0.02264133095741272,-0.07527846097946167,0.04526376724243164,-3.398754119873047,-0.09348254650831223,-0.37162917852401733,-1.211642831759608,-0.16326966380158997,-0.23814900273957504
1.6531786918640137,-0.03458080068230629,-0.049377262592315674,0.03340572118759155,-3.331188678741455,-0.0653688833117485,-0.30940842628479004,-1.244306663825966,-0.1900555047265216,-0.26576618710744815
1.6632709503173828,-0.02753952145576477,0.03298109769821167,0.0060167014598846436,-3.12249493598938,-0.08129122108221054,-0.3322266936302185,-1.2753019026520431,-0.22087413786414972,-0.29741730253671783
1.673264980316162,-0.005569338798522949,0.03529942035675049,-0.041705310344696045,-3.1366615295410156,-0.1274627149105072,-0.35222887992858887,-1.3046521667806614,-0.2592648022944872,-0.3362870190313771
1.6832778453826904,0.010553129017353058,0.008589029312133789,-0.06050962209701538,-3.366267204284668,-0.14595401287078857,-0.3772221803665161,-1.3347773546520056,-0.30950171365556145,-0.386700307234822
1.695065975189209,0.02772410213947296,-0.013234913349151611,-0.039124369621276855,-3.669924259185791,-0.14426769316196442,-0.48315635323524475,-1.3665944817702913,-0.3827953038315813,-0.46029343327741423
1.7031497955322266,0.01724063605070114,-0.0738525390625,0.0003960132598876953,-3.8723397254943848,-0.11899962276220322,-0.5619797110557556,-1.398620566861496,-0.4931992893261644,-0.5712777895028562
1.7132089138031006,0.0022754967212677,-0.07480812072753906,0.02041376382112503,-4.010379314422607,-0.10313703864812851,-0.6184291243553162,-1.4286079944334655,-0.6619162240169713,-0.7409390154144144
1.7231907844543457,-0.00035894662141799927,-0.044545114040374756,0.012253940105438232,-4.134148120880127,-0.06831962615251541,-0.6888207197189331,-1.4528021198189225,-0.9203011381761566,-1.0006695661493834
1.7334318161010742,0.008369684219360352,-0.04113501310348511,-0.00632697157561779,-4.17032527923584,-0.04622684046626091,-0.6275945901870728,-1.4659075154881263,-1.282119414366544,-1.3640787514234725
1.7450590133666992,0.022496767342090607,0.022109687328338623,-0.018215060234069824,-3.865455389022827,-0.01867564022541046,-0.524243175983429,-1.4640576410074913,-1.6690279278999314,-1.7528166453673397
1.753206729888916,0.04537084698677063,0.07745349407196045,-0.05601942539215088,-3.2594103813171387,-0.026938896626234055,-0.4730128049850464,-1.4503261745748015,-1.9642146700800929,-2.0496581753073304
1.7632668018341064,0.05041131377220154,0.073885977268219,-0.09815836697816849,-2.6186201572418213,-0.04690434783697128,-0.4059617221355438,-1.4326692631583984,-2.14838602940871,-2.2349362717308434
1.7732717990875244,0.03150467574596405,0.12372422218322754,-0.10626782476902008,-2.268089771270752,-0.06647459417581558,-0.3409097492694855,-1.4152325241113912,-2.265658350592729,-2.3529301808365934
1.7832999229431152,0.030321046710014343,0.12517833709716797,-0.1090705618262291,-2.195819139480591,-0.06412909924983978,-0.26158443093299866,-1.3980248326386366,-2.3538678774446655,-2.4415954494047956
1.7944159507751465,0.0495196133852005,0.05392485857009888,-0.08630302548408508,-2.237292766571045,0.24695102870464325,-0.28390517830848694,-1.3800179894051066,-2.4247928059023325,-2.514231344104768
1.8032870292663574,0.022750183939933777,-0.03933429718017578,-0.060037627816200256,-2.2028558254241943,-0.07367147505283356,-0.36052635312080383,-1.3606922509727686,-2.4826401082332197,-2.574083457891444
1.8132288455963135,-0.03486710786819458,-0.06604373455047607,-0.02466416358947754,-1.9077906608581543,-0.10117553919553757,-0.32843899726867676,-1.3420073363202987,-2.525576754792081,-2.617442028378661
1.8235688209533691,0.06207442283630371,3.8743019104003906e-05,-0.04715558886528015,-1.7248862981796265,-0.10961376130580902,-0.18852795660495758,-1.3255166391478275,-2.560551941361384,-2.6523362214120434
1.833345890045166,0.10661280155181885,0.11197096109390259,-0.10979422926902771,-1.4976191520690918,-0.06393256038427353,-0.1758134961128235,-1.3110071085452109,-2.589035386166594,-2.680734679831031
1.844404697418213,0.060249775648117065,0.09418559074401855,-0.1281641721725464,-1.3298169374465942,-0.032063793390989304,-0.11560656130313873,-1.2978807693880121,-2.611954217780593,-2.703984062898795
1.8533086776733398,0.045232877135276794,0.06700789928436279,-0.12420499324798584,-1.0620205402374268,-0.026940137147903442,-0.03617538884282112,-1.287166429041769,-2.630697004229712,-2.7231322973172443
1.863386869430542,0.06307893991470337,0.10170549154281616,-0.11502394080162048,-0.7692462205886841,-0.05015185475349426,-0.009961787611246109,-1.2790495419666472,-2.645467520394621,-2.738165264219308
1.8733339309692383,0.06512722373008728,0.11687082052230835,-0.08475622534751892,-0.590609073638916,-0.059001535177230835,0.003672531573101878,-1.2730680398319911,-2.6563381622317896,-2.7489224801472676
1.8833918571472168,0.0586404949426651,0.0850563645362854,-0.039523929357528687,-0.4266570806503296,-0.05485188588500023,0.008078837767243385,-1.2685750586842777,-2.6647413639693536,-2.757147672172726
1.8943958282470703,0.048785433173179626,0.05280780792236328,-0.0058998167514801025,-0.29261088371276855,-0.09994159638881683,0.04251537472009659,-1.265434378467083,-2.6714134353404675,-2.7633357711075854
1.903390884399414,0.04423078894615173,0.06788331270217896,0.009641528129577637,-0.2189198136329651,-0.12657290697097778,0.06554362177848816,-1.2635626850422195,-2.677487219736299,-2.7685029850557004
1.9133567810058594,0.05453751981258392,0.07315444946289062,-0.011932283639907837,-0.2853984534740448,-0.1261366754770279,0.07165451347827911,-1.2616286018849225,-2.6842392756298077,-2.7742677846993824
1.923414707183838,0.040676191449165344,0.02948814630508423,-0.01945197582244873,-0.3148900270462036,-0.15099741518497467,0.07049587368965149,-1.2592164166145068,-2.6918195835494276,-2.780808148823763
1.9336109161376953,0.02513127028942108,-0.0010054707527160645,-0.013438105583190918,-0.40190351009368896,-0.17522312700748444,0.05918436869978905,-1.2563141584571178,-2.6999341502885583,-2.787566818758677
1.9447658061981201,0.023722082376480103,-0.011465311050415039,-0.03566300868988037,-0.5815749764442444,-0.13585388660430908,0.06663455814123154,-1.2521720841831008,-2.709643329002632,-2.796134520607128
1.9535408020019531,0.017224088311195374,-0.009641945362091064,-0.08749839663505554,-0.6639143228530884,-0.13907551765441895,0.022155774757266045,-1.2465937981629853,-2.720065892298552,-2.8057124320445417
1.9634857177734375,0.0032217949628829956,-0.01693958044052124,-0.06923645734786987,-0.5941076874732971,-0.17366407811641693,0.017427118495106697,-1.2408594540542734,-2.7296595754293027,-2.814203822713923
1.9737188816070557,0.007195234298706055,0.007424116134643555,-0.02846848964691162,-0.4917354881763458,-0.20235244929790497,0.029529321938753128,-1.235962657284843,-2.738361098725436,-2.8214390789339596
1.9835457801818848,0.015267714858055115,0.06820595264434814,-0.03434404730796814,-0.4416726529598236,-0.19799257814884186,0.013783009722828865,-1.2318362355686527,-2.746186526093915,-2.827575916696848
1.994379997253418,0.0060163140296936035,0.06415295600891113,-0.03727555274963379,-0.4848393201828003,-0.18914635479450226,-0.010575327090919018,-1.2275310517267821,-2.7530406028206382,-2.832808510558562
2.00350284576416,-0.007553175091743469,0.01233750581741333,-0.014824897050857544,-0.4181090295314789,-0.21274498105049133,-0.00597226619720459,-1.223239475880171,-2.7596898068013145,-2.837760636774125
2.0135040283203125,-0.0025371313095092773,0.02341705560684204,0.007488936185836792,-0.2647474408149719,-0.22528153657913208,-0.00673845736309886,-1.2200233367378432,-2.7651908495983624,-2.841251154007088
2.023585796356201,-0.002125754952430725,0.051815807819366455,-0.0024753808975219727,-0.0945422500371933,-0.21024733781814575,-0.0014201246667653322,-1.218333559072442,-2.769097446901112,-2.843073555091843
2.0336647033691406,-0.014882951974868774,0.05763745307922363,-0.018491894006729126,0.0525774210691452,-0.172889843583107,0.006413829512894154,-1.2181775012654434,-2.7712567365387435,-2.8433299461006585
2.0445868968963623,-0.02167779952287674,0.05556231737136841,-0.03734999895095825,0.1687343865633011,-0.15021729469299316,0.009075659327208996,-1.2192832951059054,-2.7719071848608263,-2.8423214426838577
2.053689956665039,-0.015838727355003357,0.0558508038520813,-0.026564866304397583,0.23980510234832764,-0.12862758338451385,0.01559933926910162,-1.2212874928031012,-2.771561380725753,-2.8404777900202274
2.0635666847229004,-0.011457428336143494,0.0447993278503418,0.026945531368255615,0.19010530412197113,-0.10814595967531204,0.006911574862897396,-1.2233548948250144,-2.770927314135164,-2.838518365710786
2.0736327171325684,-0.014835305511951447,0.02927863597869873,0.049801260232925415,0.04719821736216545,-0.04934176430106163,-0.020377036184072495,-1.2245300774947485,-2.770258934473239,-2.836958613905593
2.083650827407837,-0.024169407784938812,-0.004625439643859863,0.049248963594436646,-0.08572722226381302,-0.009018974378705025,-0.03646210581064224,-1.2241678111468637,-2.770057792646336,-2.8364563068266335
2.094482898712158,-0.02830582857131958,-0.02896493673324585,0.06600800156593323,-0.1138339564204216,0.007215922232717276,-0.04588490352034569,-1.2230068647695065,-2.770060572713896,-2.8364531027450766
2.103712797164917,-0.019145026803016663,-0.019075095653533936,0.06434795260429382,-0.020397137850522995,0.028128083795309067,-0.03879445046186447,-1.2221952584723432,-2.7694745567830075,-2.836030513004416
2.1137118339538574,-0.01208581030368805,0.008656203746795654,0.031148403882980347,0.1296088695526123,0.04021483659744263,-0.02699184976518154,-1.2225794921251696,-2.7677342724486924,-2.8345483892842025
2.1236798763275146,-0.010094739496707916,0.03503572940826416,0.006932705640792847,0.27082329988479614,0.050437428057193756,-0.007663266733288765,-1.2244263272124716,-2.7647849100768216,-2.831886030087002
2.1338179111480713,-0.004220589995384216,0.039552271366119385,0.002505749464035034,0.3363695740699768,0.06347014009952545,0.006716737989336252,-1.2272691654539856,-2.761006894118466,-2.828492359681232
2.1445508003234863,0.00016021728515625,0.015992045402526855,0.0038860738277435303,0.358651340007782,0.05608101934194565,-0.01098588015884161,-1.2305022287943552,-2.7567068495134674,-2.8245801018004313
2.153657913208008,-0.0036286264657974243,-0.011614739894866943,0.026550650596618652,0.25695347785949707,0.053234633058309555,-0.02467159926891327,-1.233129080399643,-2.7524475056966473,-2.820608132743497
2.163794994354248,-0.004013672471046448,-0.034404754638671875,0.04257619380950928,0.10397541522979736,0.06564661115407944,-0.025295471772551537,-1.2343550478252336,-2.7495217191504295,-2.818102298319776
2.173877716064453,-0.00010100007057189941,-0.04068195819854736,0.03275191783905029,0.017676478251814842,0.0740446224808693,-0.038636840879917145,-1.234187694110138,-2.7477478072335786,-2.8169183650158556
2.183866024017334,-0.0011865794658660889,-0.04800212383270264,0.01369333267211914,-0.012805880047380924,0.07695434987545013,-0.03377518802881241,-1.2335756056575895,-2.746432994211997,-2.8162807054385928
2.194636821746826,-0.0016270726919174194,-0.03677481412887573,0.0013557970523834229,-0.011285481043159962,0.07594101876020432,-0.04202379658818245,-1.2330783946410602,-2.745020595295169,-2.8155759162669463
2.203786849975586,0.0015985071659088135,-0.017940938472747803,-0.0032813549041748047,0.021734854206442833,0.06768636405467987,-0.027057204395532608,-1.2329263240780846,-2.74338478219644,-2.814610415832673
2.213751792907715,0.002827271819114685,-0.014258623123168945,-0.00367090106010437,0.06864164024591446,0.05663451552391052,-0.01876598410308361,-1.233280261439326,-2.741684645501389,-2.813472175109395
2.2238550186157227,0.007056429982185364,-0.0057173967361450195,-0.01038980484008789,0.08387012779712677,0.05568057298660278,-0.0173846036195755,-1.2339367227479823,-2.7398806059256473,-2.812138832491251
2.233881950378418,0.006020277738571167,-0.01066279411315918,-0.006196260452270508,0.08085490018129349,0.05425658077001572,-0.01329132542014122,-1.2343572980343418,-2.7383600974404314,-2.811079072534728
2.244917869567871,0.006780967116355896,-0.017630934715270996,0.001178145408630371,0.07489998638629913,0.049871284514665604,-0.0163065567612648,-1.2345265748547936,-2.737105053531762,-2.81022408974433
2.2537858486175537,0.009669944643974304,-0.017589926719665527,-0.0021244287490844727,0.05703257396817207,0.05617019161581993,-0.021499719470739365,-1.234541074059086,-2.735963379205558,-2.809514978820699
2.2638397216796875,0.009862691164016724,-0.014105439186096191,-0.0018925070762634277,-0.0013178688241168857,0.06477268785238266,-0.02572898007929325,-1.2342938417475207,-2.7348776739777834,-2.808945633935971
2.2738137245178223,0.008711710572242737,-0.017302334308624268,0.005223333835601807,-0.028055207803845406,0.0688348114490509,-0.05275820195674896,-1.2337634516333802,-2.733541303881563,-2.8082312869364476
2.2838099002838135,0.010895505547523499,-0.025968730449676514,0.01896682381629944,0.006708099972456694,0.05414801090955734,-0.04738367348909378,-1.2333923830190374,-2.7318323897400982,-2.8070467872064255
2.294585704803467,0.01754799485206604,0.0008419156074523926,0.022088587284088135,0.03906470537185669,0.051455553621053696,-0.039842668920755386,-1.2334360055334932,-2.7299698661143337,-2.805615597920332
2.303776741027832,0.021752551198005676,0.031320810317993164,0.007271170616149902,0.05627192184329033,0.05279645696282387,-0.03698669373989105,-1.2338288233693446,-2.727940508581979,-2.804008512609343
2.3137028217315674,0.015615999698638916,0.022871673107147217,0.0048607587814331055,0.04876873269677162,0.06270740926265717,-0.02523895725607872,-1.234231575657,-2.726080159621946,-2.8026268481178858
2.323853015899658,0.016780123114585876,0.0036891698837280273,-0.006077617406845093,0.032174043357372284,0.05870787426829338,-0.02765657566487789,-1.2344236237166963,-2.724559998812665,-2.8016426643971535
2.3339109420776367,0.015896067023277283,-0.006556451320648193,-0.011276155710220337,0.045470673590898514,0.052351176738739014,-0.02308099903166294,-1.2346291493016783,-2.7232324309873275,-2.8007907783288255
2.3445987701416016,0.013853847980499268,-0.011406958103179932,-0.005630850791931152,0.04319966584444046,0.04696155712008476,-0.02220098301768303,-1.2349015221566324,-2.7219146965784935,-2.7998849696239168
2.3539578914642334,0.015599861741065979,-0.01585906744003296,-0.01485469937324524,0.08625206351280212,0.031753577291965485,-0.007092604413628578,-1.2352612541967045,-2.7208739801583226,-2.7991532523810387
2.363931894302368,0.017912760376930237,-0.007997334003448486,-0.009161949157714844,0.12559200823307037,0.021270843222737312,-0.008268656209111214,-1.2358077834698218,-2.7199391727568187,-2.7983395309928545
2.3739898204803467,0.017554089426994324,-0.0014301538467407227,-0.007708162069320679,0.13199983537197113,0.012990009970963001,-0.002909044735133648,-1.2367195162150604,-2.7189400961580357,-2.7973711846544207
2.3840599060058594,0.012678653001785278,-0.004230320453643799,-0.00880703330039978,0.0815066546201706,0.02226770855486393,0.003128021489828825,-1.237768643349782,-2.7180628069159143,-2.7965438582986737
2.3945858478546143,0.010660409927368164,-0.01033008098602295,-0.01257738471031189,0.03379106521606445,0.03401811048388481,0.001371400780044496,-1.2383178007193054,-2.717616616271547,-2.7963428199717573
2.403989791870117,0.009455189108848572,-0.015978872776031494,-0.018519848585128784,0.04552518576383591,0.02967742085456848,-0.009933771565556526,-1.2387012629840544,-2.7170620629274396,-2.796057367565949
2.4139819145202637,0.008805543184280396,-0.010456204414367676,-0.008545845746994019,0.11151645332574844,0.01408914104104042,-0.01603880152106285,-1.2394540964212637,-2.71579341617874,-2.794927891047088
2.423999786376953,0.01106269657611847,0.007904291152954102,-0.0024787187576293945,0.16047732532024384,-0.005045271944254637,-0.00861167162656784,-1.2406624781638638,-2.714042377240108,-2.7930840846046703
2.4341039657592773,0.01396244764328003,0.025225520133972168,-0.0016148686408996582,0.12212007492780685,-0.014901097863912582,-0.012987244874238968,-1.2420705480554028,-2.7123156434863227,-2.7911109303914756
2.4455108642578125,0.011937648057937622,0.017922818660736084,-0.005949467420578003,0.05197644233703613,0.0010262029245495796,-0.023791369050741196,-1.2428078832779426,-2.711255520653996,-2.789871886424848
2.454162836074829,0.006176888942718506,-0.014004111289978027,-0.01265871524810791,0.01713510788977146,0.0012946496717631817,-0.039432115852832794,-1.2430142303956249,-2.710274163283802,-2.7888271261499042
2.4641098976135254,0.004811704158782959,-0.030432820320129395,-0.012697219848632812,0.0040426249615848064,-0.007876434363424778,-0.03908132389187813,-1.2429987064954664,-2.7093282759105057,-2.7877543070855406
2.4740169048309326,0.012351453304290771,-0.007801055908203125,-0.006426900625228882,-0.05429551750421524,0.005291565787047148,-0.024872560054063797,-1.242705444534225,-2.7089371914063434,-2.7873046611185166
2.4841527938842773,0.015000328421592712,0.01222240924835205,-0.015772879123687744,-0.048762932419776917,0.01962319016456604,-0.03354237601161003,-1.2422203061821941,-2.7087301360214653,-2.787218763804026
2.4945619106292725,0.011424422264099121,0.013276159763336182,-0.010579496622085571,0.013578738085925579,0.022944949567317963,-0.03859572485089302,-1.2419332603074853,-2.70788736534701,-2.7865414843253378
2.504135847091675,0.013925120234489441,0.02432382106781006,-0.008466094732284546,0.08258070796728134,0.025250714272260666,-0.032421451061964035,-1.2423111019067477,-2.706285220048284,-2.7850749658106926
2.5140976905822754,0.016812264919281006,0.04991251230239868,-0.009154558181762695,0.14193004369735718,0.038422975689172745,-0.034655842930078506,-1.2433537596259552,-2.7039036582998857,-2.7828653779901535
2.5241270065307617,0.01311531662940979,0.0542488694190979,-0.001062631607055664,0.1721118539571762,0.0564965195953846,-0.03799901530146599,-1.2447709626097114,-2.70058651250015,-2.7798393452939516
2.53446888923645,0.009366557002067566,0.03705143928527832,0.005303233861923218,0.2048780620098114,0.08327247947454453,-0.044245991855859756,-1.2463490515405293,-2.6963927257595373,-2.7761530202786338
2.5458106994628906,0.008513689041137695,0.03214317560195923,-0.0004302561283111572,0.28092220425605774,0.10694637894630432,-0.04793446883559227,-1.2483011453606472,-2.691193191222351,-2.7716682208071943
2.5542988777160645,0.0075217485427856445,0.035909056663513184,-0.006374388933181763,0.40778616070747375,0.12227606773376465,-0.0506916381418705,-1.251163978107685,-2.684413781078827,-2.765721503159863
2.5644478797912598,0.011064201593399048,0.041838228702545166,-0.004277676343917847,0.5288296937942505,0.1248403787612915,-0.05498620122671127,-1.255240825851058,-2.6755072094338446,-2.757636933793701
2.5742788314819336,0.012537598609924316,0.05040782690048218,-0.008203655481338501,0.7208393216133118,0.13067269325256348,4.9354275688529015e-05,-1.2605631947988818,-2.664919655610856,-2.7478363258434864
2.5842957496643066,0.014603674411773682,0.08170068264007568,-0.001489490270614624,1.0785648822784424,0.1142784133553505,0.03302977979183197,-1.2686221047821535,-2.6512852558180318,-2.7348349512333217
2.5952088832855225,0.021064862608909607,0.1202777624130249,-0.01740613579750061,1.3856606483459473,0.1104477271437645,0.04893657565116882,-1.279678056137841,-2.632036773392745,-2.7158551367024506
2.6042768955230713,0.01971215009689331,0.12508857250213623,-0.03765694797039032,1.6807152032852173,0.1387326568365097,0.08268819749355316,-1.2933172929389847,-2.606593356540068,-2.6906431631963006
2.614240884780884,0.021802276372909546,0.13480526208877563,-0.053144946694374084,2.1549577713012695,0.2234044075012207,0.18705083429813385,-1.3100300206128093,-2.5726536013268464,-2.6572446438760453
2.624917984008789,0.022188261151313782,0.14155346155166626,-0.0401759147644043,3.0376436710357666,0.19705626368522644,0.2685653865337372,-1.3331541170013377,-2.52064200124788,-2.605945016314076
2.635025978088379,0.004838734865188599,0.1665259599685669,0.05338142812252045,3.329211473464966,0.182633638381958,0.300592303276062,-1.3601618027506175,-2.4419889149735443,-2.527067148759249
2.6461498737335205,-0.03200189769268036,0.20950567722320557,0.14029325544834137,3.5646398067474365,0.2825576961040497,0.4000885784626007,-1.3878932324408717,-2.3341267989870778,-2.419489471182446
2.654232978820801,-0.02103284001350403,0.12619870901107788,0.11112428456544876,3.7128067016601562,0.29805275797843933,0.33413246273994446,-1.413942551647643,-2.180390076844021,-2.2665441477955226
2.6643738746643066,9.514391422271729e-05,-0.024484455585479736,0.08599209785461426,3.9912939071655273,0.2968638241291046,0.32928603887557983,-1.4353334098205166,-1.9580520318416696,-2.044848960124646
2.6744558811187744,0.018881767988204956,-0.022676527500152588,0.05641210079193115,4.298072814941406,0.31037482619285583,0.33997172117233276,-1.4483268849197168,-1.6478120599688382,-1.735129425375974
2.684569835662842,0.024313442409038544,0.039180755615234375,0.039329465478658676,4.637012004852295,0.33371540904045105,0.3838197588920593,-1.447100172869544,-1.2803749793120616,-1.3681920252972604
2.6957998275756836,0.013978593051433563,0.07203298807144165,0.060277827084064484,5.070583343505859,0.34997907280921936,0.4797801077365875,-1.4289982558162908,-0.9351968466284613,-1.023499134605317
2.7043848037719727,0.010534927248954773,0.09452396631240845,0.07828457653522491,5.546707630157471,0.35800984501838684,0.5496769547462463,-1.395467532186873,-0.6692809909033469,-0.7578643652729926
2.7143568992614746,0.0009305775165557861,0.10897976160049438,0.10905441641807556,5.954441547393799,0.351310670375824,0.5968753099441528,-1.3500625726663271,-0.4845626338331453,-0.5731742707622165
2.7243757247924805,-0.020607970654964447,0.11103099584579468,0.1521829068660736,6.227797508239746,0.37132832407951355,0.6372215747833252,-1.2967519118000868,-0.3594319581300867,-0.4478729408492281
2.734823703765869,-0.03707374632358551,0.10155421495437622,0.19743558764457703,6.36981201171875,0.41733628511428833,0.6756579279899597,-1.2387173658755792,-0.2726493891060252,-0.36113341558569867
2.746218681335449,-0.05172955244779587,0.08462750911712646,0.22728610038757324,6.388528347015381,0.44240835309028625,0.6918544769287109,-1.1781965404382184,-0.21024605002428173,-0.29908984981857517
2.754539966583252,-0.055541351437568665,0.04270356893539429,0.24948066473007202,6.17706823348999,0.4132049083709717,0.6178534626960754,-1.1173944519350127,-0.16535111443344985,-0.2545369327053011
2.7643327713012695,-0.04926041513681412,-0.027523279190063477,0.2600003182888031,5.712514877319336,0.4694932997226715,0.5055366158485413,-1.059191600491914,-0.13328150308882364,-0.22336167106239144
2.7742958068847656,-0.04509735852479935,-0.061468422412872314,0.25317132472991943,5.091916084289551,0.5103983283042908,0.43239742517471313,-1.006122669102431,-0.10978423032087951,-0.20165501640691766
2.7847046852111816,-0.04053035378456116,-0.05978792905807495,0.2352721095085144,4.517096042633057,0.5639599561691284,0.4281758666038513,-0.9586906067810859,-0.0906746525810595,-0.18520059395854996
2.7956619262695312,-0.03756111115217209,-0.052272260189056396,0.21192055940628052,4.062658786773682,0.6322793364524841,0.4112725257873535,-0.9162356435891621,-0.07414000422985259,-0.17215261836106785
2.8045148849487305,-0.04571585729718208,-0.025217890739440918,0.20973384380340576,3.6879467964172363,0.61335688829422,0.3780025839805603,-0.8779319925500574,-0.05970893969399106,-0.16171762547494914
2.8145318031311035,-0.04761558026075363,-0.0009065866470336914,0.20557504892349243,3.548332452774048,0.5743505954742432,0.39507874846458435,-0.8420481499788357,-0.04702331398387432,-0.15285846242244777
2.8245248794555664,-0.023381873965263367,-0.002089977264404297,0.16836190223693848,3.435875654220581,0.5145373344421387,0.36790892481803894,-0.8072397711813228,-0.03581377264752025,-0.14502465770039588
2.8345947265625,-0.01065484993159771,-0.021353423595428467,0.1248287558555603,3.2919633388519287,0.47621017694473267,0.3060913681983948,-0.773651714770345,-0.02638270770928751,-0.13872391480952084
2.8444509506225586,-0.020023036748170853,-0.01632601022720337,0.10519814491271973,3.1739649772644043,0.47632741928100586,0.28592798113822937,-0.7414021462060288,-0.018202963590727796,-0.13372606215461183
2.8545258045196533,-0.03228120878338814,0.01383519172668457,0.08855009078979492,3.1196112632751465,0.4455024003982544,0.30847057700157166,-0.7099542248453637,-0.010511398001606682,-0.12912861595087977
2.864565849304199,-0.039882589131593704,0.05314528942108154,0.07531863451004028,3.0530829429626465,0.42209285497665405,0.29186883568763733,-0.6790682147576051,-0.0034563083093908866,-0.12491224904581548
2.8745837211608887,-0.04181574285030365,0.052506864070892334,0.07775849103927612,3.0014326572418213,0.3783280849456787,0.2771356999874115,-0.6487628312671285,0.002784864199683561,-0.12128734121657077
2.8851547241210938,-0.031929899007081985,0.03177386522293091,0.07579779624938965,2.9404289722442627,0.3349857032299042,0.27365654706954956,-0.6189497150866912,0.008272154363749559,-0.1180549636912389
2.8955769538879395,-0.016022536903619766,0.03207141160964966,0.07642930746078491,2.7839601039886475,0.29020440578460693,0.26425132155418396,-0.5901928622709588,0.013040781762657114,-0.11515672833271434
2.904634952545166,-0.011228866875171661,0.0322151780128479,0.08140790462493896,2.5230748653411865,0.26688435673713684,0.26168909668922424,-0.5635326346143172,0.017254379548965956,-0.11249329240461821
2.914583683013916,-0.01150146871805191,-0.008237123489379883,0.07608675956726074,2.224440813064575,0.2865685820579529,0.23349608480930328,-0.5397228414135179,0.02127071524691778,-0.1100829900927832
2.924582004547119,-0.022875463590025902,-0.052179425954818726,0.05603480339050293,1.9975336790084839,0.341793030500412,0.21168863773345947,-0.518578157307119,0.02539217270857731,-0.10808185365746607
2.9346888065338135,-0.04369480907917023,-0.06167301535606384,0.04239886999130249,1.8837040662765503,0.3705165386199951,0.1912752389907837,-0.4992034607981293,0.029838046220767276,-0.10636806658529413
2.9462499618530273,-0.044045984745025635,-0.03845572471618652,0.04037916660308838,1.9084864854812622,0.355901300907135,0.2015259563922882,-0.4802594959565944,0.034186169623091324,-0.10487020830101985
2.954742908477783,-0.03001013770699501,0.0022725164890289307,0.04142123460769653,2.0655014514923096,0.3485507071018219,0.24447663128376007,-0.46036605886878484,0.038480272239309624,-0.10318155986750044
2.964695930480957,-0.012175250798463821,0.039769381284713745,0.0338096022605896,2.3162667751312256,0.34881314635276794,0.28675776720046997,-0.43833622976218556,0.04283246827517053,-0.10121679217120644
2.974699020385742,0.0004155077040195465,0.07019755244255066,0.018094182014465332,2.597350597381592,0.3297446370124817,0.33438920974731445,-0.41361790754912053,0.04715600998037003,-0.09902837841757552
2.9847888946533203,0.005015682429075241,0.08737269043922424,0.014678776264190674,2.7963147163391113,0.30298545956611633,0.36549943685531616,-0.3864213936072367,0.0512266742639035,-0.09665712516895075
2.9955809116363525,0.007852047681808472,0.08439522981643677,0.027083635330200195,2.856912136077881,0.29879897832870483,0.3709392249584198,-0.3578233171271417,0.05508035227232302,-0.09431310653598916
3.0047378540039062,0.009185321629047394,0.06380096077919006,0.042415499687194824,2.7849223613739014,0.32399192452430725,0.3795604705810547,-0.32935917427440226,0.058941086398950016,-0.09204989813408067
3.0153307914733887,0.008295752108097076,0.03218242526054382,0.0597262978553772,2.59515643119812,0.36108577251434326,0.40626850724220276,-0.3021679502840379,0.06311563710975186,-0.08965316798356684
3.024709701538086,0.004701405763626099,0.015304863452911377,0.07324153184890747,2.339510917663574,0.3759653866291046,0.41800543665885925,-0.27721853633039356,0.06758468015010997,-0.08701894506065423
3.035593032836914,0.004408247768878937,0.006004512310028076,0.09916478395462036,2.0346832275390625,0.37247025966644287,0.38191214203834534,-0.2550369050448553,0.07200115012387545,-0.0844360007402814
3.044672966003418,0.008895143866539001,-0.04221838712692261,0.12025576829910278,1.7360504865646362,0.3878639340400696,0.3529163599014282,-0.23597654457554543,0.07636197808439196,-0.08213165474842418
3.054694890975952,0.01381286233663559,-0.06712247431278229,0.11699265241622925,1.522014856338501,0.4096672236919403,0.3650955259799957,-0.2195160932084007,0.08088057677321221,-0.07976287382677631
3.0646278858184814,0.014499746263027191,-0.039337173104286194,0.1027073860168457,1.4143272638320923,0.3976554572582245,0.36484411358833313,-0.20457970178197715,0.08548342129221684,-0.07726552100850843
3.0749118328094482,0.00967569649219513,-0.013357028365135193,0.08876591920852661,1.3454182147979736,0.3476034700870514,0.34033265709877014,-0.19053326369101672,0.08969105099996497,-0.07488992181747874
3.0847907066345215,0.010840438306331635,-0.005727589130401611,0.07189595699310303,1.278833270072937,0.30397430062294006,0.3166723847389221,-0.17713908322209274,0.09332262559386412,-0.07278286513136097
3.095627784729004,0.019069552421569824,-0.005323737859725952,0.04945331811904907,1.1706793308258057,0.28406476974487305,0.29395854473114014,-0.16460495560250088,0.09656508479779884,-0.07087375441074172
3.1046457290649414,0.019087933003902435,-0.0008647441864013672,0.03184729814529419,1.0276901721954346,0.2933700978755951,0.2705627679824829,-0.1533511710307791,0.09972289896029449,-0.0691274941887034
3.1146979331970215,0.00686703622341156,-0.008469998836517334,0.023946642875671387,0.8777432441711426,0.32645589113235474,0.2553121745586395,-0.14359131377394216,0.10306235296746959,-0.06745947014959344
3.1246190071105957,-0.011487573385238647,-0.02405768632888794,0.02815401554107666,0.7604796886444092,0.37234944105148315,0.247584730386734,-0.13518695550592758,0.10679434236402285,-0.06579614356643194
3.1407647132873535,-0.02727840095758438,-0.028715401887893677,0.032774150371551514,0.6779525876045227,0.40958017110824585,0.23800747096538544,-0.12780275046366543,0.11094348705717708,-0.06412328302707092
3.1466479301452637,-0.03736569732427597,-0.02246958017349243,0.037831664085388184,0.6643238067626953,0.43154802918434143,0.22098012268543243,-0.12089321711149384,0.11535028904890456,-0.06258529505771533
3.154660701751709,-0.039895348250865936,-0.010387659072875977,0.03080075979232788,0.6407204866409302,0.4265490174293518,0.21555553376674652,-0.11415113447646671,0.11983253649472769,-0.06118370065460558
3.164714813232422,-0.03400619328022003,0.014449022710323334,0.015951454639434814,0.6177971363067627,0.39839762449264526,0.19229234755039215,-0.10764605887840926,0.12412195933091005,-0.05989419901669117
3.174759864807129,-0.023693352937698364,0.022515378892421722,0.01221698522567749,0.6006519794464111,0.3673560917377472,0.15302403271198273,-0.10139187598904495,0.12804646330392536,-0.05895054564468019
3.184931755065918,-0.020568519830703735,0.0022437497973442078,0.008675456047058105,0.5624046921730042,0.3655763566493988,0.1263742744922638,-0.09537401493460229,0.13177609325656156,-0.05831440438886076
3.195016860961914,-0.02563302218914032,0.003528013825416565,-0.0007078647613525391,0.48912304639816284,0.3672653138637543,0.08976086229085922,-0.09000786797066229,0.1354804262524535,-0.057939729993711754
3.20493483543396,-0.03333759307861328,0.02051578462123871,-0.009401321411132812,0.39807674288749695,0.354940265417099,0.05126572400331497,-0.0854997015816861,0.13910478687731528,-0.05785138045840929
3.2148547172546387,-0.03485292196273804,0.008592426776885986,-0.006096541881561279,0.2968875467777252,0.33225226402282715,0.007771509699523449,-0.08199940986339588,0.14253218265886697,-0.05803830537280178
3.2246899604797363,-0.02774353325366974,-0.00991799682378769,0.0010388493537902832,0.18521589040756226,0.3100486695766449,-0.029028795659542084,-0.07962807017251751,0.14570765876244823,-0.05850022164783526
3.2349820137023926,-0.025807902216911316,-0.01127895712852478,0.002733945846557617,0.10724226385354996,0.30075743794441223,-0.04242316260933876,-0.07828403413556378,0.14871154731149158,-0.05907611661080673
3.2454609870910645,-0.02592189610004425,-0.0007255151867866516,0.004206180572509766,0.07015088200569153,0.2899300158023834,-0.04363085702061653,-0.0774785186949096,0.15163491640409657,-0.05964204333932872
3.2549219131469727,-0.025131627917289734,0.015135399997234344,-0.0017708539962768555,0.05012524873018265,0.2638973295688629,-0.050087157636880875,-0.07696641917033625,0.15437295802292275,-0.060192511915301644
3.264972686767578,-0.021976426243782043,0.019348032772541046,-0.005806267261505127,0.03390450030565262,0.22098998725414276,-0.06607118248939514,-0.07662851806978528,0.15675789719586727,-0.06083014944406885
3.275017738342285,-0.010207056999206543,0.008361026644706726,-0.012417733669281006,0.009929392486810684,0.1749820113182068,-0.0807124450802803,-0.07652207179912883,0.15868868404648395,-0.06158416028518003
3.2850568294525146,3.191828727722168e-05,0.005499452352523804,-0.01997089385986328,-0.024457493796944618,0.12783879041671753,-0.09746719151735306,-0.07672923115456104,0.16013244696081588,-0.0624567460809853
3.2952699661254883,0.005444720387458801,0.0008069649338722229,-0.022349834442138672,-0.07016079872846603,0.09512131661176682,-0.11225492507219315,-0.07734946122756058,0.16116758500740633,-0.06342138482274316
3.305027961730957,0.007214158773422241,-0.00882265716791153,-0.024129152297973633,-0.1181148961186409,0.07286053150892258,-0.12352754920721054,-0.07846807191643726,0.16192674358798118,-0.06443926758256353
3.3150649070739746,0.008154630661010742,-0.013670086860656738,-0.023067116737365723,-0.14354169368743896,0.050828736275434494,-0.11859351396560669,-0.07997856419459186,0.16246388111756335,-0.06542784400602233
3.3250138759613037,0.01075117290019989,-0.012623414397239685,-0.022998273372650146,-0.1780618578195572,0.023677008226513863,-0.12385458499193192,-0.08176059576374728,0.16276421790462522,-0.06636321823087106
3.33510684967041,0.01269349455833435,-0.007616013288497925,-0.02182239294052124,-0.17436937987804413,0.004713704343885183,-0.129105806350708,-0.08370258873255194,0.16281718234320722,-0.06731744987505023
3.345209836959839,0.015091583132743835,-0.01498837023973465,-0.019826412200927734,-0.17774201929569244,-0.014721378684043884,-0.13747654855251312,-0.08566510410835862,0.16267131678825578,-0.06836069072223207
3.3549609184265137,0.015054762363433838,-0.020692996680736542,-0.020012259483337402,-0.1551261991262436,-0.029652925208210945,-0.1254691481590271,-0.08753151111199997,0.1623628446167412,-0.06940567091829783
3.365027904510498,0.016252845525741577,-0.011456139385700226,-0.0201646089553833,-0.12883970141410828,-0.04824201017618179,-0.1139596700668335,-0.08911932353346506,0.16188110830619684,-0.07036141515055828
3.3750078678131104,0.018478527665138245,-0.008136048913002014,-0.016630589962005615,-0.11462348699569702,-0.057165998965501785,-0.11412664502859116,-0.09030535095810606,0.16126420294980412,-0.07129396859262589
3.385140895843506,0.016264647245407104,-0.021303780376911163,-0.008187830448150635,-0.11763235926628113,-0.05185973644256592,-0.11067700386047363,-0.09133130353758513,0.16065984040483886,-0.07222340589762449
3.3953888416290283,0.013761430978775024,-0.03350778669118881,-0.0046651363372802734,-0.11432764679193497,-0.04750280827283859,-0.09877479821443558,-0.09230896578305035,0.1601163899098221,-0.07307299550132217
3.4050498008728027,0.013036966323852539,-0.03175972402095795,-0.0030599236488342285,-0.10803501307964325,-0.04338205233216286,-0.08877569437026978,-0.09326582146335707,0.1596414428422827,-0.07382675049732043
3.4151220321655273,0.01485462486743927,-0.02833152562379837,0.0019863247871398926,-0.09229706227779388,-0.03763787820935249,-0.07624126225709915,-0.09417511472624757,0.15923418946527684,-0.07447442626059199
3.425062894821167,0.015710443258285522,-0.024166293442249298,0.0037512779235839844,-0.07451105862855911,-0.03790557384490967,-0.0701078474521637,-0.09481927760573129,0.15888559656631485,-0.07506143316215805
3.4351487159729004,0.01669996976852417,-0.02435337007045746,0.0056816935539245605,-0.0501716248691082,-0.03835458308458328,-0.06425714492797852,-0.09516047267884838,0.15853609951053943,-0.07563160612151439
3.445300817489624,0.02041420340538025,-0.020594879984855652,0.0052111148834228516,-0.03565580025315285,-0.03874552994966507,-0.06207628175616264,-0.09538554401972384,0.1581915786799389,-0.07617809338422497
3.455148696899414,0.02090287208557129,-0.01731777936220169,0.004284799098968506,-0.025223402306437492,-0.03673484921455383,-0.06005600467324257,-0.09552706608293465,0.1578828974085159,-0.07671868797673428
3.465197801589966,0.02117358148097992,-0.02059580385684967,0.005277752876281738,-0.024822896346449852,-0.022670693695545197,-0.05702005699276924,-0.0953864786979523,0.1576674758687481,-0.07725006976564429
3.475130796432495,0.020733892917633057,-0.023053832352161407,0.0014898180961608887,-0.028253579512238503,-0.011188739910721779,-0.05057653784751892,-0.09508127587591751,0.15758237499237873,-0.07773418266723443
3.4852137565612793,0.018645524978637695,-0.022111162543296814,0.00019675493240356445,-0.02165077067911625,0.0020367836114019156,-0.049452364444732666,-0.094808775152244,0.15762270312558738,-0.07817888838443601
3.4953858852386475,0.020008623600006104,-0.021823763847351074,0.0033131837844848633,-0.014040255919098854,0.006938065402209759,-0.04616735503077507,-0.09455073557394007,0.157753320866549,-0.07861249136695543
3.505408763885498,0.02146846055984497,-0.018074452877044678,0.0066828131675720215,0.001953741302713752,0.009651515632867813,-0.03608015179634094,-0.09426389673656807,0.1579403391235901,-0.07899170112803951
3.516720771789551,0.022614464163780212,-0.011346802115440369,0.009298980236053467,0.016562778502702713,0.010986825451254845,-0.038686059415340424,-0.09383623602060413,0.15814956398209065,-0.0793603777763087
3.5253748893737793,0.02387884259223938,-0.011622190475463867,0.01194143295288086,0.018930727615952492,0.01410769484937191,-0.03899402543902397,-0.09339251680956816,0.1583933743947615,-0.07976847354293795
3.5356178283691406,0.024449780583381653,-0.010775059461593628,0.009084463119506836,0.018903030082583427,0.011816044338047504,-0.03152652084827423,-0.09300145090574792,0.15864489897368841,-0.08012998857652069
3.545804023742676,0.025391653180122375,-0.0076431408524513245,0.010502934455871582,0.014942077919840813,0.011602015234529972,-0.03074008971452713,-0.09258379964460217,0.15889124199936808,-0.08045776166337816
3.5554327964782715,0.026067599654197693,-0.008927308022975922,0.009919226169586182,0.006969105452299118,0.015019383281469345,-0.027683047577738762,-0.09218780960146207,0.15914455398075425,-0.08075251285054333
3.5654497146606445,0.02271929383277893,-0.01004520058631897,0.011034846305847168,-0.0037163617089390755,0.014279644936323166,-0.025313686579465866,-0.09190067835279385,0.15939536541165006,-0.08101366954426246
3.5754799842834473,0.02107052505016327,-0.008385069668293,0.01381385326385498,-0.009550015442073345,0.020177748054265976,-0.021946119144558907,-0.09170456745250517,0.15968818222092976,-0.08122991904722543
3.586092948913574,0.017389044165611267,-0.007986299693584442,0.01610034704208374,-0.005636633839458227,0.02770952507853508,-0.018418923020362854,-0.09157992578638781,0.1600629970344356,-0.08140498555140448
3.596207857131958,0.013260513544082642,-0.0034315958619117737,0.01648622751235962,-0.010353092104196548,0.0364508181810379,-0.013121095485985279,-0.09154167041621747,0.16053691485217325,-0.08153122276927906
3.6055359840393066,0.00953073799610138,0.001474529504776001,0.01149660348892212,-0.005528909154236317,0.04814697429537773,-0.006528866942971945,-0.09150293056340708,0.16113296567029942,-0.08158811382032624
3.6155099868774414,0.0068896859884262085,-0.0010136142373085022,0.010116517543792725,0.004926128312945366,0.05302854999899864,-0.009441033005714417,-0.09138132153051591,0.16181555056127103,-0.08164613374617953
3.6254467964172363,0.004915803670883179,-0.0018076971173286438,0.00829923152923584,0.0070408121682703495,0.04438827931880951,-0.00880869198590517,-0.09124404508864109,0.16247119225200435,-0.08173037028475909
3.6356048583984375,0.005696937441825867,0.004612542688846588,0.00997227430343628,0.01358872465789318,0.04485539719462395,-0.004123126622289419,-0.09104857501643747,0.16308637419648506,-0.08178688355500383
3.645763874053955,0.00521087646484375,0.00795738399028778,0.011162757873535156,0.015157927758991718,0.04752051457762718,-0.002448104787617922,-0.0907849213011603,0.16370129604562045,-0.08182818759722088
3.6555747985839844,0.00038398802280426025,0.00748087465763092,0.00939100980758667,0.024086974561214447,0.05165986344218254,-0.004070236347615719,-0.09049730981873697,0.1643389227378113,-0.08187594668051067
3.665404796600342,-0.004379004240036011,0.008821792900562286,0.012016534805297852,0.018770070746541023,0.05214251950383186,-0.007189277093857527,-0.09020806536079304,0.16495809339694487,-0.08194764780277365
3.6755847930908203,-0.00792628526687622,0.00712478905916214,0.01052868366241455,0.018651559948921204,0.054332435131073,-0.011090542189776897,-0.09002751063441687,0.16556852089304955,-0.08205614901675834
3.6857378482818604,-0.008332118391990662,0.008868873119354248,0.0058705806732177734,0.026245398446917534,0.05203865468502045,-0.01608860306441784,-0.0898850267924056,0.1661348595816214,-0.0822318646431688
3.69598388671875,-0.006491050124168396,0.015640519559383392,-0.003162682056427002,0.025420352816581726,0.04289841651916504,-0.022064736112952232,-0.08967379697126696,0.1666185849435833,-0.08245515341170792
3.705698013305664,-0.006225153803825378,0.020847655832767487,-0.0074661970138549805,0.016042012721300125,0.03150732442736626,-0.028788898140192032,-0.08951669360692517,0.1669824498238711,-0.08274755779148452
3.7155728340148926,-0.006325259804725647,0.019556045532226562,-0.008810460567474365,0.017617005854845047,0.030046047642827034,-0.037169598042964935,-0.08951128459567985,0.16727072945367233,-0.08310423898668194
3.7255609035491943,-0.00915132462978363,0.016421467065811157,-0.00947493314743042,0.02150377444922924,0.033078812062740326,-0.04461286962032318,-0.08953315176268663,0.16758505804618867,-0.08354450792849621
3.7356789112091064,-0.013085007667541504,0.01858098804950714,-0.014701783657073975,0.02198207750916481,0.023082902655005455,-0.05200260877609253,-0.08954040909530854,0.16781511323117262,-0.08405956631314876
3.745828866958618,-0.014451399445533752,0.021331094205379486,-0.015065789222717285,0.019626561552286148,0.007162214256823063,-0.06571362912654877,-0.08958284236924131,0.16787089161016108,-0.08468456109861268
3.7556138038635254,-0.01088300347328186,0.014941595494747162,-0.013265430927276611,0.019560780376195908,-0.004428395535796881,-0.07594522833824158,-0.08964017303550498,0.16774965172583414,-0.08543729020907642
