timestamp,accel_x,accel_y,accel_z,rotation_x,rotation_y,rotation_z, pitch,roll,yaw
0.04719805717468262,-0.0012370645999908447,-0.012953266501426697,0.003800332546234131,0.012065930292010307,-0.0019451607950031757,-0.012614070437848568,-0.06321202900512966,0.207057728484759,0.006569915988513588
0.06033682823181152,0.0012951493263244629,-0.012482523918151855,0.005203187465667725,0.008966542780399323,-0.007482138462364674,-0.010465165600180626,-0.06313786312681706,0.20701062032238357,0.00643938604248921
0.061463117599487305,0.003465428948402405,-0.012237422168254852,0.006450057029724121,0.005448874086141586,-0.011289393529295921,-0.009431060403585434,-0.06309103375010906,0.20689702544902222,0.0063301019086754425
0.062387943267822266,0.004940390586853027,-0.010001346468925476,0.007496476173400879,-0.002567507093772292,-0.011572487652301788,-0.007575902622193098,-0.0630980193237539,0.20677741815256812,0.0062437053587091704
0.07006382942199707,0.00398661196231842,-0.008275151252746582,0.0065683722496032715,-0.0028950260020792484,-0.00814726296812296,-0.005245423875749111,-0.06314192980625077,0.2066765660652085,0.006190769358022435
0.07853484153747559,0.0031510740518569946,-0.005932830274105072,0.005168795585632324,0.004231060389429331,-0.010911091230809689,-0.009488904848694801,-0.0631494694430977,0.20657914151093926,0.006110934599797845
0.08804202079772949,0.0013883262872695923,-0.0028322339057922363,0.006998598575592041,0.007217862643301487,-0.014429215341806412,-0.010257439687848091,-0.06311582244931215,0.20644628879618573,0.005995189667987905
0.09806704521179199,0.0006126165390014648,-0.00020272284746170044,0.01116400957107544,0.009911383502185345,-0.008559875190258026,-0.009626536630094051,-0.06304966177031968,0.20631791130707958,0.005877343226225691
0.10816502571105957,-0.0025870203971862793,0.0018424689769744873,0.012647628784179688,0.01053890772163868,-0.003791884519159794,-0.0138891926035285,-0.0629726982870183,0.20624957020484694,0.005743473341965565
0.11806988716125488,-0.005984961986541748,0.0005762726068496704,0.010770022869110107,0.007756436709314585,-0.004257671535015106,-0.01597071811556816,-0.06291126429230988,0.20619703564086556,0.005571178558930682
0.12818098068237305,-0.005890935659408569,0.001322522759437561,0.011832654476165771,0.009183191694319248,0.0014426466077566147,-0.019520658999681473,-0.06286682830012334,0.20616268304995863,0.005380490088557628
0.14001202583312988,-0.0066216737031936646,0.002551250159740448,0.01231837272644043,0.009065213613212109,0.00694926455616951,-0.018925176933407784,-0.06281291362815666,0.20619147856830083,0.00518581976343981
0.14841914176940918,-0.00938311219215393,-0.0002937018871307373,0.011132001876831055,0.010152332484722137,0.00894090998917818,-0.013714541681110859,-0.06274330691025937,0.20626826122010153,0.005007798025352597
0.1583390235900879,-0.00786222517490387,-0.0011473745107650757,0.010524868965148926,0.0105893574655056,0.009713226929306984,-0.01605040207505226,-0.06266604062416183,0.20635044272385034,0.004843154777430025
0.16826796531677246,-0.005146324634552002,-0.0016353204846382141,0.010451734066009521,0.007500906474888325,0.009739458560943604,-0.013326359912753105,-0.06260455542233123,0.2064279209437171,0.0046942035862440334
0.1784651279449463,-0.006354272365570068,-0.003921240568161011,0.014311134815216064,-0.00048378342762589455,0.008288568817079067,-0.014164190739393234,-0.06260165206421602,0.20650854856872683,0.004553402255532592
0.18840384483337402,-0.005277916789054871,-0.005765050649642944,0.012664616107940674,-0.0021804498974233866,0.003912994638085365,-0.014618739485740662,-0.06264501100216781,0.20656315295560757,0.004417155750348503
0.19823598861694336,-0.0037468671798706055,-0.004556626081466675,0.01074063777923584,-0.003794059157371521,0.0009829849004745483,-0.01724940910935402,-0.06273375237474138,0.2065434021690494,0.0042687309682244105
0.20827102661132812,-0.0037184804677963257,-0.0031171217560768127,0.011502981185913086,-0.001327339792624116,-0.0001777978613972664,-0.01646558754146099,-0.06283558418033566,0.20651568757723815,0.004110805470143916
0.21828103065490723,-0.0022926032543182373,-0.004762589931488037,0.0073667168617248535,0.003885265439748764,0.004417486488819122,-0.014601374976336956,-0.06292483551891444,0.20649428325773797,0.003951687550396332
0.22842812538146973,-0.004364758729934692,-0.0032048672437667847,0.00466543436050415,0.009631668217480183,0.009877676144242287,-0.014913657680153847,-0.06289293017094366,0.20650637760741372,0.0037867270477113957
0.2383129596710205,-0.006392687559127808,-0.0033953264355659485,0.0007368326187133789,0.011275104247033596,0.01074213907122612,-0.012861691415309906,-0.06280856638542634,0.2065662261820138,0.00362480145841132
0.2484450340270996,-0.004484266042709351,-0.004603147506713867,-0.0011643171310424805,0.009916126728057861,0.010713908821344376,-0.006585367023944855,-0.06270392134305096,0.20664185226803072,0.003501189691578139
0.25844597816467285,-0.0016726404428482056,-0.006882756948471069,0.002489805221557617,0.01569545269012451,0.01327240839600563,-0.0034590819850564003,-0.06254180778770899,0.2067293271296379,0.00341668280075966
0.26854801177978516,-0.00248834490776062,-0.008920330554246902,0.004619181156158447,0.026965351775288582,0.012341100722551346,0.00155101646669209,-0.062274785918258774,0.2068423401773171,0.003373705062535217
0.27846503257751465,-0.0026171356439590454,-0.0085214301943779,0.005471467971801758,0.041546955704689026,0.005654702428728342,0.014868952333927155,-0.06184453834532658,0.20690609279929167,0.0033860715570971944
0.29317593574523926,0.0022414177656173706,-0.0061494410037994385,0.00446319580078125,0.05208190530538559,-0.0007842439226806164,0.010245278477668762,-0.061348439778649295,0.20690888326502824,0.0034066058038797215
0.2993018627166748,0.0051567405462265015,-0.0015505701303482056,0.0004023909568786621,0.06202588602900505,-0.005742783658206463,0.011037569493055344,-0.06070038642516839,0.20688401468749115,0.003394893551680311
0.30858802795410156,0.004745975136756897,-0.002575535327196121,-0.005515694618225098,0.05752520635724068,-0.013169185258448124,0.005161464214324951,-0.06009155243626115,0.20675011219447484,0.003333196037201877
0.3183920383453369,0.0047558993101119995,-0.002316270023584366,-0.0033669471740722656,0.03950652480125427,-0.019286468625068665,0.0026636854745447636,-0.05960253011652578,0.20653075926450534,0.0032684901216955098
0.3285369873046875,0.004675939679145813,-0.0034985095262527466,0.0002586841583251953,0.02170535922050476,-0.022986041381955147,-0.002450702479109168,-0.05927356831177671,0.2062805420529084,0.003204645402866648
0.34081196784973145,0.0005133002996444702,-0.005613204091787338,0.004578113555908203,0.00788861233741045,-0.026120049878954887,-0.010741122998297215,-0.05909914152939247,0.20602544052670194,0.0031083609419701136
0.34868597984313965,-0.0019789040088653564,-0.006471108645200729,0.007009923458099365,0.004945686087012291,-0.02962237410247326,-0.013995186425745487,-0.058980271895278415,0.20573240931864892,0.0029769262916728885
0.3587620258331299,-0.0011262297630310059,-0.004259251058101654,0.00586247444152832,-0.0008759838528931141,-0.03694526478648186,-0.020745234563946724,-0.058919799402437245,0.20538999862988444,0.002803132137417064
0.3687000274658203,0.0005800575017929077,-0.0010885372757911682,0.009455442428588867,-0.005627862177789211,-0.03311936929821968,-0.024320261552929878,-0.05893820834189378,0.2050495208388209,0.002584473781026282
0.37856197357177734,-0.0028128325939178467,-0.00509629026055336,0.012654721736907959,-0.012598685920238495,-0.023206019774079323,-0.021595049649477005,-0.05908574415497199,0.2048071150263788,0.002385576201506691
0.3908250331878662,-0.006526932120323181,-0.007001109421253204,0.011626362800598145,-0.015754615887999535,-0.016349932178854942,-0.019714750349521637,-0.05923606582678353,0.20464359543086066,0.0022217334666415132
0.39868903160095215,-0.006878852844238281,-0.008768711239099503,0.01336437463760376,-0.009221615269780159,-0.009455541148781776,-0.018378376960754395,-0.05937121254861585,0.2045369668704307,0.0020629506668585545
0.4086170196533203,-0.005204677581787109,-0.008035659790039062,0.01640409231185913,0.007399356458336115,0.00024178298190236092,-0.012182213366031647,-0.0593552968609568,0.20452555586676083,0.0019177903613762815
0.41884684562683105,-0.0055314600467681885,-0.004971545189619064,0.014069616794586182,0.015974469482898712,0.005552126094698906,-0.009203467518091202,-0.05917477513228211,0.20457665246981918,0.001788400087145123
0.4286830425262451,-0.00391504168510437,-0.0058919452130794525,0.010563552379608154,0.022846756502985954,0.005342180375009775,-0.008084726519882679,-0.05890451723998732,0.20463681115671964,0.0016713835983401953
0.4405519962310791,0.0005193501710891724,-0.0060587599873542786,0.011166691780090332,0.01926080882549286,0.0027535876724869013,-0.009518838487565517,-0.05864363813627792,0.20467091437419085,0.0015459582180641768
0.4487278461456299,0.003960594534873962,-0.00727490708231926,0.0151175856590271,0.0037297368980944157,0.0018707055132836103,-0.007465701550245285,-0.05853207451974721,0.2047081822819754,0.001448204656447431
0.45871710777282715,0.0013229995965957642,-0.007954556494951248,0.018173158168792725,-0.01671375334262848,0.008247111923992634,-0.007314966060221195,-0.05857092652806059,0.20475326240690614,0.001400915672496751
0.46868205070495605,0.0015192031860351562,-0.009752213954925537,0.015732169151306152,-0.021664701402187347,0.004651401191949844,-0.006977437064051628,-0.058705607224763534,0.20478834200175158,0.0013665487889171686
0.47928786277770996,0.002735123038291931,-0.005804244428873062,0.012701451778411865,-0.021599454805254936,0.0033480501733720303,-0.008596905507147312,-0.05884723828411593,0.20479496927694174,0.0013374174567331487
0.490725040435791,0.003855958580970764,-0.0019195638597011566,0.010950267314910889,-0.013754281215369701,0.004985894076526165,-0.010359864681959152,-0.05896055450560749,0.20482046650563074,0.0012795149355324606
0.49889111518859863,0.0020072907209396362,-0.00020936131477355957,0.010584771633148193,-0.00847909227013588,0.008650137111544609,-0.010237358510494232,-0.05903576467371446,0.20487063581332468,0.001199979288352484
0.5087249279022217,-0.0004348456859588623,-0.001097794622182846,0.012851417064666748,-0.007087424397468567,0.015543818473815918,-0.012797828763723373,-0.05908505016736688,0.2049656551062593,0.0011003989298495071
0.5187938213348389,-0.0020556598901748657,-0.0025117099285125732,0.013059377670288086,-0.0024652418214827776,0.01735609956085682,-0.015420510433614254,-0.05909517581495437,0.2051409935993631,0.0009771274868250713
0.5289080142974854,-0.0027478784322738647,-0.004037827253341675,0.010576009750366211,0.005183057393878698,0.021171167492866516,-0.015147269703447819,-0.059034268673705766,0.20536452177137693,0.0008287191374941867
0.5405938625335693,-0.004006341099739075,-0.0029871128499507904,0.009876072406768799,0.005015544127672911,0.024791467934846878,-0.016398955136537552,-0.05894470146649597,0.2056050367589074,0.0006700529770281635
0.5489909648895264,-0.0034671425819396973,-0.0038223490118980408,0.007801175117492676,0.006923149339854717,0.026647379621863365,-0.014271728694438934,-0.0588184173986251,0.20586367710455397,0.0005020962271884411
0.5589721202850342,-0.0022499114274978638,-0.003484223037958145,0.003656148910522461,0.005121787078678608,0.03017047606408596,-0.011199772357940674,-0.05872426795023158,0.2061627563380106,0.0003672417213071389
0.5689361095428467,-0.00512164831161499,-0.0033430680632591248,0.0016355514526367188,6.732437759637833e-05,0.030239762738347054,-0.009531835094094276,-0.058720434037159784,0.2064937983337895,0.0002664579797147521
0.578855037689209,-0.0038937777280807495,-0.0051188357174396515,-0.001504063606262207,0.00281544029712677,0.0222188550978899,-0.010306015610694885,-0.05874147949992221,0.20676785301483172,0.00016557176202172864
0.5908420085906982,-0.0008968561887741089,-0.005707651376724243,0.0007457137107849121,0.004721364937722683,0.016550760716199875,-0.006450877524912357,-0.05871990846153945,0.20696428674891865,7.17414295972809e-05
0.5989630222320557,0.0009816884994506836,-0.0041222721338272095,0.001376032829284668,0.0028800552245229483,0.01245375256985426,-0.006727047264575958,-0.058675587384432744,0.20710254008057488,1.3199394591842052e-05
0.6090009212493896,0.001143530011177063,-0.0055328235030174255,-0.002937793731689453,0.0023951935581862926,0.004329868592321873,-0.0055192504078149796,-0.05862120298460629,0.2071704936889464,-6.18290815417183e-05
0.6188340187072754,0.0006670355796813965,-0.0074598416686058044,-0.00483471155166626,-0.000495135085657239,-0.006750479806214571,-0.006600759923458099,-0.05859505125172284,0.20712687140203986,-0.0001227650889784451
0.6289808750152588,0.0032362639904022217,-0.005390755832195282,-0.006273031234741211,-0.006974206306040287,-0.01424727775156498,-0.003761084284633398,-0.05860117046752361,0.20699608676611103,-0.00017291306380964598
0.6406810283660889,0.0020565688610076904,-0.004986703395843506,-0.003920435905456543,-0.012256852351129055,-0.018535234034061432,-0.0016622471157461405,-0.05867025991606663,0.20681440893255598,-0.00017756725992665545
0.6489908695220947,0.0020155757665634155,-0.0069467537105083466,-0.0031023621559143066,-0.01474271435290575,-0.020758528262376785,-0.0024973079562187195,-0.058768907145152954,0.20659209676879492,-0.0001627825857901462
0.659041166305542,-0.0009938925504684448,-0.007999338209629059,-0.0001837015151977539,-0.012624169699847698,-0.026417212560772896,0.0015016947872936726,-0.05882977476125372,0.20633091904734582,-0.0001517801156360219
0.6691789627075195,-0.0013054907321929932,-0.007203239947557449,0.0051460862159729,-0.012015786953270435,-0.025444582104682922,0.003613048931583762,-0.05887298439627573,0.20607255851086154,-0.00010829049884765132
0.6792948246002197,-0.0010057836771011353,-0.005946442484855652,0.007020533084869385,-0.01445417758077383,-0.023158526048064232,0.008833910338580608,-0.058928536984241046,0.20584459500920685,-2.921932021152055e-05
0.6899969577789307,-0.002305760979652405,-0.006716452538967133,0.008747696876525879,-0.01878099888563156,-0.016095157712697983,0.011646900326013565,-0.0589967641886854,0.20566112240132042,9.821932124946192e-05
0.6989548206329346,-0.003738716244697571,-0.008134827017784119,0.012082815170288086,-0.014117004349827766,-0.012686842121183872,0.015294631943106651,-0.05902664039338933,0.2055351833779934,0.0002684686544443077
0.7090060710906982,-0.002521514892578125,-0.006992872804403305,0.011684954166412354,-0.010936507023870945,-0.010392574593424797,0.018132496625185013,-0.059044385527661884,0.20546089810124987,0.00046269465700043326
0.7189619541168213,-0.0012216269969940186,-0.0030097737908363342,0.013757824897766113,-0.004897789563983679,-0.004260113462805748,0.022285163402557373,-0.058997974478305314,0.20541053751694946,0.0006664991261778914
0.729132890701294,0.0017753690481185913,-0.0005997605621814728,0.012343287467956543,-0.0037541119381785393,-9.594997391104698e-05,0.023069730028510094,-0.058891850746565305,0.20541842053949944,0.0008881102748263143
0.7411580085754395,0.0019278079271316528,0.001805812120437622,0.008470416069030762,-0.0066079553216695786,-0.0007201950065791607,0.025365907698869705,-0.05879018180965363,0.20543294409184346,0.0011331163781566815
0.7491350173950195,0.0018917322158813477,0.003773685544729233,0.008366107940673828,-0.01306560542434454,0.0026943772099912167,0.019186947494745255,-0.05872955270835142,0.20543787852859435,0.0013782203057783804
0.7590768337249756,0.0026250332593917847,0.0008907653391361237,0.014284193515777588,-0.03590540587902069,0.0024933083914220333,0.02067272551357746,-0.0588661279030302,0.20548549857203846,0.0016203611283297714
0.769212007522583,0.002671286463737488,0.002338554710149765,0.011603951454162598,-0.039146725088357925,0.004568576812744141,0.012834936380386353,-0.05912777974034349,0.20553507417566932,0.0018774512313567105
0.7791268825531006,0.0023839175701141357,0.004841029644012451,0.011322617530822754,-0.026732131838798523,0.004750736989080906,0.002156459726393223,-0.05934174460551713,0.20558196391006447,0.0020193909924813287
0.7911250591278076,-0.0008150190114974976,0.004185091704130173,0.012195885181427002,-0.01147436536848545,0.003983168862760067,0.0009712465107440948,-0.059448552638455,0.2056089871129686,0.002068956725786408
0.7994039058685303,6.258487701416016e-05,0.00923897698521614,0.014391958713531494,-0.016909612342715263,0.00830041989684105,0.00488502811640501,-0.059537034558364885,0.20566450500531203,0.002127735995004052
0.8091850280761719,-0.0004200488328933716,0.013293635100126266,0.010479986667633057,-0.035709530115127563,0.007815280929207802,-0.008219748735427856,-0.05978579955003655,0.20577113852884885,0.002172929116233669
0.8191499710083008,0.002234533429145813,-0.0005914494395256042,0.011186063289642334,-0.0446697361767292,0.015495836734771729,-0.007369667291641235,-0.060243972459893644,0.20591788678747847,0.0021620701147486605
0.8290829658508301,-0.0011476129293441772,-0.012080967426300049,0.013456165790557861,-0.03903425484895706,0.01625732332468033,-0.0027807748410850763,-0.06068693859857469,0.20610545435921537,0.002223382473335189
0.840095043182373,-0.005809769034385681,0.0005205310881137848,0.01104748249053955,-0.02723432146012783,0.014524138532578945,-0.008456237614154816,-0.06104080455445587,0.20629019255951753,0.002232153337803135
0.8492758274078369,-0.0014827698469161987,0.0001681707799434662,0.01019364595413208,-0.02957487478852272,0.009224358946084976,-0.006001761183142662,-0.06133267936101769,0.20642552451062873,0.002220395896407774
0.85990309715271,0.0023763924837112427,-8.59089195728302e-05,0.007732570171356201,-0.01752912998199463,0.017741946503520012,-0.0014110044576227665,-0.061617814764604956,0.20658675682286542,0.0022201566841685066
0.8694760799407959,-0.0021492689847946167,-0.0034638792276382446,0.008207499980926514,-0.012567976489663124,0.014256002381443977,0.004033615346997976,-0.061776482586450666,0.20675428953992467,0.002272831298863448
0.8794238567352295,-0.0038828253746032715,-0.003993690013885498,0.00022989511489868164,-0.007292254827916622,0.013315906748175621,0.002443175297230482,-0.06197097373793101,0.20690692057252416,0.0023143264648646166
0.8907978534698486,-0.000535324215888977,-0.002425108104944229,0.00208282470703125,-0.010366108268499374,0.00932365097105503,0.0023843199014663696,-0.06220337444178142,0.20702897302852813,0.002358217791564872
0.899338960647583,-0.0009233057498931885,-0.009539525955915451,0.005167722702026367,-0.010397533886134624,0.012331956997513771,0.005410203244537115,-0.062268354826926206,0.20714582958901537,0.0024136814361020273
0.9092991352081299,-0.005916014313697815,-0.008787766098976135,0.007307827472686768,-0.0036683748476207256,0.017278380692005157,0.005938520655035973,-0.06217253513346043,0.2073039570391997,0.0024962905431655164
0.9194550514221191,-0.007330343127250671,-0.007691618055105209,0.0037645697593688965,0.0016342452727258205,0.003952720668166876,-0.0017686671344563365,-0.062175030956424994,0.20739289522984616,0.0025264553311070584
0.9295849800109863,-0.0021108686923980713,-0.0018634125590324402,0.0015128850936889648,-0.0006215188186615705,-0.008641545660793781,-0.0014981431886553764,-0.062175684018089365,0.20736065379834043,0.002502244883588597
0.9404430389404297,-0.00029224157333374023,-0.0012831389904022217,0.0016484260559082031,0.0015777195803821087,-0.004926968365907669,-0.004172223620116711,-0.062175241023383676,0.20729525912761623,0.002473241367667416
0.9493260383605957,-0.005698695778846741,-0.0024620741605758667,0.0017947554588317871,0.0005577788688242435,-0.0010344479233026505,-0.0038072101306170225,-0.06211810505784813,0.20726822554438884,0.0024422712949522577
0.9593100547790527,-0.007018029689788818,-0.004198070615530014,0.00025957822799682617,-0.00681917741894722,-0.013108952902257442,-0.009605711326003075,-0.062114590145323334,0.2071660608267943,0.002375740940482078
0.9694221019744873,-0.0014668405055999756,-0.0036336705088615417,0.0032593607902526855,-0.009162891656160355,-0.014368630014359951,-0.00659319618716836,-0.06217592320518053,0.207029350742855,0.002308481717632878
0.979841947555542,-0.0004687309265136719,-0.003788471221923828,0.004350125789642334,-0.013880681246519089,-0.006677419878542423,-0.008970865979790688,-0.06219342236480417,0.20691378501443347,0.0022492757930901485
0.9912610054016113,-0.003940105438232422,-0.005633831024169922,0.0015267133712768555,-0.011438364163041115,-0.005779935047030449,-0.008806389756500721,-0.06223833547310358,0.206828458348421,0.0021849228130257042
0.9999599456787109,-0.005472689867019653,-0.004542432725429535,-0.0010317564010620117,0.004941941704601049,-0.006264363415539265,-0.008478288538753986,-0.06219971979405297,0.2067410898092248,0.0021007385961995884
1.0093848705291748,-0.004207119345664978,-0.000576462596654892,-0.0009011626243591309,0.00604765210300684,-0.010539270006120205,-0.004413292743265629,-0.062124597815914354,0.20664731163491007,0.00202969113952852
1.0194449424743652,-0.0035891085863113403,0.000684596598148346,0.0021567940711975098,-0.004356785211712122,-0.007156789302825928,-0.01371118612587452,-0.062114733760098136,0.2065456138077195,0.0019330903327721327
1.0294811725616455,-0.005773112177848816,-0.003089752048254013,0.002165853977203369,-0.0060989088378846645,-0.0002904054708778858,-0.011988706886768341,-0.06216604242390893,0.2064858603831023,0.0018203860034484663
1.0404930114746094,-0.010364517569541931,-0.0021424442529678345,0.0026410818099975586,-0.02233007736504078,4.8082321882247925e-05,-0.02908247336745262,-0.06228708466295823,0.20643906593103348,0.0016622161602264493
1.0494611263275146,-0.009506449103355408,-0.0017971843481063843,0.0048983097076416016,-0.041884638369083405,0.01305434014648199,-0.03385426849126816,-0.06264441605509755,0.20648691542005354,0.001402126447910745
1.0594570636749268,-0.00900256633758545,-0.0035131648182868958,0.0009888410568237305,-0.035872817039489746,0.028109455481171608,-0.037333425134420395,-0.06304894258125884,0.20667936072562193,0.0011560860230946095
1.0694899559020996,-0.012967616319656372,-0.0006350874900817871,-0.0012611150741577148,-0.03957691043615341,0.03730304166674614,-0.04672687500715256,-0.06345230795876051,0.2069636421482278,0.0007991246675833492
1.079571008682251,-0.011832118034362793,-0.00034649670124053955,-0.0028508901596069336,-0.023948146030306816,0.045153506100177765,-0.039612773805856705,-0.06379001700309674,0.20732101389036156,0.00045475439679171513
1.0904059410095215,-0.006661504507064819,-0.0018551424145698547,-0.00831681489944458,-0.001317169633693993,0.04840416461229324,-0.03976888582110405,-0.06395622757541655,0.20773168961813948,7.457750461258827e-05
1.0996339321136475,-0.0025490671396255493,0.0018832236528396606,-0.009566187858581543,0.018866129219532013,0.049019888043403625,-0.03719786927103996,-0.06392569162715205,0.2081764248693038,-0.00031773940042704893
1.1097960472106934,-0.0010653138160705566,0.006044358015060425,-0.010108649730682373,0.02559417113661766,0.041994377970695496,-0.043272968381643295,-0.0637161500094713,0.2085761845416512,-0.000751155700728264
1.1195809841156006,0.004210799932479858,-0.0019090324640274048,-0.0036028623580932617,0.007140064612030983,0.022547977045178413,-0.06130336597561836,-0.06362798236361521,0.2087973011906716,-0.0013071472392429343
1.129544973373413,0.004433110356330872,-0.0019953548908233643,0.010016560554504395,-0.014069782570004463,0.01112274918705225,-0.06770598143339157,-0.06374506307003115,0.20886813585692823,-0.0019510654673646837
1.140104055404663,0.004859849810600281,-0.007945582270622253,0.011237621307373047,-0.06349059194326401,-0.006383273750543594,-0.06861358880996704,-0.06421835420705145,0.20879694236799726,-0.0025361735568509903
1.1495459079742432,0.01006712019443512,-0.004750214517116547,0.005949616432189941,-0.10550698637962341,-0.023572735488414764,-0.06516718864440918,-0.06519066520765524,0.20854044097031085,-0.0030143049536047687
1.1596519947052002,0.01531912386417389,-0.003162197768688202,-0.0035930871963500977,-0.1413044035434723,-0.034822192043066025,-0.079266756772995,-0.0665352513076472,0.20814976632061796,-0.003447187560469226
1.1698260307312012,0.01283271610736847,-0.01479196548461914,-0.007331132888793945,-0.18957990407943726,-0.046800870448350906,-0.0832391306757927,-0.0682507026636929,0.20767323551318811,-0.003934091401295902
1.1798360347747803,0.007969379425048828,-0.02223093807697296,-0.009903430938720703,-0.2745895981788635,-0.06559426337480545,-0.09123554080724716,-0.07062949178913866,0.20707850105793596,-0.004292204256276006
1.1908869743347168,0.016416892409324646,-0.013389676809310913,-0.0029085874557495117,-0.34649935364723206,-0.07154438644647598,-0.08458226919174194,-0.07385107629138879,0.2063830836801821,-0.004536514404592885
1.1997380256652832,0.011789709329605103,-0.020243600010871887,0.012283861637115479,-0.4203789234161377,-0.08337175101041794,-0.08743957430124283,-0.07763357363206316,0.2056340043866955,-0.00457609719020611
1.2097618579864502,0.0008445233106613159,-0.032921336591243744,0.020209789276123047,-0.5237347483634949,-0.09591035544872284,-0.11076183617115021,-0.08226947962094715,0.20479354904358776,-0.004576805667987504
1.2196738719940186,-0.0023900270462036133,-0.03409962356090546,0.02963179349899292,-0.6581718921661377,-0.11078225076198578,-0.12374314665794373,-0.08800038917126295,0.20383108353454263,-0.0045278317659605966
1.2297289371490479,0.000389978289604187,-0.04112909734249115,0.032549917697906494,-0.8005446791648865,-0.1170974001288414,-0.1479179412126541,-0.09510540914360972,0.20277351414095796,-0.004381555500143527
1.239927053451538,-2.4840235710144043e-05,-0.04850521683692932,0.033412814140319824,-0.9452965259552002,-0.13500210642814636,-0.1680210828781128,-0.10363754418725439,0.20163592494037902,-0.004175955866527315
1.2499949932098389,-0.003047451376914978,-0.0527670755982399,0.04318368434906006,-1.126489520072937,-0.15545691549777985,-0.19461975991725922,-0.11412610911371165,0.20021036933815117,-0.003880381741839151
1.2608110904693604,-0.002173095941543579,-0.05352464318275452,0.05254209041595459,-1.349293828010559,-0.16470207273960114,-0.22762219607830048,-0.12667811879265287,0.19864651461712396,-0.0034966480820441976
1.2698471546173096,-0.0036561936140060425,-0.0713643729686737,0.05365562438964844,-1.5907013416290283,-0.16170087456703186,-0.26021695137023926,-0.14158485944752663,0.1970742027156092,-0.0029923587889522357
1.2802960872650146,-0.0058440715074539185,-0.0895996242761612,0.051160216331481934,-1.8296633958816528,-0.16540159285068512,-0.295619398355484,-0.1589324230999872,0.1955412310772198,-0.002383269778564118
1.2930610179901123,-0.006961703300476074,-0.09083609282970428,0.05523681640625,-2.0381579399108887,-0.1778009682893753,-0.32552117109298706,-0.1785601522888345,0.19393266484949245,-0.001669046282819172
1.3015949726104736,-0.0034902244806289673,-0.08813001215457916,0.06187814474105835,-2.212294340133667,-0.1914731115102768,-0.3643726706504822,-0.20008867082164936,0.1922457425709758,-0.0009537231481572407
1.3104979991912842,0.0008685290813446045,-0.08711844682693481,0.05342227220535278,-2.4268722534179688,-0.2105633020401001,-0.4103116989135742,-0.2236367364558197,0.19032262584516466,-0.00035976424876771074
1.3197739124298096,0.0048171281814575195,-0.08209916949272156,0.04567915201187134,-2.645106077194214,-0.21027594804763794,-0.45308712124824524,-0.24939506690391697,0.18831939046453597,0.0001983243316645578
1.3297860622406006,0.005842819809913635,-0.09641444683074951,0.03659266233444214,-2.9527814388275146,-0.21727722883224487,-0.4891228973865509,-0.2777044802243405,0.1863371911181095,0.0007584300474121964
1.3403990268707275,0.0015963912010192871,-0.12679290771484375,0.02547621726989746,-3.394150495529175,-0.23316724598407745,-0.5199284553527832,-0.3098265922944611,0.18438464707988703,0.0017070172307006568
1.3499319553375244,0.006821677088737488,-0.1438957154750824,0.02014601230621338,-3.8420214653015137,-0.24876178801059723,-0.5913187861442566,-0.3464643893324863,0.18239523734823432,0.0029218866031898946
1.3599789142608643,0.01409691572189331,-0.15784844756126404,0.028826415538787842,-4.255012512207031,-0.31881198287010193,-0.6994388699531555,-0.38753859787484674,0.17995558058410902,0.003955071019349998
1.3700909614562988,0.020152956247329712,-0.16396677494049072,0.0699925422668457,-4.6048383712768555,-0.3431253433227539,-0.7255961298942566,-0.43241328068703344,0.17701669923604324,0.004849707101583077
1.379837989807129,0.01689906418323517,-0.16053780913352966,0.09603381156921387,-4.986844539642334,-0.4363170564174652,-0.796394944190979,-0.48111583737055413,0.17354002882819455,0.00584809701868718
1.3902881145477295,0.021118074655532837,-0.12183481454849243,0.09367102384567261,-5.322474956512451,-0.4725155830383301,-0.8081374168395996,-0.5332913576155597,0.16949847325127124,0.006810485411501202
1.399785041809082,0.014265701174736023,-0.1191331148147583,0.08037185668945312,-5.6834211349487305,-0.5349600911140442,-0.8008336424827576,-0.5889872226969403,0.16523088977408817,0.008322298515493308
1.4098851680755615,0.016034170985221863,-0.11351901292800903,0.027832210063934326,-5.954555988311768,-0.5508431792259216,-0.8587944507598877,-0.6478183883375025,0.16072587976097666,0.00987423532067543
1.419767141342163,0.02410954236984253,-0.13072538375854492,-0.008104145526885986,-6.005855560302734,-0.4888572692871094,-0.8270804286003113,-0.7085650884170505,0.1563997394013926,0.01122270655664213
1.42985200881958,0.01714562624692917,-0.09723353385925293,-0.0415080189704895,-5.767367362976074,-0.5440124273300171,-0.7159528732299805,-0.7680544095980563,0.152621923290629,0.013206739089464826
1.4406640529632568,0.022166579961776733,-0.0013085603713989258,-0.09085303544998169,-5.318894386291504,-0.5918201804161072,-0.6054527163505554,-0.8239982774739603,0.1486958610178803,0.01573976417492611
1.4498200416564941,0.040915437042713165,0.025433063507080078,-0.09886789321899414,-4.875120639801025,-0.5756896734237671,-0.511273205280304,-0.875249667990852,0.14508397800636763,0.018665391475980436
1.4598209857940674,0.045128025114536285,0.02218008041381836,-0.16180723905563354,-4.499725341796875,-0.5613614916801453,-0.41412800550460815,-0.9222160457627767,0.14238157137574797,0.02242263337538969
1.4701299667358398,0.04842148721218109,0.009276628494262695,-0.21900856494903564,-4.400290489196777,-0.6079459190368652,-0.44570213556289673,-0.9667237701357977,0.13905714010131207,0.025540456172793293
1.4807050228118896,0.025035545229911804,-0.0893247127532959,-0.15921789407730103,-4.514790058135986,-0.6272216439247131,-0.35725295543670654,-1.0112924145411122,0.1361213104989355,0.029378838885215423
1.4903180599212646,0.011073186993598938,-0.12594115734100342,-0.08102262020111084,-4.789949417114258,-0.6433116793632507,-0.3656196892261505,-1.0579123332205882,0.1343771339220627,0.034686758616773526
1.4999711513519287,-0.000875815749168396,-0.18772131204605103,-0.020618528127670288,-4.944439888000488,-0.4599730372428894,-0.3207733929157257,-1.1068867396551623,0.1343351213472591,0.04128684963590001
1.5099971294403076,-0.042819198220968246,-0.19402337074279785,-0.004014253616333008,-5.293237209320068,-0.34614288806915283,-0.24604573845863342,-1.1582802069102467,0.13983808894097063,0.05128840287571462
1.5200929641723633,-0.027944084256887436,-0.1625489592552185,0.011264294385910034,-5.081242561340332,-0.39676159620285034,-0.15294454991817474,-1.2104013732814274,0.1494616794905734,0.06579280547222989
1.5301339626312256,0.014271881431341171,-0.13093429803848267,0.054957300424575806,-4.178606986999512,-0.3849717378616333,-0.07505017518997192,-1.2563642234193915,0.16342418252798396,0.08462619421103264
1.540661096572876,0.02242060750722885,0.15568310022354126,-0.10033279657363892,-3.365699291229248,-0.3991381525993347,-0.09212503582239151,-1.293761146104223,0.17788189065322438,0.10385329665378837
1.5500571727752686,-0.005700457841157913,0.23942822217941284,-0.12948858737945557,-2.95395827293396,-0.21105772256851196,-0.02711455710232258,-1.324598353834354,0.19395868496517402,0.12367585854808755
1.5601770877838135,-0.03352516517043114,0.08126729726791382,-0.040275633335113525,-3.0154387950897217,-0.32307669520378113,-0.05308064445853233,-1.3534442977103593,0.2158673035052032,0.14879591119069147
1.570188045501709,-0.03483711928129196,-0.03269773721694946,0.07659471035003662,-3.2651290893554688,-0.39561155438423157,-0.1530320644378662,-1.3844874112577248,0.24233400993733697,0.17950145783142
1.5805299282073975,0.013967152684926987,-0.1420641541481018,0.10644669830799103,-3.232832193374634,-0.3836504817008972,-0.18298916518688202,-1.416587588830311,0.2774994361574845,0.21915831673116443
1.5901920795440674,0.014486171305179596,-0.11709147691726685,0.004110097885131836,-2.929175853729248,-0.36726057529449463,-0.20782047510147095,-1.4467839971085852,0.32606272939953485,0.27201594797477313
1.6002240180969238,-0.0011910423636436462,-0.007822513580322266,-0.0604446604847908,-2.359954595565796,-0.3478277325630188,-0.16118372976779938,-1.4723467561562988,0.3905062430721519,0.3404197357707041
1.6101949214935303,0.0024937763810157776,0.11165714263916016,-0.050011999905109406,-1.7438884973526,-0.3985312581062317,-0.07872970402240753,-1.4915725894375065,0.47034911962973125,0.4243043531613531
1.6201050281524658,0.019009333103895187,0.17322897911071777,-0.025968492031097412,-1.2674401998519897,-0.4106923043727875,-0.015742486342787743,-1.5047842979397814,0.5624237227321758,0.5207845892336582
1.6302850246429443,0.035627931356430054,0.1571769118309021,-0.03220236301422119,-0.913533627986908,-0.3292902112007141,0.0718291699886322,-1.5134451071265778,0.6630199888053031,0.625282265132203
1.640390157699585,0.005892816931009293,0.13347399234771729,-0.02430248260498047,-0.8469146490097046,-0.25630736351013184,0.06269693374633789,-1.5194550254635595,0.7752000641249147,0.7405573646991548
1.6501779556274414,-0.02616332471370697,0.0590895414352417,0.013922512531280518,-1.038297176361084,-0.20512942969799042,0.005725095048546791,-1.5254076402903345,0.9221305231941549,0.8899580331868069
1.6601710319519043,-0.03198477253317833,-0.07759761810302734,0.07930201292037964,-1.33005952835083,-0.17480827867984772,-0.03138818219304085,-1.5315105817059644,1.159450328597009,1.129354618569596
1.6702549457550049,-0.03397832065820694,-0.10707110166549683,0.12324118614196777,-1.626085638999939,-0.1699114441871643,-0.09938550740480423,-1.535424614242879,1.5450169803918015,1.5169180874145678
1.6804230213165283,-0.030561625957489014,-0.1011500358581543,0.1182548999786377,-1.7919657230377197,-0.14645910263061523,-0.12007667124271393,-1.5329086728503811,2.014662664856735,1.988485096117328
1.6909940242767334,-0.01433594524860382,-0.08865982294082642,0.06693720817565918,-1.716102123260498,-0.1251419633626938,-0.10896771401166916,-1.523401150504703,2.3684195175115867,2.343859259280539
1.700350046157837,-0.008622143417596817,-0.010707676410675049,-0.0038652345538139343,-1.4273302555084229,-0.1394178420305252,-0.05017950013279915,-1.5114795656136129,2.564686181069307,2.5417789325554256
1.7103350162506104,0.00610094889998436,0.05618685483932495,-0.06200181692838669,-1.0097484588623047,-0.14064852893352509,0.0005319314077496529,-1.501067467766088,2.662176839632977,2.6408568236772187
1.7202939987182617,0.014967862516641617,0.1289616823196411,-0.08914685249328613,-0.783737301826477,-0.14522597193717957,0.04446796327829361,-1.4931149080243362,2.709007845086946,2.68927775069694
1.7304928302764893,0.0030429475009441376,0.11617958545684814,-0.08479595184326172,-0.9363225102424622,-0.08687429875135422,0.03293194994330406,-1.4851975618377313,2.7455247550828696,2.727090043472237
1.740818977355957,-0.008331071585416794,-0.012004256248474121,-0.05813480168581009,-1.0574928522109985,-0.09057449549436569,0.021101389080286026,-1.4756700965128104,2.782593944256496,2.7651529638269468
1.7503139972686768,-0.009121071547269821,-0.07238852977752686,-0.013127431273460388,-1.030849814414978,-0.10739830136299133,-0.019830971956253052,-1.4657955053640581,2.816667220800473,2.8003931077366455
1.76043701171875,-0.012489493936300278,-0.04841035604476929,0.023357152938842773,-1.0016863346099854,-0.11136960983276367,-0.03829653188586235,-1.4562624267458173,2.8461798899428494,2.8311872168430843
1.770400047302246,-0.019638359546661377,-0.0005925297737121582,0.022252798080444336,-1.0996148586273193,-0.12328560650348663,-0.07717495411634445,-1.4464296592859294,2.8732982174817154,2.859688679752658
1.7804620265960693,-0.007181894034147263,0.0003363490104675293,0.007308825850486755,-1.2634845972061157,-0.12302835285663605,-0.08294656127691269,-1.435144993032217,2.901247373244865,2.889088992434833
1.7908308506011963,-0.0015256814658641815,-0.025415778160095215,0.009619593620300293,-1.1897974014282227,-0.1773950159549713,-0.04131777957081795,-1.4231157591404173,2.9238712740328063,2.9134129201756234
1.8003740310668945,0.017979368567466736,0.016762971878051758,0.011626958847045898,-0.924069881439209,-0.1960323452949524,-0.020658042281866074,-1.4127708413663427,2.938349489626991,2.9300067087573987
1.8105370998382568,0.011769011616706848,0.0752800703048706,-0.025991469621658325,-0.7305380702018738,-0.16823537647724152,0.007536896970123053,-1.404825308214281,2.946802524134236,2.9404442202199497
1.8204071521759033,-0.016299813985824585,0.07608968019485474,-0.06617501378059387,-0.7741603851318359,-0.13539646565914154,-0.010703358799219131,-1.3975876788037034,2.9532039856647088,2.948450219736275
1.8311331272125244,-0.023733295500278473,0.012659907341003418,-0.05023384094238281,-0.9714524745941162,-0.11658443510532379,-0.034689970314502716,-1.3890268908120833,2.96232809622727,2.9589528871800845
1.840904951095581,-0.029225390404462814,-0.08141356706619263,0.010974526405334473,-1.031079888343811,-0.15688711404800415,-0.05968107283115387,-1.3790977328090515,2.9727426384614852,2.970921988754789
1.8504488468170166,-0.01963973417878151,-0.08020222187042236,0.049686551094055176,-0.8696314096450806,-0.18114061653614044,-0.058243606239557266,-1.369684887876106,2.9818699712012924,2.9819599197823794
1.8605659008026123,-0.007594987750053406,-0.0114021897315979,0.03148356080055237,-0.6152039170265198,-0.2222616821527481,-0.06445542722940445,-1.3624885165061094,2.988504063623512,2.990750708071634
1.8706681728363037,-0.007945854216814041,0.056149959564208984,0.012639075517654419,-0.5191526412963867,-0.2394709438085556,-0.016531527042388916,-1.3570898844465125,2.9919067034286644,2.9966465229321115
1.8805010318756104,0.00692719966173172,0.060434699058532715,4.141032695770264e-05,-0.49781516194343567,-0.21328061819076538,-0.016991188749670982,-1.3520548102898535,2.9937404546065247,3.000849560967351
1.8907990455627441,0.010963495820760727,0.017842411994934082,-0.027675628662109375,-0.4418599605560303,-0.21539662778377533,0.00020260480232536793,-1.347414052306494,2.995149161702794,3.0044240883284714
1.9004809856414795,-0.004219956696033478,0.00442582368850708,-0.018553853034973145,-0.4578208327293396,-0.21057310700416565,0.005678596906363964,-1.3429983569032133,2.995701723048482,3.0072207243673668
1.9104609489440918,0.01052091270685196,-0.0009382367134094238,-0.013110846281051636,-0.4638312757015228,-0.1947973519563675,0.004205974750220776,-1.3384183754849217,2.9962071859231196,3.009817710413879
1.9205620288848877,0.01432710513472557,0.009020090103149414,-0.01336100697517395,-0.54880291223526,-0.1509990096092224,-0.04639168828725815,-1.3335231705657038,2.9983479459064815,3.013828292545299
1.930804967880249,-0.003877628594636917,-0.01923161745071411,0.008717566728591919,-0.5964855551719666,-0.1255653202533722,-0.06324870139360428,-1.3278458947619187,3.002546408912988,3.019544845199325
1.9407031536102295,-0.011204279959201813,-0.02562016248703003,0.02788996696472168,-0.5639380216598511,-0.11928851902484894,-0.09330753237009048,-1.3221813530382522,3.007537804421954,3.025976900164878
1.9505629539489746,0.004770856350660324,0.01883631944656372,0.01663544774055481,-0.48008742928504944,-0.06939983367919922,-0.09827938675880432,-1.3170556920933674,3.0131443067734502,3.0327383523097406
1.9605891704559326,-0.0031852349638938904,0.035691916942596436,0.001902073621749878,-0.25570252537727356,-0.07757627218961716,-0.07235883921384811,-1.3134540059735194,3.0174857542237006,3.037959874763243
1.9706919193267822,0.0006341356784105301,0.07722026109695435,0.005416274070739746,0.016784636303782463,-0.08641703426837921,-0.038640186190605164,-1.3123414104186413,3.019292519344566,3.0407026839939593
1.980633020401001,0.01463904045522213,0.1093529462814331,0.0031096041202545166,0.18346096575260162,-0.059484224766492844,-0.015003032982349396,-1.3134878507220393,3.018927943562793,3.0410917945768086
1.990859031677246,0.00530388206243515,0.09872132539749146,-0.021816134452819824,0.1404491364955902,-0.024406883865594864,-0.0268927700817585,-1.3152170144484612,3.018611403808212,3.0411903720509135
2.0004889965057373,-0.007100045680999756,0.033139050006866455,-0.015057489275932312,0.14672595262527466,-0.04314275458455086,0.009571498259902,-1.3165477245413202,3.018045317242799,3.0409187924467567
2.0107171535491943,0.0040192753076553345,0.019742310047149658,0.018722891807556152,0.275102436542511,-0.04255841299891472,0.024039708077907562,-1.3186173869671831,3.0157982330466555,3.0391013650243104
2.020745038986206,0.010613083839416504,0.052445411682128906,0.00503954291343689,0.3908783197402954,-0.022317854687571526,0.02245485968887806,-1.3219264435262048,3.0129733584491816,3.036476962092617
2.0309078693389893,-0.01822836697101593,0.046758294105529785,-0.004959911108016968,0.3672184944152832,-0.022069692611694336,0.030885521322488785,-1.325779593300052,3.0096391803271296,3.0332660932798032
2.041187047958374,-0.01979321986436844,0.019444942474365234,0.012249499559402466,0.22960470616817474,-0.005738922394812107,0.0064086755737662315,-1.328754325538308,3.0071055205224977,3.0308085283710504
2.0507099628448486,-0.011531874537467957,-0.028011083602905273,0.0124073326587677,0.1011689081788063,0.0022451460827142,0.006794407498091459,-1.3303558159932072,3.005990020550727,3.0296346263700418
2.0606629848480225,-0.016587186604738235,-0.040703415870666504,0.009305745363235474,0.024197693914175034,-0.009035205468535423,0.0030835592187941074,-1.3309209391084846,3.0054608149093847,3.029122933346354
2.0707390308380127,-0.009782135486602783,-0.026107966899871826,0.011063933372497559,-0.003283531405031681,-0.016891174018383026,-0.0038862528745085,-1.3310149282480326,3.005341303376331,3.0291435537552505
2.0806620121002197,-0.010608207434415817,-0.019070148468017578,0.005188584327697754,-0.012763852253556252,-0.009500370360910892,-0.0046625640243291855,-1.3309358750593812,3.0053765722206047,3.0293074856253845
2.090916872024536,-0.01709505170583725,-0.01174229383468628,-0.010991960763931274,-0.05003201216459274,-0.00856182910501957,-0.013804662972688675,-1.3305350607139486,3.0059164476457765,3.029936819788122
2.100691080093384,-0.015225965529680252,-0.019854247570037842,-0.013644695281982422,-0.020321786403656006,-0.02433147095143795,-0.012232866138219833,-1.3301270299683932,3.00643383721353,3.030645429056902
2.1107749938964844,-0.0022203847765922546,-0.0031473636627197266,-0.003993630409240723,0.0415329746901989,-0.0172823928296566,-0.02290702797472477,-1.3303254549633219,3.0069272049140223,3.0313783265967684
2.1207149028778076,-0.008854981511831284,0.0219152569770813,0.0003752410411834717,0.09472189843654633,-0.010184803046286106,-0.018560217693448067,-1.3309984543824755,3.007474492810356,3.032047804439163
2.1308820247650146,-0.01304144412279129,0.02859961986541748,0.003464341163635254,0.1457122266292572,-0.025530070066452026,-0.008241480216383934,-1.3321538326410962,3.007201096001868,3.0319422803034852
2.1411588191986084,0.0018472820520401,0.04824018478393555,0.011717289686203003,0.12440934032201767,-0.0237532090395689,-0.017160139977931976,-1.3334370119771202,3.0067945911428877,3.0317919493583116
2.1508820056915283,-0.003911491483449936,0.02648341655731201,0.02785418927669525,0.061851296573877335,-0.015046137385070324,-0.033643029630184174,-1.3342076063851145,3.0073200097354325,3.032519346266652
2.1608550548553467,-0.01232648640871048,-0.014391541481018066,0.023356884717941284,0.021852480247616768,-0.01674523577094078,-0.0311492457985878,-1.3345189504026724,3.0084946385444242,3.033891169997495
2.1709258556365967,-0.005932038649916649,-0.014839649200439453,0.020007729530334473,0.02093365602195263,-0.010369892232120037,-0.030134102329611778,-1.33480398504159,3.0097229811637356,3.0352805050430605
2.1808040142059326,-0.002290382981300354,-0.005349278450012207,0.01005411148071289,0.01666620746254921,-0.019830770790576935,-0.022225579246878624,-1.335133233973685,3.010771313386621,3.0365019687815473
2.190993070602417,-0.002506006509065628,-0.004247903823852539,0.0075772106647491455,-0.05034127086400986,-0.01836625672876835,-0.02270878292620182,-1.3349911274530564,3.0114336174495415,3.0373907001663336
2.200808048248291,0.0016141179949045181,-0.016542494297027588,0.01249966025352478,-0.16055059432983398,0.00885577779263258,-0.050913255661726,-1.333995725419601,3.013744993413123,3.0397968957950288
2.2108728885650635,-0.009885912761092186,-0.05385613441467285,0.01386597752571106,-0.16344019770622253,-0.008006115444004536,-0.06006467714905739,-1.3324008770573215,3.017151123039891,3.0432678603096837
2.2208778858184814,-0.005639167502522469,-0.03963106870651245,0.020149260759353638,-0.05658937990665436,-0.013838971965014935,-0.050713784992694855,-1.3313530016053172,3.019782871197373,3.0461067193757434
2.231145143508911,0.012012360617518425,0.007504880428314209,0.0037414133548736572,0.030260946601629257,0.0008414825424551964,-0.035318851470947266,-1.3310892986641898,3.021715604830812,3.048148660346892
2.2411601543426514,0.007075442001223564,0.030065059661865234,-0.012957751750946045,0.09448866546154022,-0.005338915623724461,-0.019655201584100723,-1.3315075764139803,3.0227057339957852,3.0491900097414577
2.250905990600586,0.008943527936935425,0.0243833065032959,-0.00594446063041687,0.0983414575457573,0.011477082967758179,-0.01723785139620304,-1.3323039197785458,3.023122555085082,3.0495899003655875
2.2610650062561035,0.008929533883929253,-0.0001391768455505371,-0.00200749933719635,0.08404774218797684,0.02032969519495964,-0.004014990292489529,-1.3330862997343165,3.023396011435288,3.049682360059783
2.274034023284912,0.0023337900638580322,-0.01911407709121704,0.006632208824157715,0.11514297872781754,0.01759498566389084,0.0016917912289500237,-1.334030723087548,3.023111179377793,3.04921864443937
2.2820329666137695,0.004899429157376289,-0.012859165668487549,0.0091753751039505,0.11572355031967163,0.025923488661646843,0.020267605781555176,-1.33501378614819,3.02230467389916,3.0481700750129828
2.291214942932129,0.004270438104867935,-0.009367406368255615,-0.0024967193603515625,0.08702623844146729,0.03151768073439598,0.008987201377749443,-1.3356784831474366,3.0217593013996153,3.0472943367616705
2.300992012023926,0.0030126329511404037,-0.017887115478515625,-0.000742107629776001,0.04043690115213394,0.02488188073039055,0.019812418147921562,-1.3357005944349345,3.021455549963856,3.0466583503803957
2.311067819595337,0.002586260437965393,-0.024407505989074707,0.01904986798763275,0.024289539083838463,0.023773696273565292,0.00915609858930111,-1.3358528463227262,3.0206563500332915,3.0456279029552245
2.3211400508880615,0.0059885308146476746,-0.02158510684967041,0.019750937819480896,0.047106437385082245,0.028412122279405594,-0.007497179787606001,-1.336445750290015,3.020418856572861,3.045108439304847
2.3310611248016357,-0.0012084636837244034,-0.017908990383148193,0.009764641523361206,0.11647827178239822,0.016620224341750145,-0.010695742443203926,-1.3373725755593289,3.020498067257155,3.0449696598403917
2.3411848545074463,0.0014370474964380264,0.00663834810256958,0.016711026430130005,0.20400333404541016,0.008747653104364872,0.01160716637969017,-1.3389132948467328,3.0195292399312743,3.043841659160294
2.3510849475860596,0.013857873156666756,0.039262592792510986,0.010063797235488892,0.25468531250953674,0.006579041015356779,0.030612388625741005,-1.3409764105348607,3.0175033022295015,3.041688134738189
2.3611838817596436,0.013510487973690033,0.04541051387786865,-0.00031492114067077637,0.24839839339256287,0.017222896218299866,0.014328224584460258,-1.3433389611263218,3.015223551853764,3.039228381757869
2.3712289333343506,-0.0016311276704072952,0.011589407920837402,-2.2619962692260742e-05,0.17979353666305542,0.022143486887216568,0.021467572078108788,-1.3453434785656428,3.0135403864005794,3.037273591342782
2.381389856338501,-0.010483954101800919,-0.020328044891357422,0.010317087173461914,0.13866181671619415,0.027248233556747437,0.018331168219447136,-1.3466946222581926,3.0119339806156638,3.0353842131583577
2.3912899494171143,-0.00446435809135437,-0.01879173517227173,0.01044820249080658,0.1123129278421402,0.028892070055007935,0.015534528531134129,-1.3474037270528698,3.0110750796148804,3.034179390688688
2.4012248516082764,-0.010532299056649208,-0.025886178016662598,0.010502338409423828,0.12289925664663315,0.0193512961268425,0.023304834961891174,-1.3480209817275766,3.009765655003271,3.03259503748671
2.411435842514038,-0.008351502940058708,-0.016775965690612793,0.018864229321479797,0.13886992633342743,0.01848985254764557,0.01554251927882433,-1.348916054309904,3.0086038187541564,3.0311966433981232
2.421128988265991,-0.008058441802859306,-0.013951539993286133,0.012001603841781616,0.10496256500482559,0.012433823198080063,0.013427169993519783,-1.3497431050488353,3.0076345217831477,3.0300227558081025
2.4311301708221436,-0.010867640376091003,-0.024619340896606445,0.013878092169761658,0.05829218402504921,-0.01332617923617363,-0.0019384169718250632,-1.3503792993582848,3.0067519213370395,3.0291412318888398
2.441143035888672,-0.0026248767971992493,-0.03826248645782471,0.030954480171203613,0.022737648338079453,-0.0038834093138575554,0.00013192440383136272,-1.350806984519516,3.0062242122752574,3.028727961387528
2.451202154159546,-0.0032728370279073715,-0.03828054666519165,0.0156296044588089,0.008407512679696083,0.010291354730725288,0.013416837900876999,-1.3508890065170036,3.0059997683924373,3.0284391181485004
2.46120285987854,-0.003261115401983261,-0.022308409214019775,-0.018044203519821167,0.0462007001042366,0.00574400695040822,0.0005958471447229385,-1.3509076629916412,3.0059727991168512,3.028306443550461
2.4713919162750244,0.0007904879748821259,-0.01896125078201294,-0.006926149129867554,0.0940689742565155,-0.00042587146162986755,0.018129033967852592,-1.3513729350830894,3.0053717417990953,3.0276603113069904
2.4812660217285156,-0.0001234002411365509,-0.012903690338134766,0.010773569345474243,0.12978115677833557,0.00529246823862195,0.024347782135009766,-1.3522162980678376,3.0040775048135067,3.026308329513934
2.4912030696868896,0.002228274941444397,-0.005329549312591553,0.0061569660902023315,0.1488063633441925,0.02067253366112709,0.03038569912314415,-1.3532482164696156,3.0025122100655826,3.0245526702365795
2.5027201175689697,-0.004126681014895439,-0.017456352710723877,-0.0009198188781738281,0.17683319747447968,0.0290236733853817,0.038842301815748215,-1.3545760462186631,3.000481685686739,3.0222001515463934
2.512691020965576,0.00038174353539943695,-0.019560813903808594,0.0013033002614974976,0.21410761773586273,0.03099587932229042,0.05907502770423889,-1.3561403671411112,2.997686756484458,3.019009325516154
2.521108865737915,0.003805695101618767,-0.01304328441619873,0.013872608542442322,0.30064278841018677,0.03569928556680679,0.06132912635803223,-1.3581456869173298,2.993885010144325,3.0147698812752735
2.5313189029693604,0.0028632991015911102,-0.003125488758087158,0.02317182719707489,0.4468795657157898,0.03445048630237579,0.0944613590836525,-1.3614275687050652,2.988263788513864,3.0086617097396022
2.541290044784546,0.0064103081822395325,0.027370154857635498,0.011202424764633179,0.5759113430976868,0.05187608301639557,0.10389932990074158,-1.3663603854376514,2.980206116632065,2.999983323038244
2.551280975341797,0.007359914481639862,0.044917285442352295,-0.006375819444656372,0.7195026874542236,0.05543730407953262,0.11564094573259354,-1.3723882299743,2.9703971971761516,2.9894186983865003
2.5614240169525146,0.006038133054971695,0.039946019649505615,-0.007496237754821777,0.9420244693756104,0.06373145431280136,0.13103987276554108,-1.3799472245290736,2.9577778284228473,2.975935531344022
2.5735580921173096,0.011579278856515884,0.05935323238372803,-0.01320861279964447,1.3124496936798096,0.08208152651786804,0.15316247940063477,-1.3904601395169107,2.9400415658285515,2.957145518399911
2.5813989639282227,0.005251973867416382,0.08665972948074341,-0.010502815246582031,1.766788125038147,0.09084438532590866,0.21979184448719025,-1.4051241836026578,2.9116066875091033,2.927398141007613
2.5913150310516357,-0.005539420992136002,0.1231987476348877,0.014289379119873047,2.1751739978790283,0.1488359570503235,0.2590291500091553,-1.4236771007619538,2.866450415379073,2.880504042554373
2.6013500690460205,-0.020041480660438538,0.11365491151809692,0.03999067842960358,2.4898319244384766,0.21977858245372772,0.28993433713912964,-1.4451675521510585,2.797460414267899,2.808998208522882
2.611406087875366,-0.040088407695293427,0.07164132595062256,0.06770312786102295,2.7323851585388184,0.27901434898376465,0.32034724950790405,-1.468129415129907,2.686170437375517,2.6944808802787006
2.6213879585266113,-0.04425821080803871,0.05199849605560303,0.09307611733675003,2.8771722316741943,0.3354105055332184,0.33296477794647217,-1.4905734325001618,2.497994505023933,2.5024265126771783
2.6313488483428955,-0.04566139727830887,0.021115541458129883,0.1097574234008789,2.8771779537200928,0.36454108357429504,0.35376670956611633,-1.5083270794832468,2.1751961752583733,2.175312853670259
2.641407012939453,-0.041354116052389145,-0.022609829902648926,0.1297605037689209,2.7933924198150635,0.4168248176574707,0.35047289729118347,-1.515477594191101,1.704220005447505,1.6996783870124585
2.6514928340911865,-0.03971599042415619,-0.09059983491897583,0.14238452911376953,2.825629949569702,0.45942917466163635,0.37031039595603943,-1.508909893317577,1.235069953995098,1.2253371740748848
2.662186861038208,-0.049452729523181915,-0.09632426500320435,0.13227969408035278,2.9526050090789795,0.49199989438056946,0.4496414363384247,-1.4912383048576014,0.9074593295544725,0.8921585247120958
2.6737558841705322,-0.04111878573894501,-0.03417325019836426,0.10276813060045242,3.148371458053589,0.5105409026145935,0.5441755056381226,-1.4664541245527163,0.71029841025252,0.6891443652556196
2.6814820766448975,-0.020432814955711365,-0.00046062469482421875,0.07772458344697952,3.356203317642212,0.5119020938873291,0.6088581085205078,-1.4369889967753051,0.5890092467183898,0.561865975067989
2.69153094291687,-0.012968793511390686,-0.00613170862197876,0.049209773540496826,3.5979654788970947,0.5645263195037842,0.6981826424598694,-1.4038505569130488,0.5110070282496212,0.4775453363684374
2.7014570236206055,-0.006902098655700684,0.028061270713806152,0.03171338140964508,3.8097569942474365,0.5887227654457092,0.7750023007392883,-1.3675449950689291,0.45919537988088177,0.41895048242728766
2.71147084236145,0.000917382538318634,0.06153172254562378,0.038040339946746826,3.8764102458953857,0.5807074904441833,0.8011630177497864,-1.3292510850247337,0.42389071016261026,0.37675223210043896
2.721467971801758,-0.0014222189784049988,0.04563385248184204,0.0733344554901123,3.735288381576538,0.5545637607574463,0.7317793965339661,-1.2911061291806112,0.39879734651945675,0.34491139661506975
2.7315099239349365,-0.007354028522968292,-0.032602906227111816,0.09765732288360596,3.4095356464385986,0.5688056945800781,0.6264665126800537,-1.255366776284041,0.3804664245399951,0.3198749636339808
2.741560935974121,-0.018130354583263397,-0.10451364517211914,0.11384180188179016,3.0349745750427246,0.5755996704101562,0.569063127040863,-1.223147468362685,0.3680927980059775,0.3007197155329429
2.751462936401367,-0.018327757716178894,-0.10489660501480103,0.11705446243286133,2.723602771759033,0.568718671798706,0.5386933088302612,-1.194330685737112,0.3604280491202897,0.2863840983199735
2.761592149734497,-0.0033680200576782227,-0.08335363864898682,0.11086013913154602,2.511613607406616,0.5257192850112915,0.5040117502212524,-1.1679460310006329,0.35550360387001045,0.27514899884203536
2.773289918899536,0.007181122899055481,-0.05342370271682739,0.09153082966804504,2.310645580291748,0.5022299289703369,0.46628695726394653,-1.14363055927428,0.35197400669453177,0.26568267286482505
2.781635046005249,0.006062120199203491,-0.02518671751022339,0.07795807719230652,2.1500425338745117,0.47730880975723267,0.46993839740753174,-1.1210745995072033,0.3499153499190204,0.257970552629786
2.7916059494018555,0.008127734065055847,-0.011593997478485107,0.05144917964935303,2.0672340393066406,0.4506045877933502,0.4830731749534607,-1.0996857536310958,0.3490256229927971,0.2518141557326851
2.8015758991241455,0.016207575798034668,0.01955103874206543,0.025999724864959717,2.112395763397217,0.43867602944374084,0.51838219165802,-1.078374438981112,0.3488270835737782,0.24654803136906175
2.8116180896759033,0.016909465193748474,0.05428284406661987,0.0179731547832489,2.21753191947937,0.4230782389640808,0.5758797526359558,-1.056106461812883,0.34902911287950605,0.2418567581341214
2.8230741024017334,0.009034022688865662,0.08749842643737793,0.018384188413619995,2.2919604778289795,0.42929351329803467,0.633768618106842,-1.0328149231811556,0.34975074049152594,0.23779927939632478
2.831627130508423,-0.0007171034812927246,0.09260213375091553,0.024437129497528076,2.3433353900909424,0.4498479962348938,0.6721257567405701,-1.0087747855459421,0.3511779990460332,0.2343156555421867
2.8415868282318115,-0.010991334915161133,0.069682776927948,0.02938985824584961,2.425269842147827,0.463838666677475,0.7011022567749023,-0.9840056261928107,0.3530142878288018,0.23104459503302394
2.8516581058502197,-0.020099222660064697,0.05478262901306152,0.027140498161315918,2.5638620853424072,0.4615525007247925,0.7303667068481445,-0.9581459498885511,0.35485977929927875,0.22766618249613185
2.8618128299713135,-0.024790555238723755,0.03833281993865967,0.029066741466522217,2.7384860515594482,0.4236983358860016,0.705151379108429,-0.9307112734260239,0.3559319066920712,0.22348545271377504
2.8738858699798584,-0.03145971894264221,0.003584921360015869,0.032488226890563965,2.7735064029693604,0.4083566665649414,0.5914918184280396,-0.9024571066266963,0.35543480477127515,0.21763858044632792
2.882362127304077,-0.036806464195251465,-0.03629332780838013,0.03712916374206543,2.6321442127227783,0.4505230188369751,0.4840490221977234,-0.8751378022548676,0.35425996204461746,0.2106490306456559
2.891819953918457,-0.03486637771129608,-0.046788573265075684,0.04975062608718872,2.3879148960113525,0.4865097403526306,0.432807981967926,-0.8499634594656279,0.3537962842216555,0.2038236652258955
2.901758909225464,-0.029928058385849,-0.03048396110534668,0.06820952892303467,2.1457676887512207,0.48460716009140015,0.41310378909111023,-0.8272169975188398,0.354331467833143,0.1979854491288614
2.911726951599121,-0.016776368021965027,-0.008240461349487305,0.08203649520874023,1.9275494813919067,0.4718160331249237,0.3870115578174591,-0.8067118332641534,0.3555818289123125,0.19313775576266476
2.9233200550079346,-0.006416872143745422,-0.00016516447067260742,0.08580505847930908,1.7156473398208618,0.4670678675174713,0.36578723788261414,-0.7883127819858375,0.35737579871561237,0.1890656011371386
2.9318721294403076,-0.009175688028335571,-0.00917118787765503,0.07375228404998779,1.5087062120437622,0.46841996908187866,0.35612013936042786,-0.7719172549342236,0.35979601549031626,0.18586792618100453
2.942111015319824,-0.014091938734054565,-0.015526533126831055,0.05316966772079468,1.3075517416000366,0.5010039806365967,0.3292962610721588,-0.7575060509887083,0.36293867536762303,0.18339322722012394
2.9520370960235596,-0.01893073320388794,-0.024111509323120117,0.04050469398498535,1.174357533454895,0.5143920183181763,0.31913483142852783,-0.744825849769102,0.3667324809969526,0.18149108817357001
2.962064027786255,-0.021640002727508545,-0.026516258716583252,0.0380440354347229,1.2088627815246582,0.5107320547103882,0.324170857667923,-0.7326404486877709,0.37073165785273726,0.17979926115641034
2.973479986190796,-0.02047601342201233,-0.014653325080871582,0.025279581546783447,1.2875897884368896,0.47704169154167175,0.29624998569488525,-0.7197946381474675,0.3742214384400148,0.17759992673043742
2.9821979999542236,-0.01684439182281494,-0.010017454624176025,0.008331835269927979,1.3124727010726929,0.4787362515926361,0.25047874450683594,-0.7067033395761716,0.3770208741011197,0.17464444331881102
2.9919698238372803,-0.013791829347610474,-0.011513292789459229,-0.006245613098144531,1.3520511388778687,0.5164366960525513,0.2520972192287445,-0.6933964607694264,0.3797987103803704,0.17123379608947947
3.0018398761749268,-0.014255911111831665,-0.012231647968292236,-0.025088131427764893,1.442503571510315,0.5264768600463867,0.272687703371048,-0.6794512245758727,0.3827927641590142,0.16767905030559607
3.0118939876556396,-0.0102425217628479,0.009679436683654785,-0.021914124488830566,1.56747305393219,0.538482129573822,0.30293628573417664,-0.6644389637126499,0.3857453102360971,0.16386243258419514
3.023331880569458,-0.008440256118774414,0.020314931869506836,-0.011424422264099121,1.7137224674224854,0.5226256847381592,0.3333282768726349,-0.6480108324137779,0.3885920842726091,0.1597819042146093
3.031919002532959,-0.00634416937828064,0.026287198066711426,0.00442659854888916,1.820020079612732,0.49872124195098877,0.34757187962532043,-0.6303220354404884,0.39103486230482787,0.1553322166443081
3.04227614402771,-0.004120677709579468,0.027291715145111084,0.012367427349090576,1.8802213668823242,0.49261993169784546,0.36158487200737,-0.6118062493852415,0.39329714117853865,0.15065921329993565
3.051922082901001,0.0011403262615203857,0.01770496368408203,0.013721942901611328,1.8744261264801025,0.4724389314651489,0.34244969487190247,-0.5930332290127361,0.39541081558329977,0.1458410994887684
3.061990976333618,0.0018990635871887207,0.005452096462249756,0.015030741691589355,1.7687526941299438,0.44010311365127563,0.3117796778678894,-0.5749078922397454,0.39732290523510677,0.14100529603431233
3.0733799934387207,0.007270991802215576,-0.008483171463012695,0.02307194471359253,1.5984022617340088,0.407680481672287,0.2680657207965851,-0.5581844238242274,0.3991052830220965,0.13641262749712474
3.081977128982544,0.015423476696014404,-0.02638113498687744,0.02738785743713379,1.3520880937576294,0.4031403362751007,0.22736012935638428,-0.543588485068775,0.4010051772938258,0.13231937692873166
3.091977834701538,0.008995920419692993,-0.03819155693054199,0.02861940860748291,1.1034623384475708,0.415424108505249,0.21199847757816315,-0.5314381989862191,0.40343062296750376,0.1290512634298728
3.102077007293701,0.0016742348670959473,-0.03388676047325134,0.023812949657440186,0.896848201751709,0.4227374196052551,0.20353254675865173,-0.5214470453266935,0.40644943104627085,0.12672495437336465
3.112030029296875,0.002060443162918091,-0.028072476387023926,0.021221637725830078,0.7404231429100037,0.4077960252761841,0.2010023444890976,-0.51312483990564,0.4098280421946994,0.12511505690317368
3.123335123062134,0.0017797648906707764,-0.020100653171539307,0.024113774299621582,0.6323771476745605,0.3829309046268463,0.2024897187948227,-0.5060727762513694,0.4132840403738503,0.12410512270287873
3.132328987121582,0.006653100252151489,-0.0032213032245635986,0.018146753311157227,0.5937227010726929,0.3637961149215698,0.22512269020080566,-0.49960842680508943,0.41673421404235195,0.12352228436619811
3.14201283454895,0.012536704540252686,0.020563095808029175,0.0068125128746032715,0.6453653573989868,0.34911489486694336,0.2689753770828247,-0.49298439773619707,0.4201794767058813,0.12324821284859519
3.1520090103149414,0.007905900478363037,0.04980376362800598,0.0020869970321655273,0.7479839324951172,0.32598617672920227,0.29616260528564453,-0.4854766021808553,0.42341607972374484,0.12296164217592861
3.162058115005493,0.0027764439582824707,0.05841141939163208,-0.0017075538635253906,0.8523721098899841,0.3047642409801483,0.3192269206047058,-0.4768851211535766,0.42630197215082644,0.1223780113396537
3.173413038253784,0.0026971399784088135,0.05518370866775513,-0.0020513534545898438,0.9619672894477844,0.29720935225486755,0.34823551774024963,-0.4672485803016019,0.4289398540230927,0.12157336749774252
3.182121992111206,-0.0001626908779144287,0.06178992986679077,0.003679037094116211,1.1065270900726318,0.30248481035232544,0.3807372748851776,-0.45637525814591084,0.431434167783329,0.1204897540658406
3.1920390129089355,-0.009574204683303833,0.05696973204612732,0.005838751792907715,1.2795219421386719,0.2954309284687042,0.4102138876914978,-0.4438328970177148,0.43378375591246665,0.11891767984557208
3.2020628452301025,-0.01400730013847351,0.05070111155509949,0.007178962230682373,1.4347561597824097,0.2790519595146179,0.4315423369407654,-0.42973489204815785,0.43576864737464155,0.11680760289953511
3.2121031284332275,-0.00951153039932251,0.06110766530036926,0.005241870880126953,1.5608556270599365,0.27121660113334656,0.4641735851764679,-0.41421296222609055,0.43748863568100543,0.11428312491646231
3.2233469486236572,-0.0015149116516113281,0.07106587290763855,-0.0042040348052978516,1.6445393562316895,0.2602217197418213,0.4969909191131592,-0.3976272875129015,0.4390805548853879,0.11161139674242009
3.2325050830841064,0.0019457340240478516,0.06855940818786621,0.0002925395965576172,1.6650933027267456,0.2618912160396576,0.5179243087768555,-0.3804148498409628,0.44068476292398157,0.10894047588230642
3.242130994796753,-0.004134654998779297,0.045906245708465576,0.011485874652862549,1.663179874420166,0.26997366547584534,0.5445761680603027,-0.3630643610558212,0.44244158157696634,0.10644566848232899
3.252135992050171,-0.011961966753005981,0.028469383716583252,0.025757014751434326,1.6271971464157104,0.27871888875961304,0.5567642450332642,-0.34579737890139395,0.4444314816901492,0.10425135635408889
3.2622148990631104,-0.01536068320274353,0.014358311891555786,0.03738945722579956,1.5641660690307617,0.2632232904434204,0.5372190475463867,-0.3290086789308528,0.44647087449353795,0.10219580933535863
3.273529052734375,-0.016149669885635376,0.005864351987838745,0.04808312654495239,1.484736680984497,0.23766648769378662,0.5154722332954407,-0.3129551388874586,0.4483455180469802,0.100236313096234
3.2822158336639404,-0.01097676157951355,-0.0067969560623168945,0.04993617534637451,1.3602392673492432,0.2100580334663391,0.4710043668746948,-0.2979439469178914,0.45004222419940854,0.09840994106918122
3.2922730445861816,-0.004274994134902954,-0.01742088794708252,0.04436463117599487,1.208388328552246,0.19369442760944366,0.42301687598228455,-0.28442381247522214,0.4515813096277568,0.09676062140190171
3.302199125289917,0.0006074905395507812,-0.020235031843185425,0.038350820541381836,1.0850695371627808,0.19507260620594025,0.39086559414863586,-0.2723219458243851,0.45314748921402553,0.09534914159795005
3.3123390674591064,0.0033544301986694336,-0.01496744155883789,0.025317609310150146,0.9773515462875366,0.18128809332847595,0.3683893084526062,-0.2613877641834462,0.45473364923092136,0.09422292147799236
3.323486089706421,0.003048151731491089,0.0007294416427612305,0.02010345458984375,0.9241812825202942,0.16576717793941498,0.33700528740882874,-0.25129675834870013,0.45621464748091917,0.0931632256882523
3.33225417137146,0.006932705640792847,0.007438331842422485,0.017577528953552246,0.8606025576591492,0.13082046806812286,0.325266569852829,-0.24181387585701267,0.4574509572682532,0.09215153497724438
3.342168092727661,0.011361151933670044,0.01948527991771698,0.012225925922393799,0.8175427317619324,0.11438664048910141,0.3134956657886505,-0.2328888777046357,0.4584481868713162,0.09130005994193041
3.3523099422454834,0.014808952808380127,0.025501281023025513,0.00986403226852417,0.8246964812278748,0.1054271012544632,0.32492002844810486,-0.22412739550456431,0.45938178570620336,0.09048507731451072
3.362391948699951,0.0076417624950408936,0.02328479290008545,0.004247009754180908,0.8056490421295166,0.08326481282711029,0.32996273040771484,-0.21532908010813098,0.46018320593424855,0.08980870230652058
3.373643159866333,-0.000546187162399292,0.03645801544189453,0.004684865474700928,0.7754881381988525,0.06042243167757988,0.307293564081192,-0.20680366836291578,0.4607509598433621,0.08913620867419654
3.382572889328003,0.0011422336101531982,0.02640312910079956,0.009534120559692383,0.715460479259491,0.04579422250390053,0.2883411943912506,-0.1987803251573423,0.46113785441880684,0.08846240518566231
3.392642021179199,0.0004819929599761963,0.011690929532051086,0.013947546482086182,0.6349163055419922,0.047265082597732544,0.26880061626434326,-0.19147272289841447,0.4614841784787607,0.08794017172395571
3.4023678302764893,-0.007567942142486572,0.0021568238735198975,0.020361483097076416,0.5549125075340271,0.0638752207159996,0.24944424629211426,-0.18497718281246323,0.46197125865501126,0.0875942390224984
3.4124019145965576,-0.01619863510131836,-0.009541183710098267,0.022575736045837402,0.49938520789146423,0.08055157959461212,0.2350214570760727,-0.17918439347725365,0.4626813067676987,0.08739996702704429
3.425014019012451,-0.018379300832748413,-0.009165793657302856,0.016013264656066895,0.443962961435318,0.07295384258031845,0.2179442048072815,-0.17395164817835404,0.4634436643217051,0.0873387770261315
3.432391881942749,-0.01400214433670044,-0.002234846353530884,0.013823926448822021,0.41519972681999207,0.06501336395740509,0.20671598613262177,-0.16914742745351524,0.4641205873483898,0.08730423139219629
3.4423859119415283,-0.00454181432723999,-0.002453163266181946,0.009128332138061523,0.3993043601512909,0.06164127215743065,0.2009848654270172,-0.1646029206057738,0.4647410196095927,0.08731361470197108
3.4523990154266357,-0.004239112138748169,0.000852629542350769,0.004634559154510498,0.3840167224407196,0.062059611082077026,0.1971798539161682,-0.16020160211235554,0.4653681113989054,0.08732292225555681
3.46242094039917,-0.009913831949234009,0.003611236810684204,-0.0032196640968322754,0.3643644452095032,0.04896005615592003,0.18833495676517487,-0.15597118888296055,0.46594396121177156,0.08736996156924307
3.473494052886963,-0.006092548370361328,-0.0018800199031829834,-0.0070841312408447266,0.31932151317596436,0.024744108319282532,0.17067867517471313,-0.15209340458123297,0.46632502537551596,0.08743098418722207
3.482485055923462,0.0013457834720611572,-0.009728819131851196,-0.005155324935913086,0.24758712947368622,0.008219459094107151,0.15475909411907196,-0.14879657404751434,0.46651435416461023,0.08760420561425995
3.492548942565918,0.003976255655288696,-0.01704999804496765,0.0006273984909057617,0.13733378052711487,-0.00073648476973176,0.1339370608329773,-0.14640237815227136,0.4666046986811489,0.08801391926804972
3.5025298595428467,-0.001064389944076538,-0.034576624631881714,0.00892329216003418,-0.004951452370733023,0.0027637076564133167,0.10914650559425354,-0.1452399131204803,0.4667145874204924,0.0888016705223878
3.5125069618225098,-0.006581753492355347,-0.05222439765930176,0.015010654926300049,-0.14770615100860596,0.011998618021607399,0.07630488276481628,-0.14549535792055407,0.46695080069663136,0.08999812686108562
3.5236518383026123,-0.007417589426040649,-0.06050454080104828,0.010401666164398193,-0.27167364954948425,0.014022620394825935,0.027331214398145676,-0.14714025048046345,0.4673283166499343,0.0914316789285679
3.532581090927124,-0.0013966560363769531,-0.0671587884426117,-0.004665374755859375,-0.3958239257335663,-0.007393898908048868,-0.01606163941323757,-0.15010400686434663,0.46759398736178415,0.09300138083745739
3.5429651737213135,0.006967097520828247,-0.0678718090057373,-0.013112485408782959,-0.5241605639457703,-0.02496117539703846,-0.041468195617198944,-0.1543450933231269,0.46769556831927794,0.09483906195424713
3.552543878555298,0.012952059507369995,-0.05560578405857086,-0.021312296390533447,-0.6274363994598389,-0.03745286539196968,-0.06785070151090622,-0.15975428764461222,0.46772613086669745,0.09699028942636745
3.5626060962677,0.011511147022247314,-0.04021115601062775,-0.027381300926208496,-0.6865098476409912,-0.06358885765075684,-0.07910042256116867,-0.16598757160883126,0.4676099270672188,0.09933978290600594
3.5743279457092285,0.010281234979629517,-0.02515636384487152,-0.031140565872192383,-0.6967983245849609,-0.0948089212179184,-0.09152443706989288,-0.17260329472536404,0.46720277821847156,0.10176157979924902
3.5826408863067627,0.011414587497711182,-0.015508368611335754,-0.03130066394805908,-0.6656683683395386,-0.1180972009897232,-0.10010301321744919,-0.17913889259674473,0.4665338360327374,0.10401196827351636
3.592642068862915,0.006103068590164185,-0.011460334062576294,-0.03293502330780029,-0.6047030091285706,-0.13956813514232635,-0.10273213684558868,-0.1852940897852525,0.46559495908951976,0.10599550442618812
3.602566957473755,-0.0010027587413787842,0.0015067905187606812,-0.03419417142868042,-0.5373066663742065,-0.14738692343235016,-0.0887092649936676,-0.19082662588671062,0.4644842716264005,0.10772004874049791
3.6126821041107178,-0.0078563392162323,0.01128832995891571,-0.04032951593399048,-0.45865145325660706,-0.1505746692419052,-0.0720648244023323,-0.19566143719072943,0.4632912689046182,0.10926709345879962
3.624523878097534,-0.012923955917358398,0.009873077273368835,-0.038012146949768066,-0.3687063753604889,-0.14306269586086273,-0.05428103730082512,-0.19965692847671546,0.46207504887263756,0.11058165596688109
3.6329410076141357,-0.01962384581565857,0.002741217613220215,-0.029108285903930664,-0.2769705355167389,-0.14030028879642487,-0.03795287758111954,-0.2027465216912082,0.46085936093506935,0.11162351514019617
3.642632007598877,-0.026155740022659302,0.00408405065536499,-0.020167291164398193,-0.21148261427879333,-0.13442988693714142,-0.023490315303206444,-0.20505250815047055,0.4596535495527826,0.11245629389363966
3.65263295173645,-0.029297292232513428,0.002690449357032776,-0.0089491605758667,-0.15625372529029846,-0.11556937545537949,-0.015155472792685032,-0.206787967471761,0.45852663204794397,0.11310342310899141
3.6626760959625244,-0.032189249992370605,-0.005980446934700012,0.0017880797386169434,-0.10650216042995453,-0.10001251846551895,-6.040884181857109e-05,-0.20799259817006951,0.4575654803682839,0.1136198592246081
3.6737849712371826,-0.03404167294502258,-0.007350370287895203,0.005932331085205078,-0.061647288501262665,-0.09147251397371292,0.00286150467582047,-0.20873778066519205,0.456694020813555,0.11401903560043998
3.68277907371521,-0.03059592843055725,-0.005321890115737915,0.01179206371307373,-0.030726391822099686,-0.08725646138191223,0.0006888979114592075,-0.20912869464345482,0.45585170339705017,0.1142373433286221
3.6927530765533447,-0.025705993175506592,-0.012343838810920715,0.014352977275848389,-0.007889751344919205,-0.08557094633579254,-0.00764780817553401,-0.20931885000065995,0.454994884680078,0.11428367461219732
3.702707052230835,-0.02114081382751465,-0.014071613550186157,0.01729792356491089,0.008039146661758423,-0.08149125427007675,-0.013278529979288578,-0.20935365018329385,0.45412719022404074,0.11418469868290491
3.7128050327301025,-0.01977485418319702,-0.015642419457435608,0.018288791179656982,0.007162551861256361,-0.07409827411174774,-0.01825437881052494,-0.2093371736339856,0.4533180877372032,0.11398883355908583
3.7237660884857178,-0.01925399899482727,-0.016386717557907104,0.01875925064086914,-0.0038962247781455517,-0.07179730385541916,-0.025695517659187317,-0.20941172941131234,0.4525427690198157,0.11377853219805528
3.732769012451172,-0.015540450811386108,-0.01831918954849243,0.023914337158203125,-0.013133765198290348,-0.06271681189537048,-0.03371408209204674,-0.2096246187530277,0.45181260912042465,0.11352836739134674
3.7428460121154785,-0.015139251947402954,-0.019964143633842468,0.027337729930877686,-0.01587708666920662,-0.054712146520614624,-0.03451329469680786,-0.2099023539979377,0.4511773436323984,0.11327644239711127
3.75298810005188,-0.013970732688903809,-0.016066476702690125,0.027602553367614746,-0.017179738730192184,-0.04985152184963226,-0.03795154392719269,-0.21008276070255352,0.4504405749738423,0.11298300043208497
3.76289701461792,-0.00971493124961853,-0.01390424370765686,0.026637256145477295,-0.014095798134803772,-0.03922524303197861,-0.04017927870154381,-0.21035260852625784,0.4498288398988057,0.11267885078501307
3.7738230228424072,-0.008099645376205444,-0.015521183609962463,0.021003544330596924,0.0014040484093129635,-0.027862820774316788,-0.04079175367951393,-0.21046133718395132,0.4493573784333178,0.11232815780673246
3.782849073410034,-0.007932007312774658,-0.016236573457717896,0.020154893398284912,0.016722017899155617,-0.021589746698737144,-0.04198005795478821,-0.21044390264987575,0.4489920665637405,0.1119039589462707
3.793071985244751,-0.006818145513534546,-0.009180411696434021,0.0213698148727417,0.03453931584954262,-0.02232988178730011,-0.0383969321846962,-0.2102811332424522,0.4486463178259052,0.11141568947429684
3.8027751445770264,-0.0023262500762939453,-0.005449801683425903,0.02088862657546997,0.03959106653928757,-0.021524012088775635,-0.04337890446186066,-0.21000826152548713,0.4482827554801066,0.11086805587490427
3.812847852706909,-0.0011557340621948242,-0.00998862087726593,0.02058345079421997,0.02538902685046196,-0.013872304931282997,-0.05057445168495178,-0.20981256121889075,0.44797346054325876,0.11028204157418398
3.8238019943237305,-0.0005403459072113037,-0.015905991196632385,0.018076956272125244,0.001101263565942645,-0.004691856447607279,-0.05306423828005791,-0.20982506727125483,0.44776132468356333,0.10974653868896397
3.833026170730591,-0.00033283233642578125,-0.017528250813484192,0.014765679836273193,-0.014249629341065884,-0.003824109211564064,-0.05528925731778145,-0.2100639931417512,0.4476196003809436,0.1092616250237127
3.843142032623291,4.267692565917969e-05,-0.015352427959442139,0.015156149864196777,-0.026192842051386833,-0.0018017045222222805,-0.057191818952560425,-0.21042919035224852,0.44750803640393855,0.10882409092111747
3.8528621196746826,0.0039511024951934814,-0.01302047073841095,0.015652179718017578,-0.035320259630680084,0.002157172653824091,-0.05321667715907097,-0.21088439309121143,0.4474311404713522,0.10844865247886477
3.8635871410369873,0.004849910736083984,-0.009182050824165344,0.010076045989990234,-0.05941281467676163,-0.014826871454715729,-0.059086281806230545,-0.2114219319843833,0.4473149775071294,0.10815744742557307
3.8741140365600586,0.008979976177215576,-0.008493661880493164,0.010185599327087402,-0.07360436767339706,-0.010683347471058369,-0.06371704488992691,-0.21223174111077586,0.4471619550501327,0.10787856841355434
3.8832550048828125,0.010617643594741821,-0.018000587821006775,0.011025011539459229,-0.09209629148244858,-0.014698063023388386,-0.06387417018413544,-0.21323151949672264,0.44700008649638195,0.10766524167480905
3.89306902885437,0.009937196969985962,-0.013643652200698853,0.010795831680297852,-0.11109701544046402,-0.00436118058860302,-0.056559957563877106,-0.21433176533386986,0.4468997925343657,0.10755318372248293
3.9033310413360596,0.009265810251235962,-0.002004459500312805,0.005738735198974609,-0.10261271893978119,-0.0035065719857811928,-0.044102489948272705,-0.215319035841478,0.44689915540341957,0.10757711573021068
3.9137260913848877,0.010157018899917603,0.0026204735040664673,0.003928959369659424,-0.08474380522966385,-0.015764836221933365,-0.0389489009976387,-0.2160672634475317,0.4468320512756093,0.10760965610786849
3.9242050647735596,0.01342540979385376,0.0058425068855285645,0.007011711597442627,-0.06392507255077362,-0.027669165283441544,-0.03183825686573982,-0.21659597389813406,0.44662448604759875,0.10761265595868448
3.9330551624298096,0.016455501317977905,0.010061532258987427,0.008536696434020996,-0.03844396397471428,-0.026482151821255684,-0.023678384721279144,-0.21688506502839386,0.4463850634303255,0.10759485066306704
3.943068027496338,0.01367977261543274,0.009130984544754028,0.005984961986541748,-0.016762372106313705,-0.02796046994626522,-0.01987645775079727,-0.2169473069683142,0.44614755631908976,0.10752045662560214
3.9530179500579834,0.011158794164657593,0.005989685654640198,0.005344569683074951,-0.003275675233453512,-0.04246852919459343,-0.01626579836010933,-0.21688275336775378,0.4458500688924608,0.1074102301292997
3.962963819503784,0.012768805027008057,0.008470013737678528,0.01140981912612915,0.0001398290041834116,-0.052671097218990326,-0.013555497862398624,-0.21654604789066767,0.44540750122545975,0.10729807948899422
3.973932981491089,0.013301491737365723,0.010764062404632568,0.014860212802886963,-0.011236928403377533,-0.052365366369485855,-0.008851290680468082,-0.2163688383507844,0.44494039135210606,0.10723819294059639
3.983003854751587,0.007704377174377441,0.008022099733352661,0.014447808265686035,-0.025320256128907204,-0.03880934417247772,-0.00698707764968276,-0.21653594197977405,0.444573894867659,0.10726327499965846
3.992964029312134,0.0010732710361480713,0.000705331563949585,0.011382997035980225,-0.028387419879436493,-0.025787286460399628,-0.00377424038015306,-0.216872052019984,0.4443768500376397,0.10735517986040365
4.003008127212524,-0.0019144713878631592,0.0019790083169937134,0.010496795177459717,-0.014840452000498772,-0.025898607447743416,-0.0018956465646624565,-0.2172240716449158,0.44428928545955404,0.10746555250543875
4.013149976730347,-0.0017706453800201416,0.012231305241584778,0.0082436203956604,0.0008929709438234568,-0.028737004846334457,-0.0037601254880428314,-0.21752262620122326,0.44417485120861305,0.10751121966159467
4.024823904037476,0.0013282299041748047,0.012696117162704468,0.009639501571655273,0.01851244457066059,-0.02314569801092148,-0.0038179161492735147,-0.21764042272690365,0.4440299368591614,0.10746508913744526
4.033157110214233,-0.0021678507328033447,0.008287429809570312,0.013992607593536377,0.03147338330745697,-0.017228953540325165,-0.0034768185578286648,-0.21754551598682909,0.44391821125313025,0.10734423598728493
4.0431740283966064,-0.008223474025726318,0.009983882308006287,0.013732492923736572,0.033556774258613586,-0.02610580064356327,-0.004527968354523182,-0.21744897361203558,0.4438191604224404,0.10719831388288134
4.053115129470825,-0.0061553120613098145,0.010594785213470459,0.015133082866668701,0.027906278148293495,-0.029984693974256516,-0.007568606175482273,-0.21743279324617895,0.443652396328628,0.10703086538630614
4.063215970993042,-0.0014837682247161865,0.003900378942489624,0.016866207122802734,0.012963282875716686,-0.02994661033153534,-0.008629076182842255,-0.21747535492585293,0.44342928427347683,0.10689626245204945
4.074275016784668,-0.004679054021835327,-0.0004115849733352661,0.01525038480758667,-0.008405306376516819,-0.02002522721886635,-0.007245350629091263,-0.21753143037064254,0.4432173005550238,0.10681361428710755
4.083337068557739,-0.010166913270950317,-0.006015151739120483,0.013244569301605225,-0.029390748590230942,-0.003445984795689583,-0.005184330977499485,-0.2178164076405791,0.44313743717804427,0.10684496845568146
4.093241930007935,-0.011351317167282104,-0.008603304624557495,0.005756497383117676,-0.03072119690477848,0.011128430254757404,0.00045555178076028824,-0.2183574491977512,0.4432396572172602,0.10697595762226951
4.10318398475647,-0.009198784828186035,-0.006939753890037537,0.004713594913482666,-0.010724053718149662,0.01449706219136715,0.007770989090204239,-0.2187791172631063,0.4434560131192145,0.10711785982936092
4.113270044326782,-0.009071290493011475,-0.001308351755142212,0.010603547096252441,0.014521930366754532,0.014485921710729599,0.0171374324709177,-0.2188719862583956,0.44366735200523927,0.10723863155795149
4.123985052108765,-0.008925706148147583,0.006823882460594177,0.012007653713226318,0.025746889412403107,0.017952557653188705,0.02278493158519268,-0.21877891028452762,0.4438558408898735,0.10733847299984073
4.133335828781128,-0.006623566150665283,0.0025356709957122803,0.006373047828674316,0.030743196606636047,0.021436728537082672,0.021950403228402138,-0.21862310777255373,0.4440839176396826,0.10741825980431607
4.14325213432312,-0.004463523626327515,-0.006167858839035034,0.0034213662147521973,0.03014877811074257,0.0229206420481205,0.024703048169612885,-0.2183479133442369,0.4443739728877134,0.10750969998574339
4.15336799621582,-0.002126932144165039,-0.003958955407142639,0.0023041367530822754,0.028168151155114174,0.01441317331045866,0.02731821872293949,-0.21800779541733056,0.44461281497489047,0.10762511497193915
4.163349866867065,0.0037979483604431152,0.0001713186502456665,0.0024930834770202637,0.016876347362995148,0.004488637205213308,0.027388792484998703,-0.21762205451154923,0.44470553857915357,0.10776106121455661
4.1747658252716064,0.007336050271987915,-0.000782698392868042,0.0014552474021911621,0.0008394748438149691,0.0005489788018167019,0.02236953377723694,-0.21733330865346148,0.44469464549719784,0.10793882278407471
4.1833789348602295,0.00914067029953003,-0.0032803118228912354,-0.0003040432929992676,-0.02129671908915043,0.002114118542522192,0.01846693642437458,-0.21726585681823268,0.4447002430645241,0.10816803156861782
4.193320035934448,0.0061734020709991455,-0.00981360673904419,-0.0017665624618530273,-0.04089711979031563,0.007516784127801657,0.01518192794173956,-0.21753412151982765,0.44478842998940776,0.10845798441407167
4.203343152999878,0.0023916661739349365,-0.011538445949554443,-0.0005788803100585938,-0.041714444756507874,0.009280595928430557,0.009097669273614883,-0.21803482012825903,0.44492506772075585,0.10875008312479507
4.213483095169067,0.00040265917778015137,-0.006274014711380005,0.0019083023071289062,-0.026346854865550995,0.004461828153580427,0.005688716657459736,-0.21837851572115766,0.4450194024105225,0.10896364493944195
4.2239930629730225,-0.0022224485874176025,-0.0017914623022079468,0.002163529396057129,-0.01740902103483677,0.003871138906106353,-0.003911712672561407,-0.21849155376296087,0.4450493908871075,0.10906326788025081
4.233432054519653,-0.0026424825191497803,-0.0032454729080200195,0.0024720430374145508,-0.003267885185778141,0.007168088108301163,-0.010475127026438713,-0.21855858398358588,0.4450828947245136,0.10904024885856131
4.243432998657227,-0.006725311279296875,-0.006747156381607056,0.00394749641418457,0.012806156650185585,0.007776886690407991,-0.014179583638906479,-0.21856620500066876,0.44516292618206144,0.10890736861153096
4.253424882888794,-0.010410010814666748,-0.004123061895370483,0.0054479241371154785,0.016986370086669922,0.006838965229690075,-0.016935156658291817,-0.218472856256725,0.44523062134433317,0.10870599855512844
4.263447046279907,-0.009788542985916138,-0.004396498203277588,0.007487833499908447,0.019607454538345337,0.007322062738239765,-0.01694447733461857,-0.21829967308547346,0.4452862667369302,0.10848663996641257
4.274090051651001,-0.00945022702217102,-0.008914843201637268,0.008324921131134033,0.021993862465023994,0.013428114354610443,-0.013998115435242653,-0.21800448193225141,0.44535591681376224,0.10825016454617167
4.283556938171387,-0.013306528329849243,-0.011242285370826721,0.006575644016265869,0.01654263772070408,0.019683614373207092,-0.012277979403734207,-0.2177158704120736,0.4454765956418129,0.10804303524139318
4.293856859207153,-0.014631509780883789,-0.009966596961021423,0.0030733346939086914,0.014882439747452736,0.02803897112607956,-0.008956965059041977,-0.21755014879140344,0.4456813319646013,0.1078740682456563
4.303264856338501,-0.014441758394241333,-0.01131536066532135,-0.0006651878356933594,0.017174355685710907,0.04134652018547058,-0.004564613103866577,-0.21743127088668232,0.44599029879712837,0.10774914173472609
4.313724040985107,-0.013722389936447144,-0.01128050684928894,-0.004383504390716553,0.02839556895196438,0.04117860645055771,-0.001074434258043766,-0.21722369905554212,0.44636429048410525,0.1076161129700591
4.324495077133179,-0.011263132095336914,-0.0016256123781204224,-0.005789697170257568,0.04647284001111984,0.03903555870056152,0.0007112151943147182,-0.21682142986832492,0.4466999896037838,0.10744814892466571
4.33346700668335,-0.008105248212814331,0.004061579704284668,-0.006361424922943115,0.06051277369260788,0.02434898354113102,-0.008577677421271801,-0.21632591425392136,0.44690840010851374,0.10715473195178052
4.3435938358306885,-0.006600409746170044,0.0016837716102600098,-0.0027260184288024902,0.05728369206190109,0.009564444422721863,-0.014221182093024254,-0.21582338717006666,0.4469487253556086,0.10677452206834401
4.353407144546509,-0.003560304641723633,0.002653270959854126,0.0008140206336975098,0.04227253422141075,-0.0008220169693231583,-0.022496795281767845,-0.21537763289329415,0.44686320255009176,0.10637648314376413
4.3637778759002686,-0.0018576383590698242,0.0012390613555908203,-0.00015467405319213867,0.02723073586821556,-0.010226704180240631,-0.035435497760772705,-0.2150915095417966,0.44664987319050975,0.10593676069582139
4.374197959899902,-0.001540452241897583,-0.003696620464324951,-0.0016224384307861328,0.014011070132255554,-0.021840305998921394,-0.04848051071166992,-0.21500506398452485,0.44629824694379505,0.10543608422068587
4.383587121963501,-0.00045186281204223633,-0.004026472568511963,-0.00292360782623291,0.004994671791791916,-0.022015009075403214,-0.05034339055418968,-0.21503032308260087,0.4458621711128646,0.10490383929259382
4.393738031387329,0.0010970234870910645,-0.0012175440788269043,-0.009515345096588135,0.005273571237921715,-0.023691201582551003,-0.04981251806020737,-0.21507584314951095,0.4454426859146767,0.10439720256046238
4.4036149978637695,0.0020343661308288574,-0.002286091446876526,-0.019396424293518066,0.014505152590572834,-0.030225802212953568,-0.043972473591566086,-0.21518561048383456,0.44501404899139185,0.10391132970971598
4.4138500690460205,0.006565183401107788,-0.0028308629989624023,-0.017212510108947754,0.02076900750398636,-0.042518243193626404,-0.03297164663672447,-0.2152590544775007,0.4445038185536373,0.10345733611090324
4.424718141555786,0.0097694993019104,-0.0017165988683700562,-0.009362518787384033,0.03293566033244133,-0.04678649082779884,-0.01904943957924843,-0.21514932934491302,0.4439561806558041,0.10309370570136897
4.43364405632019,0.009292393922805786,-0.006280988454818726,-0.0006532669067382812,0.032003916800022125,-0.04798455908894539,-0.007097385823726654,-0.21494835741261872,0.44343843228669144,0.1028277657302351
4.443685054779053,0.00781509280204773,-0.01229541003704071,0.004216551780700684,0.026541242375969887,-0.05768672004342079,0.0029573787469416857,-0.21470098996597453,0.44289104924892,0.10268320618794714
4.45362401008606,0.01173350214958191,-0.014415755867958069,0.0082017183303833,0.008492667227983475,-0.059599753469228745,0.011200660839676857,-0.21446609818050788,0.4422999675195791,0.10267458721009239
4.4640281200408936,0.014639109373092651,-0.01802752912044525,0.00958472490310669,-0.00016766623593866825,-0.05426650866866112,0.015050793066620827,-0.21432088853410486,0.44175940778303047,0.1027825499542766
4.475291967391968,0.013324260711669922,-0.024003461003303528,0.008653521537780762,-0.002680158941075206,-0.04935351014137268,0.018269915133714676,-0.2142371587935009,0.4412874091352147,0.10294940501505667
4.4838621616363525,0.013094395399093628,-0.02278171479701996,0.0110817551612854,0.0002703573554754257,-0.051545023918151855,0.02870950661599636,-0.21407994208407433,0.4408060950554749,0.10316564977115508
4.493801832199097,0.016229063272476196,-0.012295246124267578,0.014491796493530273,0.009553637355566025,-0.04579881206154823,0.03780047222971916,-0.2138263327865897,0.44039285073615947,0.10346136526260365
4.503710031509399,0.01800006628036499,-0.00848264992237091,0.013344347476959229,0.014616305939853191,-0.04143469035625458,0.03757117688655853,-0.2135162020521379,0.4400666206397992,0.1037733418692946
4.513803958892822,0.016798347234725952,-0.012088745832443237,0.012916386127471924,0.011628922075033188,-0.03257785737514496,0.03677808865904808,-0.21317785460601307,0.4398208298250915,0.10406513636780221
4.524194002151489,0.012426674365997314,-0.010898545384407043,0.01798635721206665,0.007858951576054096,-0.025954311713576317,0.036683544516563416,-0.21280317507018073,0.4396533539559327,0.1043771276786966
