timestamp,accel_x,accel_y,accel_z,rotation_x,rotation_y,rotation_z, pitch,roll,yaw
0.04138374328613281,0.01406174898147583,-0.012462936341762543,0.014153122901916504,-0.05054308474063873,0.05340995639562607,-0.021012168377637863,0.07146024132945847,0.06980643595738978,-0.002496266168254919
0.05524086952209473,0.01428021490573883,-0.01474837213754654,0.015651404857635498,-0.06863153725862503,0.05552849918603897,-0.024170944467186928,0.07086703376682162,0.07036601199233998,-0.002673193175209029
0.06745195388793945,0.016672387719154358,-0.015162229537963867,0.017161786556243896,-0.08723095804452896,0.05321172624826431,-0.033681515604257584,0.07008502327513326,0.07093296955943572,-0.0029059560464713735
0.07501482963562012,0.016014300286769867,-0.01668296754360199,0.017458558082580566,-0.09939148277044296,0.06013061851263046,-0.0398390106856823,0.06914182684060859,0.07154362792832346,-0.003200993103192273
0.07714581489562988,0.013293951749801636,-0.01714569330215454,0.019263863563537598,-0.0969187393784523,0.06609503924846649,-0.03894765302538872,0.06814269682294324,0.07221771132126475,-0.0035214787952315162
0.08249998092651367,0.010095782577991486,-0.01267705112695694,0.01634591817855835,-0.08758994936943054,0.06871345639228821,-0.03686719015240669,0.06720758151926078,0.0729275922980347,-0.0038306190106707156
0.0889887809753418,0.008896566927433014,-0.005809001624584198,0.012991845607757568,-0.07780686765909195,0.07098912447690964,-0.03326664865016937,0.06636807142337646,0.07365324653217033,-0.004121054570764228
0.09903097152709961,0.00838635116815567,-0.005099549889564514,0.008926987648010254,-0.07702256739139557,0.07817433029413223,-0.030804025009274483,0.06559573639535797,0.07442287762370128,-0.004384860867963725
0.10904884338378906,0.004093684256076813,-0.008689768612384796,0.007118344306945801,-0.09121157974004745,0.08603358268737793,-0.03106815740466118,0.06475031321462044,0.07526709819239531,-0.00462701561711121
0.11905670166015625,0.0018410161137580872,-0.012191548943519592,0.0068860650062561035,-0.1091168150305748,0.08727940917015076,-0.03554146736860275,0.06374891025670051,0.07616127386764367,-0.0048815571111263285
0.1290128231048584,0.002618134021759033,-0.017504505813121796,0.010669350624084473,-0.11289855092763901,0.09657318145036697,-0.03943362459540367,0.0626145974306576,0.07710757496337181,-0.005172727587296952
0.13906574249267578,0.0031889155507087708,-0.01706140860915184,0.010892689228057861,-0.10056811571121216,0.082785464823246,-0.04104510322213173,0.061529728507247965,0.07804682178557314,-0.005485590490768546
0.14907288551330566,0.00620732456445694,-0.010801438242197037,0.009911596775054932,-0.08251290023326874,0.06680778414011002,-0.048726193606853485,0.060601074647531596,0.07882726631222159,-0.005862550867738497
0.1591188907623291,0.01081576943397522,-0.006769198924303055,0.01065438985824585,-0.0780920535326004,0.06421040743589401,-0.05130120366811752,0.05977952997234435,0.07951309720938741,-0.006304477281452599
0.16903972625732422,0.010463051497936249,-0.007488477975130081,0.008010029792785645,-0.08459313958883286,0.06262320280075073,-0.05104127898812294,0.05895197980194229,0.08018564704060828,-0.006747359598934041
0.1790456771850586,0.00915449857711792,-0.01223655417561531,0.006941616535186768,-0.09818005561828613,0.06545361131429672,-0.06210458278656006,0.05801700894588202,0.08086757507216352,-0.0072390405848192325
0.1889510154724121,0.007185600697994232,-0.019822686910629272,0.011381685733795166,-0.11453178524971008,0.07032298296689987,-0.06211395561695099,0.05764765859234214,0.08151040747617112,-0.007764262993344673
0.19908475875854492,0.006193168461322784,-0.020002424716949463,0.01214897632598877,-0.12792962789535522,0.07422024756669998,-0.059505656361579895,0.0572536534990611,0.0821072460127393,-0.008263087190957924
0.20905089378356934,0.007568001747131348,-0.016171187162399292,0.011852145195007324,-0.1416405588388443,0.07372099161148071,-0.057939186692237854,0.05691869461874106,0.082794225524022,-0.008736939782054772
0.219282865524292,0.011067897081375122,-0.018415890634059906,0.010661959648132324,-0.15821661055088043,0.07803425192832947,-0.05311007425189018,0.056366831690208306,0.08353743285653364,-0.009172699424872694
0.22916793823242188,0.0141521617770195,-0.018163111060857773,0.011164188385009766,-0.17552900314331055,0.07823164016008377,-0.046882275491952896,0.05533626183362191,0.08442010526694593,-0.009533354062252183
0.2392129898071289,0.01811450719833374,-0.016056016087532043,0.012816548347473145,-0.19505184888839722,0.06825943291187286,-0.046820223331451416,0.05396230745443661,0.08543091458783976,-0.00985279814402113
0.249176025390625,0.020583726465702057,-0.018079359084367752,0.020603597164154053,-0.2176744043827057,0.06483495980501175,-0.04638645052909851,0.05240979113393271,0.08633139826964725,-0.010150091760227043
0.2592158317565918,0.01903722435235977,-0.0196479931473732,0.026473581790924072,-0.23136970400810242,0.06686002761125565,-0.05108293145895004,0.0508390587114636,0.08714257333648535,-0.010444700274317709
0.26929783821105957,0.016406483948230743,-0.017804589122533798,0.0247194766998291,-0.23809482157230377,0.0745687186717987,-0.048070311546325684,0.04943057551198111,0.08794015035685569,-0.010735213294642656
0.2792549133300781,0.011477090418338776,-0.013675522059202194,0.01487421989440918,-0.22969254851341248,0.08105058968067169,-0.04384733736515045,0.04800374991761801,0.08876298207812089,-0.010986792763671321
0.28954267501831055,0.012412361800670624,0.0009195767343044281,0.005944490432739258,-0.21485179662704468,0.08960435539484024,-0.031244246289134026,0.04662134766257592,0.0897035012478275,-0.011167168243285478
0.29943275451660156,0.01468486338853836,0.006268322467803955,0.0019704699516296387,-0.18884336948394775,0.09481243044137955,-0.018353747203946114,0.045575552857543805,0.09081983669585351,-0.011239501479670065
0.30949974060058594,0.014776013791561127,0.01130901649594307,0.0006688237190246582,-0.14917269349098206,0.09063908457756042,-0.0028980919159948826,0.04489349566479579,0.09204448213842778,-0.0112068816761526
0.3193848133087158,0.016364246606826782,0.01560349389910698,0.0024803876876831055,-0.10304141044616699,0.07034420222043991,0.0189113337546587,0.044533686079034546,0.0932535136490565,-0.011037930911319374
0.32932186126708984,0.018871866166591644,0.02424122393131256,0.01051020622253418,-0.053289834409952164,0.06786692887544632,0.03993725776672363,0.04468767937655053,0.09444558612902523,-0.010692102396433034
0.3398559093475342,0.015386320650577545,0.029727846384048462,0.00966554880142212,-0.0035995107609778643,0.06080741435289383,0.06576991826295853,0.04530737996751554,0.0954981773549633,-0.010148477835233006
0.3494997024536133,0.010284863412380219,0.019966479390859604,0.007284224033355713,0.012414142489433289,0.062426529824733734,0.08168262243270874,0.04612120243869034,0.09639683877797268,-0.009421407949938745
0.3594968318939209,0.004903443157672882,0.01238802820444107,0.008247077465057373,-0.001492617535404861,0.07446402311325073,0.09927013516426086,0.04676793775940695,0.09717750248060585,-0.008534655579554152
0.3696327209472656,0.0014433935284614563,0.0008801966905593872,0.007170379161834717,-0.032504912465810776,0.08434048295021057,0.1125929206609726,0.046673577077266416,0.09809426745161451,-0.007462686830430727
0.3794879913330078,-0.0021013393998146057,-0.013809401541948318,0.006376922130584717,-0.06534568220376968,0.08818422257900238,0.12217337638139725,0.04609773787969608,0.09914012833753945,-0.006242124097457965
0.38950490951538086,-0.002015039324760437,-0.022849973291158676,0.008684992790222168,-0.088326595723629,0.0813598707318306,0.1296691596508026,0.04506696056040438,0.10018456026062676,-0.004917345153092311
0.39958882331848145,0.0017253831028938293,-0.026682589203119278,0.009276151657104492,-0.11088436841964722,0.060301728546619415,0.14058199524879456,0.04373547473739162,0.10111300700545985,-0.0034771331983173798
0.40952086448669434,0.009433574974536896,-0.039148494601249695,0.006261348724365234,-0.11494627594947815,0.030277561396360397,0.16006530821323395,0.04207126176251536,0.10190150955194993,-0.0018861071492272197
0.4199819564819336,0.02006898820400238,-0.032395269721746445,0.0002945065498352051,-0.10904204845428467,0.0029945403803139925,0.17340801656246185,0.040369671263147416,0.10229342032519395,-0.00012424396152488983
0.4295918941497803,0.02356698364019394,-0.026151638478040695,-0.0009483695030212402,-0.12815234065055847,-0.01807217299938202,0.1841728389263153,0.03898281448239641,0.10229936913505044,0.0017704007432354676
0.43950986862182617,0.02106599509716034,-0.03098830208182335,0.001246333122253418,-0.16533352434635162,-0.041932765394449234,0.18297041952610016,0.037608889814565574,0.10193946033657342,0.003755186509614454
0.44957876205444336,0.018098779022693634,-0.03778822347521782,0.004246354103088379,-0.20471136271953583,-0.05829567089676857,0.17640380561351776,0.036179087310280335,0.10131185184588681,0.005724789213601372
0.4596898555755615,0.018795818090438843,-0.0348636656999588,0.0074378252029418945,-0.23383063077926636,-0.060180652886629105,0.1775313913822174,0.034799796003086365,0.10055979621254173,0.0077033477846003675
0.46987295150756836,0.01793482154607773,-0.02776840329170227,0.007798433303833008,-0.2411675900220871,-0.06631626933813095,0.18501770496368408,0.033532505741324596,0.09982544582447846,0.009752643317103191
0.4796619415283203,0.01910138875246048,-0.01694723591208458,0.007118701934814453,-0.21985697746276855,-0.06781110167503357,0.19083431363105774,0.032466493788542175,0.09918593180335909,0.011862999026843775
0.4897449016571045,0.022257491946220398,-0.0054030753672122955,0.008936941623687744,-0.17814505100250244,-0.0606805793941021,0.19591130316257477,0.03204754850956819,0.09883420607370347,0.013978167589313483
0.4997696876525879,0.014681845903396606,0.006065424531698227,0.00878608226776123,-0.14071166515350342,-0.041396092623472214,0.19911642372608185,0.03178190202701741,0.09890205501920625,0.01609319473319633
0.5097637176513672,0.000944875180721283,0.02130752056837082,0.008695662021636963,-0.1122465506196022,-0.024718359112739563,0.18711227178573608,0.031643068979617515,0.0992432205804999,0.018138677445067496
0.5201387405395508,-0.005353115499019623,0.023242875933647156,0.00994342565536499,-0.09163101762533188,-0.005531348288059235,0.16938281059265137,0.03167109197367964,0.09957692805943331,0.020008589579653263
0.5296928882598877,-0.006054311990737915,0.025506556034088135,0.011462688446044922,-0.08155279606580734,0.013756552711129189,0.15117190778255463,0.03173754160225951,0.0999293051586632,0.021691656759934258
0.5398538112640381,-0.006668649613857269,0.030768103897571564,0.01433563232421875,-0.08787354081869125,0.03236192837357521,0.12956967949867249,0.03158214020481455,0.10039312283909213,0.02317465258594948
0.5499167442321777,-0.005454704165458679,0.026959525421261787,0.015673577785491943,-0.09987442940473557,0.057567816227674484,0.10936751961708069,0.03116080546829553,0.10102768289470149,0.024437009304180343
0.559788703918457,-0.0018012970685958862,0.019553791731595993,0.014829277992248535,-0.08640016615390778,0.06813603639602661,0.09744028747081757,0.03056020331113607,0.10186317042693643,0.025555047009818223
0.5699939727783203,0.0033060461282730103,0.024502955377101898,0.014395415782928467,-0.04579538479447365,0.07084864377975464,0.08911588042974472,0.030077017250275437,0.10281750758887245,0.02654444902880055
0.5797886848449707,0.0066124871373176575,0.035243064165115356,0.014376401901245117,-0.011874967254698277,0.07284840941429138,0.08303695172071457,0.02983069071006998,0.1036655875121674,0.02742540113134216
0.5900897979736328,0.00703033059835434,0.03907730430364609,0.012982487678527832,0.0046700369566679,0.08112600445747375,0.07296748459339142,0.029621255795815902,0.10436508177037274,0.028204956584476262
0.599876880645752,0.0022581592202186584,0.03344474732875824,0.01050490140914917,0.01182595081627369,0.08522380888462067,0.06402112543582916,0.029451273740713563,0.10505142564073384,0.02888111221245785
0.6098437309265137,0.0005367547273635864,0.02364320494234562,0.010406255722045898,-0.006075617857277393,0.08441270142793655,0.04446148872375488,0.02906423725930252,0.10566139260968291,0.02943065453840645
0.6201686859130859,0.0035828575491905212,0.016985144466161728,0.015145957469940186,-0.03670356795191765,0.08414744585752487,0.02645212784409523,0.02821943011948515,0.1062325012203416,0.029813412007560065
0.6298568248748779,0.003038272261619568,0.01405494287610054,0.016463637351989746,-0.07195394486188889,0.08972690254449844,0.01447898056358099,0.02716565592379952,0.10688473750782965,0.030080015317065497
0.6398708820343018,0.001192726194858551,0.005178654566407204,0.014568150043487549,-0.10781288146972656,0.08807361125946045,0.007825339213013649,0.025933584107287033,0.10764806884176367,0.030288384597086607
0.6497716903686523,0.003726482391357422,-0.00019365735352039337,0.010075032711029053,-0.12421325594186783,0.0836782455444336,0.009382967837154865,0.024360214420312484,0.10850274967562341,0.030501064817673253
0.6600558757781982,0.0065595731139183044,0.003431364893913269,0.011456310749053955,-0.11545838415622711,0.07970134913921356,0.02255736105144024,0.022552608831801716,0.10937836838705242,0.030785972748163814
0.6701078414916992,0.006949909031391144,0.005259918048977852,0.011818230152130127,-0.09529104828834534,0.06498263031244278,0.03724506497383118,0.020886506567294107,0.11016390815570232,0.031191534580341344
0.6800549030303955,0.010809086263179779,0.01251584105193615,0.012364685535430908,-0.07473836839199066,0.053830377757549286,0.04938002675771713,0.019612503630227075,0.1106997907895368,0.03171953313552575
0.6899247169494629,0.014696471393108368,0.01170460693538189,0.014317750930786133,-0.08215876668691635,0.05378936603665352,0.05410894751548767,0.01861798506419732,0.11114662310933372,0.03232558291039741
0.6999130249023438,0.00981813669204712,0.0020265113562345505,0.01709616184234619,-0.10453277826309204,0.0625932440161705,0.05459976941347122,0.017621972304221276,0.11170828043826463,0.03297855939139563
0.7099277973175049,0.0010221675038337708,-0.00863705389201641,0.019998908042907715,-0.13376902043819427,0.0802655816078186,0.053791020065546036,0.016418681830170034,0.11240400511292209,0.03365839160389535
0.7200727462768555,-0.008154064416885376,-0.005586489103734493,0.016498267650604248,-0.14700625836849213,0.08315245062112808,0.05712103843688965,0.015181376859259407,0.1131754516363745,0.03437521195521866
0.729956865310669,-0.009709559381008148,-0.0009761424735188484,0.0068558454513549805,-0.13718421757221222,0.0819392055273056,0.053874481469392776,0.014023774883614247,0.11398666550335797,0.03508314043315051
0.7400217056274414,-0.006134971976280212,0.003115142695605755,-0.002684295177459717,-0.11742942780256271,0.07159335911273956,0.05974195897579193,0.012957492377341435,0.11481042047547628,0.0357816887747217
0.7498908042907715,-0.003042668104171753,0.008768047206103802,-0.009012341499328613,-0.09941532462835312,0.059741709381341934,0.05507034808397293,0.012033787341878871,0.11553634995092804,0.036474130068730175
0.7600469589233398,-0.00021494925022125244,0.007461860775947571,-0.013985276222229004,-0.09055684506893158,0.04894392192363739,0.05336911976337433,0.011032709625012228,0.11628291363995547,0.03712478340569864
0.7701268196105957,0.002980276942253113,0.0011016316711902618,-0.0148811936378479,-0.08533775061368942,0.034501686692237854,0.0517616905272007,0.010135077772758587,0.11698235626433019,0.03774687298549034
0.780026912689209,0.005747772753238678,-0.0004053683951497078,-0.01164931058883667,-0.08730103075504303,0.028838476166129112,0.04983249679207802,0.009497795981223568,0.11745225022205508,0.038350441310472806
0.7900478839874268,0.007039718329906464,-0.006055407226085663,-0.009472310543060303,-0.09322691708803177,0.025011204183101654,0.05424061417579651,0.009096764738032503,0.11765664423266135,0.03898434150344374
0.8000926971435547,0.0008217394351959229,-0.006596594117581844,-0.012759029865264893,-0.09046041965484619,0.02534622885286808,0.05691069737076759,0.008570816669032894,0.11761771009945567,0.039641449419740266
0.8106727600097656,-0.0052548423409461975,-0.004393331706523895,-0.016073405742645264,-0.08473353832960129,0.029606621712446213,0.057794760912656784,0.007935923760886605,0.11755923630225587,0.04031993883137929
0.8202798366546631,-0.005526743829250336,-0.0009140628390014172,-0.018850982189178467,-0.05933258309960365,0.029577327892184258,0.06270483136177063,0.0073410749114158885,0.11760200848075075,0.04099663866658709
0.8300528526306152,-0.004091538488864899,0.002683737315237522,-0.02053147554397583,-0.030115175992250443,0.013796410523355007,0.06438997387886047,0.006880027261464468,0.11764684145615549,0.04168550762691077
0.8401088714599609,-0.0011263862252235413,0.009419873356819153,-0.019692063331604004,-0.011854943819344044,0.006575515493750572,0.06501608341932297,0.006673410196587361,0.1176570628845156,0.04235834647683532
0.8501348495483398,0.002175047993659973,0.010028354823589325,-0.01754540205001831,-0.014301739633083344,-0.0022472264245152473,0.06801053881645203,0.0066867983645847095,0.11769759532326278,0.04305158925853514
0.8602137565612793,0.002798892557621002,0.0036419937387108803,-0.013446033000946045,-0.028696658089756966,-0.00954268965870142,0.06579186022281647,0.006632831588206446,0.11774541949138165,0.04373749417561636
0.8703470230102539,0.004163496196269989,-0.0035993382334709167,-0.00612407922744751,-0.04469754546880722,-0.014958892948925495,0.06058431789278984,0.006547870380380817,0.1177694647847347,0.044418447388660014
0.8802108764648438,0.00438496470451355,-0.006881080102175474,0.0028681159019470215,-0.04170148819684982,-0.01246111374348402,0.06349621713161469,0.006378921575023813,0.11760778538486542,0.045093377336523806
0.8902769088745117,0.004473209381103516,-0.0050270333886146545,0.005038797855377197,-0.01945420727133751,-0.012742078863084316,0.0742298811674118,0.006279838014562903,0.1173191131900733,0.04581537087428294
0.9001250267028809,0.002714678645133972,0.0018014078959822655,0.00014507770538330078,0.009911671280860901,-0.015322946943342686,0.08477972447872162,0.0063791572581674795,0.11701569478402045,0.04661947615495147
0.9111957550048828,0.0037871599197387695,0.010832924395799637,-0.002755105495452881,0.022856347262859344,-0.009624004364013672,0.09343419224023819,0.006606356091840668,0.1167502753677428,0.04748771046159032
0.9202888011932373,0.0029176175594329834,0.011045727878808975,-0.0050019025802612305,0.033090341836214066,0.0008451472967863083,0.10276377946138382,0.006758129691862316,0.11664264741275539,0.04842544087343007
0.9301557540893555,-0.0008034035563468933,0.0057417056523263454,-0.0014458894729614258,0.030134769156575203,-0.008837839588522911,0.10206390172243118,0.006947273426124198,0.11662529359140518,0.04941234265509091
0.9401516914367676,0.00014211982488632202,0.0032661762088537216,0.00427931547164917,0.02855045348405838,-0.009664751589298248,0.09978663176298141,0.00724885363975694,0.11657998001859214,0.050370898916985395
0.9501447677612305,0.004605211317539215,0.0036084079183638096,0.006919920444488525,0.02879226766526699,-0.019504865631461143,0.10287030786275864,0.00772842605878481,0.11654209450758035,0.0513438500218941
0.9602057933807373,0.004894934594631195,0.004985548555850983,0.004115462303161621,0.021044066175818443,-0.018509643152356148,0.10226656496524811,0.00822057583159946,0.11648129954209942,0.0523349816477328
0.970451831817627,0.004357188940048218,0.004015999846160412,0.0061599016189575195,0.02118166908621788,-0.015891265124082565,0.10584884136915207,0.008624329965146962,0.11645467660702861,0.053345125422717736
0.9802579879760742,0.002746373414993286,0.0030569937080144882,0.003805696964263916,0.028369806706905365,-0.018230319023132324,0.10469436645507812,0.008886039621989847,0.1163407487647704,0.054361309079383545
0.9902858734130859,-0.00013884156942367554,0.008906209841370583,0.004421055316925049,0.05801558494567871,-0.018306221812963486,0.11236266791820526,0.009104771195910579,0.11628083927365845,0.055382302286419514
1.0008668899536133,0.0006648227572441101,0.009777319617569447,0.0015059113502502441,0.08109373599290848,-0.021118786185979843,0.11568149924278259,0.009579170231516132,0.11611744625446008,0.056439851953331094
1.0103259086608887,0.0028713643550872803,0.015044559724628925,0.004811286926269531,0.09829682856798172,-0.03241049870848656,0.12345989793539047,0.010406144667872439,0.11583253959284132,0.057524650710620594
1.0205168724060059,0.00574328750371933,0.012876709923148155,0.005145668983459473,0.08932171016931534,-0.0387866385281086,0.12108621746301651,0.011335884909839033,0.11549244868987543,0.05863855095166884
1.0303268432617188,0.004426851868629456,0.003013353794813156,0.009250998497009277,0.05933859199285507,-0.033327825367450714,0.12080845981836319,0.012046916011516175,0.11528255020714531,0.05975744735727361
1.0404808521270752,0.005188554525375366,-0.0055972374975681305,0.01289975643157959,0.020108098164200783,-0.033519573509693146,0.11176702380180359,0.012362742319323619,0.11509989898267547,0.06087218158757273
1.0504028797149658,0.005955904722213745,-0.008495483547449112,0.01791173219680786,-0.0170123390853405,-0.033712562173604965,0.09977209568023682,0.012302628079088185,0.11491103916996427,0.06192064635082265
1.0619807243347168,0.004200592637062073,-0.0113246263936162,0.023111820220947266,-0.04668954014778137,-0.023595213890075684,0.09165984392166138,0.0119301215423843,0.11471138537763441,0.06290434911930842
1.0714008808135986,0.0035035163164138794,-0.012841232120990753,0.024133026599884033,-0.05051826685667038,-0.026640895754098892,0.09137498587369919,0.011267964902146169,0.1145213078865706,0.06386690875761454
1.0804088115692139,0.003830842673778534,-0.006958192214369774,0.02129840850830078,-0.04300389066338539,-0.029442541301250458,0.08486063033342361,0.010635462056361223,0.11428317173786016,0.06480028905489661
1.0908238887786865,0.00659632682800293,0.00025978870689868927,0.02034515142440796,-0.0443437434732914,-0.021280260756611824,0.08800385147333145,0.009949355818985175,0.11414046329170152,0.06570275269687953
1.1004409790039062,0.0005409270524978638,0.0023223496973514557,0.016684114933013916,-0.05033985152840614,-0.0005432916805148125,0.08994502574205399,0.009326338904793674,0.11418348881430918,0.06664049071265511
1.1104488372802734,-0.006615929305553436,0.0039985887706279755,0.011526107788085938,-0.046322040259838104,0.006506450939923525,0.0898599699139595,0.00894262708583887,0.1143525356903394,0.06758538587568486
1.1206018924713135,-0.0068082138895988464,0.005696204490959644,0.00681692361831665,-0.03197266161441803,0.008426057174801826,0.08861733973026276,0.008839700660971951,0.11457670637739782,0.06851677518203951
1.130464792251587,-0.0034241005778312683,0.014735321514308453,0.0077811479568481445,-0.019276442006230354,0.005809590220451355,0.08515213429927826,0.008937171981305093,0.11481057019449491,0.06940778057730737
1.140491008758545,-0.0026632770895957947,0.019013434648513794,0.005502879619598389,-0.01446517463773489,0.00013545947149395943,0.07707689702510834,0.009171715611102494,0.11496654514157928,0.07022601642466295
1.1504597663879395,-0.002286463975906372,0.016433164477348328,0.004587888717651367,-0.02335946634411812,0.0007134540937840939,0.06153373792767525,0.009368556013407369,0.11507898248111234,0.0709338642085146
1.1605467796325684,-0.003112576901912689,0.014315895736217499,0.004804134368896484,-0.024950705468654633,0.0005416804924607277,0.05129947513341904,0.009372257070786138,0.11518866690645217,0.07151974352954084
1.1704597473144531,-0.004312857985496521,0.013157281093299389,0.003125429153442383,-0.020474931225180626,-0.0027484772726893425,0.04368341714143753,0.00920545611033194,0.11533689279314574,0.07201624908116522
1.1805188655853271,-0.005682617425918579,0.019701827317476273,0.0009313225746154785,-0.0031097889877855778,-0.005329879932105541,0.042385924607515335,0.009097165628761651,0.11531787047297719,0.07245130550888283
1.1906037330627441,-0.005299553275108337,0.024964988231658936,-0.00357210636138916,0.010540226474404335,-0.01630001701414585,0.04106968268752098,0.009096043887888284,0.11507048673091727,0.07286480443766277
1.2006378173828125,-0.0035765841603279114,0.028009243309497833,-0.005074977874755859,0.015961356461048126,-0.01761934719979763,0.033265821635723114,0.009134318404371589,0.11473386336580242,0.07321241653443666
1.2106800079345703,-0.004980780184268951,0.022313155233860016,-0.0018600821495056152,0.022572854533791542,-0.01262787263840437,0.02873605489730835,0.008992423848822218,0.11451906691645376,0.07350121910089648
1.2206568717956543,-0.009143553674221039,0.019135158509016037,-0.0022002458572387695,0.038364335894584656,-0.02675647661089897,0.022938352078199387,0.008866180391515587,0.11430100701059834,0.07373096915378816
1.230576992034912,-0.008208043873310089,0.02258211188018322,-0.004040777683258057,0.05692300200462341,-0.029566287994384766,0.014360470697283745,0.008971464227011495,0.11397381297760178,0.07386423127650386
1.2407917976379395,-0.002573169767856598,0.023789584636688232,-0.0026304125785827637,0.08509605377912521,-0.04107167571783066,0.018628718331456184,0.009354976891240993,0.11361655258424078,0.07394489226727288
1.2505760192871094,-0.00541311502456665,0.019647156819701195,-0.003416001796722412,0.11918071657419205,-0.05938570573925972,0.014673817902803421,0.010064879848344702,0.1130816272684956,0.07399871293397091
1.2606358528137207,-0.005629606544971466,0.01910918951034546,0.0012777447700500488,0.14765790104866028,-0.0642760619521141,0.01960625872015953,0.010900248974041215,0.11237908309074596,0.07401599475621656
1.2706258296966553,-0.003382645547389984,0.015697475522756577,-0.0001550912857055664,0.2171853929758072,-0.06893149018287659,0.04407000169157982,0.012066248354463223,0.11170097232242582,0.07412177100532075
1.280754804611206,-0.0032149776816368103,0.022997744381427765,-0.01118612289428711,0.30437329411506653,-0.10855346918106079,0.05660257115960121,0.013965067600570306,0.1107826143242029,0.07435371546551166
1.2906889915466309,0.005672566592693329,0.0373995341360569,-0.013661086559295654,0.3634245991706848,-0.1547366827726364,0.06648524105548859,0.016694203519118843,0.10945986428877659,0.07459234257076179
1.300704002380371,0.009264394640922546,0.031871043145656586,-0.006749510765075684,0.3994404077529907,-0.18026387691497803,0.06583036482334137,0.01987901739571202,0.10766400669438675,0.07483700998123825
1.3107566833496094,0.004328511655330658,0.019268115982413292,0.009615898132324219,0.44667598605155945,-0.26155611872673035,0.06727572530508041,0.023344406544420746,0.10545368055161147,0.07505363634540009
1.3206849098205566,0.00669272243976593,0.02590184658765793,0.02259296178817749,0.4741739332675934,-0.29692181944847107,0.04918034002184868,0.027034362867505143,0.10273259019510021,0.07514288659809941
1.3306679725646973,0.015911273658275604,0.028475536033511162,0.027518868446350098,0.5064159035682678,-0.3339694142341614,0.06107598915696144,0.031059338936492525,0.09979619544868794,0.07519141193023454
1.341141700744629,0.01040399819612503,0.011083699762821198,0.001992523670196533,0.5143715143203735,-0.39208120107650757,0.058808840811252594,0.03524573185929296,0.09634164111929665,0.0752937242966416
1.350597858428955,0.015047281980514526,0.013387966901063919,-0.005770623683929443,0.5063223242759705,-0.4091690182685852,0.06317402422428131,0.040376549229285234,0.0923061608145339,0.07540352547080177
1.3607819080352783,0.013762436807155609,-0.008466918021440506,-0.008774042129516602,0.5073068737983704,-0.4579448103904724,0.06293274462223053,0.04547338805055973,0.08798920611652135,0.07558342028561515
1.3707900047302246,0.006310313940048218,-0.008879859000444412,0.0028684139251708984,0.5219665169715881,-0.5101459622383118,0.05088242143392563,0.050666426925278174,0.08311006987166292,0.07571241297876855
1.3809237480163574,0.009057298302650452,0.001834183931350708,0.025518059730529785,0.49747395515441895,-0.5694449543952942,0.025813287124037743,0.05583359936669785,0.0777203518585397,0.07570104298632495
1.3908839225769043,0.007512442767620087,-0.019923221319913864,0.030599772930145264,0.44259536266326904,-0.6155123710632324,-0.0066603925079107285,0.06052762132603314,0.07181280247096829,0.07543484960312599
1.4038310050964355,0.0034836232662200928,-0.03069133311510086,0.033476412296295166,0.3636440932750702,-0.6816778182983398,-0.04411482438445091,0.06455315278299828,0.06534824837449213,0.07491713675435645
1.410830020904541,0.005816686898469925,-0.03031812608242035,0.03328549861907959,0.31640341877937317,-0.7166708111763,-0.06509862095117569,0.06789389098964926,0.058438111055926605,0.07414063172321596
1.4207968711853027,0.009418129920959473,-0.03731013089418411,0.03320735692977905,0.27082687616348267,-0.8106843829154968,-0.1031503975391388,0.07079655805594098,0.05086612433235659,0.07316355725802316
1.430776834487915,0.01193220540881157,-0.04033772647380829,0.03543049097061157,0.14395561814308167,-0.8644402027130127,-0.1486080437898636,0.07287074307056128,0.042530062410429954,0.07177240735558678
1.4408628940582275,0.018807008862495422,-0.043021202087402344,0.04085749387741089,-0.1006847620010376,-0.921062171459198,-0.18319851160049438,0.0731329163513588,0.03373406912946894,0.0701354349368232
1.4532279968261719,0.01999303512275219,-0.07158996164798737,0.04248541593551636,-0.5507748126983643,-0.9905629754066467,-0.309322327375412,0.06996192161695333,0.024334700345622396,0.06780163632876525
1.461594820022583,0.014049304649233818,-0.11677636206150055,0.08387279510498047,-1.3341479301452637,-1.0516198873519897,-0.5350456833839417,0.06069016314849512,0.014267302718226989,0.06379497537010519
1.4715569019317627,0.001077841967344284,-0.213369220495224,0.14793086051940918,-2.3397111892700195,-1.1554673910140991,-0.7147657871246338,0.04235030059428113,0.003671003962664832,0.05765046014990721
1.4809448719024658,-0.008286324329674244,-0.3083779513835907,0.19468635320663452,-3.6322178840637207,-1.455907940864563,-0.9947308897972107,0.012758934365195342,-0.009078979807795151,0.049163133022876046
1.4909210205078125,0.013661283999681473,-0.3152482509613037,0.2531823515892029,-5.544422626495361,-1.722639799118042,-1.3902286291122437,-0.032554353914836985,-0.025151810691305503,0.03635581594002946
1.5009748935699463,0.0032051056623458862,-0.34906095266342163,0.32956433296203613,-7.800974369049072,-1.9503486156463623,-1.67361319065094,-0.09874827434572882,-0.044789464538392255,0.01861793385785712
1.5109639167785645,0.002133101224899292,-0.4268870949745178,0.3593541979789734,-10.477890968322754,-2.054915428161621,-1.9052828550338745,-0.1887013714289764,-0.0678259826313087,-0.004607742933431962
1.5209569931030273,-0.006430268287658691,-0.3614313304424286,0.38114482164382935,-12.782979965209961,-2.394296884536743,-2.080479860305786,-0.30325273794701735,-0.09796656987759622,-0.03521388629475945
1.530951976776123,-0.0445995107293129,-0.20519208908081055,0.43957334756851196,-15.351720809936523,-2.6615636348724365,-2.138624668121338,-0.44076075724703007,-0.13814389454520848,-0.07556083482639105
1.5409836769104004,-0.004758968949317932,-0.08041787147521973,0.45640015602111816,-17.94306755065918,-2.7563977241516113,-1.869048833847046,-0.6017918219587716,-0.19272314350655867,-0.13023623877596996
1.550940990447998,-0.0856533944606781,0.169131338596344,0.435327410697937,-20.352678298950195,-2.6570749282836914,-1.3666441440582275,-0.7852225619667503,-0.27026547223157354,-0.20821440629608334
1.5609827041625977,-0.10457770526409149,0.3628668189048767,0.322826623916626,-21.686416625976562,-2.254990577697754,-0.8565455675125122,-0.9817744334126276,-0.3918519787128631,-0.3327444570988006
1.5711297988891602,-0.05957990884780884,0.43721824884414673,0.15208467841148376,-21.658607482910156,-1.870234727859497,-0.8059052228927612,-1.169458958130323,-0.622590116132167,-0.5704322530215119
1.5812959671020508,-0.08990852534770966,0.5510529279708862,-0.05100785940885544,-20.21356201171875,-1.6504886150360107,-1.0301878452301025,-1.3016849541495024,-1.1279771177193445,-1.0843909354465822
1.591641902923584,-0.19835659861564636,0.7511427402496338,-0.31252455711364746,-17.852081298828125,-1.616536259651184,-1.5099332332611084,-1.3041592275843343,-1.8576415697639164,-1.8219932123258842
1.6027460098266602,-0.205570250749588,0.8106903433799744,-0.6524392366409302,-15.59813404083252,-1.7113069295883179,-1.8933013677597046,-1.2053637030222233,-2.3000214787799793,-2.268540358116265
1.6113128662109375,-0.11354616284370422,0.5751214027404785,-0.7743076682090759,-13.710855484008789,-1.6417596340179443,-1.9631016254425049,-1.0835363708470704,-2.5032965620615384,-2.4726501123972597
1.6211557388305664,-0.06854996085166931,0.32664811611175537,-0.7585546970367432,-12.029790878295898,-1.5037540197372437,-1.9728535413742065,-0.9650267218891826,-2.6093833750881754,-2.57808593632027
1.6311259269714355,-0.06688961386680603,0.39639490842819214,-0.719271719455719,-10.143251419067383,-1.3560668230056763,-1.972432255744934,-0.8581056341866488,-2.6704889194388484,-2.637073271929937
1.6411638259887695,-0.015082895755767822,0.46126222610473633,-0.6784923076629639,-7.9165544509887695,-1.3678885698318481,-1.9502094984054565,-0.7679999909600822,-2.7070799295490042,-2.6688380549557196
1.654186725616455,0.0387306809425354,0.31834399700164795,-0.6447948813438416,-5.8184990882873535,-1.4209797382354736,-1.7766271829605103,-0.6978387559584711,-2.7312073149567047,-2.6839057752603046
1.6613359451293945,0.07115456461906433,0.25577324628829956,-0.5465278029441833,-4.07107400894165,-1.6704628467559814,-1.7024635076522827,-0.6458502065677973,-2.7491841644061172,-2.6878742406962255
1.6713838577270508,0.12017485499382019,0.35277003049850464,-0.3140912652015686,-3.095865488052368,-1.676706075668335,-1.5261930227279663,-0.6068468962609624,-2.76486233216657,-2.6856776599550556
1.6811048984527588,0.2020982801914215,0.17704659700393677,-0.03691500425338745,-2.5410585403442383,-1.4655786752700806,-1.221384882926941,-0.575733378699867,-2.7789131655402097,-2.682451552918911
1.6911959648132324,0.1477946937084198,-0.008306145668029785,0.03779327869415283,-1.9784305095672607,-1.2191641330718994,-0.9861937165260315,-0.550636140011032,-2.790805680008258,-2.679634600921977
1.703691005706787,0.1218140721321106,-0.04262042045593262,0.004493832588195801,-1.4342108964920044,-1.071013331413269,-0.8192116618156433,-0.5316021582308631,-2.800617550880561,-2.6764471647425956
1.7111639976501465,0.12520968914031982,-0.05003485083580017,-0.00323486328125,-1.028292179107666,-0.9314473867416382,-0.7321918606758118,-0.5174797203213118,-2.808941706035249,-2.6727669615887124
1.7212729454040527,0.11720237135887146,-0.12327253818511963,0.0647200345993042,-0.9480756521224976,-0.8754813075065613,-0.6308658123016357,-0.5061161398595472,-2.8160552837247392,-2.6689341550657897
1.7313108444213867,0.11056512594223022,-0.19612234830856323,0.15612030029296875,-0.9770696759223938,-0.8719839453697205,-0.5472404360771179,-0.4951805592134671,-2.8233492480484976,-2.6660252857422324
1.7412919998168945,0.1296650767326355,-0.22788715362548828,0.26642483472824097,-1.020764708518982,-0.8949968218803406,-0.44427964091300964,-0.48405846967544114,-2.8313527934961,-2.6641995512558783
1.7527117729187012,0.14108166098594666,-0.19042441248893738,0.2804328203201294,-0.9031393527984619,-0.8909103274345398,-0.3908722400665283,-0.4735854949445074,-2.8398820105391107,-2.663132916229194
1.7613029479980469,0.1282118558883667,-0.173761785030365,0.237420916557312,-0.7736069560050964,-0.8441290259361267,-0.29655852913856506,-0.4645873281160417,-2.8481058557106866,-2.6620877908267557
1.771291732788086,0.10341733694076538,-0.1360589861869812,0.20043575763702393,-0.7171030044555664,-0.6959559321403503,-0.1558983325958252,-0.4568042783724104,-2.855832675651153,-2.6620368800795857
1.7814159393310547,0.07486547529697418,-0.1190822422504425,0.1671159267425537,-0.6252526640892029,-0.5363779664039612,-0.03632428124547005,-0.45005567362994947,-2.8624459695440554,-2.6631131054426764
1.7922358512878418,0.045087411999702454,-0.11040157079696655,0.12601667642593384,-0.5482669472694397,-0.4336948096752167,0.05562002584338188,-0.4445063642093238,-2.868100565069361,-2.66500545998655
1.8030610084533691,0.02885572612285614,-0.07489761710166931,0.10948801040649414,-0.47684600949287415,-0.37444692850112915,0.10548904538154602,-0.43983346907112647,-2.873143975272911,-2.6674296610451016
1.8113470077514648,0.02260202169418335,-0.055721431970596313,0.11219733953475952,-0.46082308888435364,-0.3313809037208557,0.13127708435058594,-0.4356767390706383,-2.8777577769267992,-2.6700403788533524
1.8213298320770264,0.009663194417953491,-0.016289472579956055,0.09428936243057251,-0.49987462162971497,-0.29872363805770874,0.13014817237854004,-0.4313686397164744,-2.882051025400555,-2.6728206057901107
1.8313899040222168,-0.006332695484161377,0.028648674488067627,0.08519083261489868,-0.5408902168273926,-0.2984592616558075,0.08667392283678055,-0.4266693103573215,-2.886162158773648,-2.6754425831267086
1.841397762298584,-0.028321444988250732,0.04102820158004761,0.07966768741607666,-0.5513955950737,-0.2800182104110718,0.026181817054748535,-0.4215078616798519,-2.8899146349297795,-2.677583777068908
1.8526887893676758,-0.0523691326379776,0.04150110483169556,0.052916765213012695,-0.5187685489654541,-0.2352650761604309,-0.02953934483230114,-0.4162798822900763,-2.8930949335983738,-2.6790046791900815
1.8613219261169434,-0.07524009048938751,0.03851702809333801,0.025611162185668945,-0.42656567692756653,-0.15501391887664795,-0.06292020529508591,-0.41158927224934255,-2.8953836130420996,-2.679763769914248
1.8713469505310059,-0.09046849608421326,0.050260335206985474,-0.02360367774963379,-0.31347450613975525,-0.07680051028728485,-0.08888431638479233,-0.4078529505830957,-2.896596575789294,-2.6799475910210133
1.8814587593078613,-0.10648693144321442,0.05616450309753418,-0.06406599283218384,-0.25292035937309265,-0.026593267917633057,-0.11059946566820145,-0.40493018408256704,-2.896958468645627,-2.679611137214746
1.891526699066162,-0.10569748282432556,0.04582121968269348,-0.06702327728271484,-0.23236183822155,0.010225865989923477,-0.0962236225605011,-0.40233949616078807,-2.8968288016041375,-2.679135479085191
1.9047667980194092,-0.099058136343956,0.03849777579307556,-0.05735808610916138,-0.21170130372047424,0.018717089667916298,-0.07518864423036575,-0.40005125371180644,-2.896539787532973,-2.6788151692704414
1.9120888710021973,-0.08291645348072052,0.05255898833274841,-0.04839730262756348,-0.2517765760421753,0.039798006415367126,-0.07250220328569412,-0.39764179077891,-2.896147680508703,-2.6786511757971065
1.9215528964996338,-0.07712422311306,0.04128432273864746,-0.02635359764099121,-0.23999527096748352,0.04966128617525101,-0.06681235879659653,-0.39504305103041915,-2.895642781680879,-2.6785961737573705
1.9313998222351074,-0.0700889378786087,0.007118016481399536,-0.006600141525268555,-0.11263474822044373,0.023546775802969933,-0.05507026985287666,-0.39314473543268247,-2.895175503149902,-2.6784100944609452
1.9414818286895752,-0.045882448554039,0.033595919609069824,0.0043534040451049805,0.011521019041538239,0.01817597821354866,-0.04637052118778229,-0.392612030053188,-2.8948496160140786,-2.678017422535088
1.952685832977295,-0.036676809191703796,0.05502086877822876,0.011136651039123535,0.025208834558725357,0.060321833938360214,-0.04057367146015167,-0.3927918775079299,-2.894297687207637,-2.6774840013043466
1.9615437984466553,-0.03902427852153778,0.028384685516357422,0.02810370922088623,-0.005000200122594833,0.13330844044685364,-0.006086801178753376,-0.3928683497921861,-2.893213659918713,-2.6771956896883795
1.971519947052002,-0.04422202706336975,0.021670132875442505,0.020269274711608887,-0.006555602885782719,0.17493703961372375,0.01648721843957901,-0.39280311795477835,-2.891663424050384,-2.6772907826762116
1.9814939498901367,-0.038114577531814575,0.033236414194107056,0.007195711135864258,0.029339013621211052,0.1672583520412445,0.023781616240739822,-0.39301772528131157,-2.8899994143044565,-2.6774737452006017
1.991649866104126,-0.024984210729599,0.026090651750564575,0.010887503623962402,0.022994400933384895,0.1318993866443634,0.013708261772990227,-0.3934191047310827,-2.8885317853472348,-2.677583767234899
2.003506898880005,-0.010034531354904175,0.003523916006088257,0.023983240127563477,-0.032562337815761566,0.12614457309246063,0.01901833713054657,-0.39409547024238767,-2.8859193002533616,-2.677217340367735
2.011641025543213,0.0019657760858535767,-0.0035844743251800537,0.03930598497390747,-0.03409536927938461,0.09715531021356583,0.013544530607759953,-0.3937955894997221,-2.8837403813985065,-2.67707506443841
2.021697998046875,0.003603145480155945,-0.020091503858566284,0.03872203826904297,0.01441890373826027,0.06443038582801819,0.012941591441631317,-0.3941063825072498,-2.8824361401102863,-2.6769959962603433
2.0316998958587646,0.010682418942451477,-0.0067445337772369385,0.04824948310852051,0.05369122326374054,0.0709398165345192,0.024506527930498123,-0.39506989359750055,-2.881475335012565,-2.6769445594508974
2.04164981842041,0.01597115397453308,-0.002318650484085083,0.049541473388671875,0.07085023820400238,0.09012549370527267,0.023795731365680695,-0.3959617874193247,-2.8803902529972545,-2.6769035103782213
2.0529837608337402,0.013080239295959473,-0.01656767725944519,0.035912156105041504,0.04017338529229164,0.12156925350427628,0.026017392054200172,-0.3966536648910421,-2.8788648593042834,-2.67679832258791
2.061676025390625,0.013421669602394104,-0.02106979489326477,0.032163143157958984,0.010168349370360374,0.13760735094547272,0.030020656064152718,-0.39725009125514704,-2.877231490650364,-2.676879338919254
2.071730852127075,0.015210986137390137,-0.020861029624938965,0.030592143535614014,0.014714914374053478,0.13747680187225342,0.019518960267305374,-0.3976194879144866,-2.875778723324938,-2.677036758729717
2.0816478729248047,0.021906957030296326,-0.006670534610748291,0.013966381549835205,0.04965851828455925,0.12618154287338257,0.00530779967084527,-0.3977851482685384,-2.8745618139111477,-2.677116664265734
2.0917978286743164,0.018152326345443726,-0.014775365591049194,-0.012700557708740234,0.07095002382993698,0.09864543378353119,-0.002583093475550413,-0.3980526950821633,-2.8737598132183413,-2.677098485453544
2.102872848510742,0.021406129002571106,-0.0029439330101013184,-0.035418927669525146,0.04448219761252403,0.05575336143374443,-0.02298770099878311,-0.3978807457964627,-2.873363562361025,-2.67700458425612
2.1116888523101807,0.01894669234752655,-0.011098116636276245,-0.04772293567657471,-0.016792910173535347,-0.016825681552290916,-0.05830707773566246,-0.39724183938570273,-2.873783619364563,-2.6768328129958867
2.1217527389526367,0.01584582030773163,-0.02928692102432251,-0.02795034646987915,-0.03963058069348335,-0.06724757701158524,-0.07124311476945877,-0.39633225238256425,-2.874783681596721,-2.6765390265577786
2.1317138671875,0.02610631287097931,-0.0129014253616333,0.0016682147979736328,-0.018953382968902588,-0.07594017684459686,-0.05805141106247902,-0.3952929661633248,-2.875888928796563,-2.676168036062973
2.141749858856201,0.021694689989089966,-4.342198371887207e-05,-0.017046332359313965,0.00901619903743267,-0.049369554966688156,-0.040209297090768814,-0.39457120770656007,-2.876829240535029,-2.67584762269639
2.1544909477233887,0.013859912753105164,-0.0036949515342712402,-0.023588180541992188,0.00334253441542387,-0.005077367648482323,-0.012412608601152897,-0.39411350643716014,-2.8774366087433214,-2.6757096684302613
2.1617658138275146,0.017422571778297424,-0.0067420899868011475,-0.0056400299072265625,0.0054368446581065655,0.031666532158851624,0.0010888198157772422,-0.39402593744754266,-2.8777292180314475,-2.675839313170318
2.171769857406616,0.01743777096271515,-0.01604488492012024,0.005204439163208008,0.03274767845869064,0.05825468897819519,0.008517920039594173,-0.3941691868360328,-2.87752487020993,-2.675927905752589
2.1818599700927734,0.01853737235069275,-0.01389363408088684,0.0035970211029052734,0.053644970059394836,0.08121806383132935,0.01784644089639187,-0.39497938377759395,-2.8770215329863453,-2.676008259313237
2.192257881164551,0.016520217061042786,-0.011879414319992065,-0.0013191699981689453,0.08907555043697357,0.08548777550458908,0.015140349976718426,-0.39600437232930946,-2.8762748555582154,-2.6760355074823416
2.203122854232788,0.015950962901115417,-0.014211267232894897,0.000527799129486084,0.1414458155632019,0.07134692370891571,0.018550261855125427,-0.39661345128096087,-2.8756964801644957,-2.6759741881090533
2.212066888809204,0.019584491848945618,-0.013010472059249878,0.00131148099899292,0.2099854201078415,0.0603979118168354,0.02774285338819027,-0.3979919793777541,-2.8758455374538188,-2.6760625078467117
2.2219958305358887,0.018132880330085754,-0.008353590965270996,-0.008917927742004395,0.26234716176986694,0.05588492006063461,0.047338925302028656,-0.40052262216091755,-2.87569444135655,-2.675977745312148
2.231832981109619,0.017160668969154358,0.005552381277084351,-0.012612998485565186,0.2995515465736389,0.06688351184129715,0.05129670351743698,-0.40331899369589763,-2.8752107944850964,-2.6757798251283846
2.2418618202209473,0.009561240673065186,0.0017497837543487549,-0.01721179485321045,0.411465048789978,0.06247544288635254,0.07356978207826614,-0.40659294302088256,-2.8748282411398516,-2.6755971693948757
2.2532918453216553,0.007526412606239319,0.0032411813735961914,-0.02935880422592163,0.5940438508987427,0.05045122653245926,0.09396384656429291,-0.41103724790577106,-2.874497451931416,-2.6752093484942403
2.2618799209594727,0.0174504816532135,0.03685691952705383,-0.034584879875183105,0.8376958966255188,0.044960055500268936,0.12886856496334076,-0.4175375844297566,-2.8741747984311536,-2.674518855512227
2.2718849182128906,0.01946951448917389,0.053883761167526245,-0.04845833778381348,1.0928375720977783,0.05343543365597725,0.18041624128818512,-0.42655536746783007,-2.873648399085757,-2.6735118281123125
2.281956911087036,0.016836419701576233,0.059408366680145264,-0.07446092367172241,1.3305548429489136,0.07660999149084091,0.21798038482666016,-0.4387567185258315,-2.8724037150387978,-2.6721003236122463
2.291907787322998,0.008571282029151917,0.056485891342163086,-0.07721006870269775,1.6042888164520264,0.055507462471723557,0.27155056595802307,-0.45361683235836703,-2.8709576440341396,-2.670355816296818
2.3030619621276855,0.009352624416351318,0.035517334938049316,-0.06376481056213379,1.8967829942703247,0.039546072483062744,0.30819618701934814,-0.47131801821012426,-2.8695253113712496,-2.668259109763704
2.3119707107543945,0.01745636761188507,0.04340657591819763,-0.0662800669670105,2.2344961166381836,0.04145946353673935,0.3286709487438202,-0.49204817115904753,-2.8677955488932967,-2.6654068020525044
2.3219590187072754,0.006322234869003296,0.04466801881790161,-0.07531064748764038,2.631394624710083,0.07487920671701431,0.39507925510406494,-0.5164712720999087,-2.8654907679400172,-2.6618381866684913
2.3319597244262695,0.01607874035835266,0.042284250259399414,-0.08182597160339355,3.079251289367676,0.11953899264335632,0.4689091742038727,-0.5451930761938883,-2.8623515929425825,-2.657561225961866
2.342784881591797,0.022796541452407837,0.05808788537979126,-0.0951470136642456,3.3951916694641113,0.15024471282958984,0.5214317440986633,-0.5778829516040795,-2.8583188998503344,-2.6525358639862766
2.3530728816986084,0.014297261834144592,0.06812822818756104,-0.06944143772125244,3.509626626968384,0.1300245225429535,0.5753203630447388,-0.6127710692132756,-2.8538411313982412,-2.6470840280294734
2.3620238304138184,0.009921729564666748,0.012276232242584229,0.03966474533081055,3.3213508129119873,0.20504575967788696,0.614898145198822,-0.6474528141780258,-2.8491433352132924,-2.642013955702584
2.3719167709350586,0.03155820071697235,-0.08546411991119385,0.1550532579421997,2.987818717956543,0.2549513280391693,0.6458945870399475,-0.679497853957198,-2.844370318345092,-2.6380111882335244
2.3820109367370605,0.038724347949028015,-0.11996477842330933,0.22220730781555176,2.9513206481933594,0.3329625129699707,0.7059342265129089,-0.7096266787251327,-2.8395546361672954,-2.6350855262889783
2.392164707183838,0.0414239764213562,-0.052805960178375244,0.22213613986968994,3.2323691844940186,0.3234317898750305,0.810589611530304,-0.7414177683603889,-2.834411754864894,-2.6323356282029766
2.4044747352600098,0.04188981652259827,0.053021252155303955,0.19128018617630005,3.9396543502807617,0.38910216093063354,0.9068388938903809,-0.7777509357255801,-2.8283103603556508,-2.628665244104438
2.4121458530426025,0.031131476163864136,0.12061947584152222,0.17602604627609253,4.9655280113220215,0.2954613268375397,1.1111382246017456,-0.8233772460761404,-2.8203408822108615,-2.6223955686491887
2.4222958087921143,0.03677491843700409,0.17296761274337769,0.1782739758491516,5.916197299957275,0.27437496185302734,1.2389720678329468,-0.8787621213970339,-2.810430512025362,-2.6128544607888897
2.4322447776794434,0.0321824848651886,0.2749782204627991,0.2616237998008728,6.8471999168396,0.40736332535743713,1.4039944410324097,-0.9435766728584389,-2.7957330613733125,-2.598497990098588
2.442187786102295,-0.047485217452049255,0.19067096710205078,0.20571309328079224,7.62021541595459,0.6265100836753845,1.5217615365982056,-1.016727384654146,-2.7732775500062115,-2.577713515943178
2.4538707733154297,-0.11142423748970032,0.07362627983093262,0.15761178731918335,8.512699127197266,0.9176969528198242,1.5276296138763428,-1.0971045078166335,-2.7368782772270017,-2.5448292143774416
2.4621407985687256,-0.14995314180850983,0.028495609760284424,0.15683862566947937,9.76423168182373,0.9515292048454285,1.506978988647461,-1.1867259481576256,-2.6725742153138197,-2.4847393513042753
2.4723258018493652,-0.12480193376541138,0.07971912622451782,0.1950763463973999,11.049088478088379,0.9182804822921753,1.3128328323364258,-1.2839111102364644,-2.546291930352317,-2.361120564334406
2.4821767807006836,-0.104119673371315,0.19255787134170532,0.3054015636444092,12.662301063537598,0.8106048703193665,1.1177669763565063,-1.3804657629529655,-2.239458315698431,-2.0548633928258697
2.4922657012939453,-0.10549917817115784,0.21365338563919067,0.3281409740447998,13.957545280456543,0.7341188788414001,0.8677917122840881,-1.4303848279976317,-1.4555107881732459,-1.2692402015394915
2.503464698791504,-0.0743982344865799,0.27465981245040894,0.3912360668182373,14.572524070739746,0.8335967659950256,0.5053884983062744,-1.3632751277633153,-0.6924263210857563,-0.5038206075657704
2.5122227668762207,-0.12737242877483368,0.2931175231933594,0.4582381248474121,14.454926490783691,1.0869197845458984,0.22316354513168335,-1.2392188864430664,-0.3972311641433401,-0.20823846253158743
2.5223348140716553,-0.1907152384519577,0.21736884117126465,0.5086725950241089,13.884207725524902,1.3180595636367798,0.22809864580631256,-1.105219001483184,-0.26928075658065725,-0.08302704867491997
2.5322837829589844,-0.16490623354911804,0.2576950192451477,0.5687385201454163,12.68725299835205,1.4918174743652344,0.27762842178344727,-0.9758824180086813,-0.19846698636602358,-0.017154486628021666
2.542407989501953,-0.1280689239501953,0.26204943656921387,0.6503713130950928,11.128761291503906,1.8730335235595703,0.5576408505439758,-0.8591202328732689,-0.149448197696213,0.02334948122036962
2.553154945373535,-0.11579025536775589,0.1174391508102417,0.619819164276123,9.549467086791992,2.0260534286499023,0.8762335777282715,-0.7574003204821144,-0.10822370067404298,0.05313059062244809
2.562337875366211,-0.09121072292327881,0.031853318214416504,0.5518657565116882,8.039493560791016,2.0089757442474365,0.9688644409179688,-0.6704190923461061,-0.0729039649980451,0.07601137398692391
2.572291851043701,-0.11892057210206985,-0.07576745748519897,0.5284309387207031,6.641256809234619,2.0099759101867676,0.8978568911552429,-0.5977477972209719,-0.043031816804693354,0.09281938344048224
2.5823638439178467,-0.14023280143737793,-0.23725545406341553,0.503284215927124,5.6625261306762695,1.846254825592041,0.7712610960006714,-0.5366473614916062,-0.01707541698266379,0.10500525328111673
2.5923619270324707,-0.08781355619430542,-0.28897544741630554,0.43018847703933716,5.058953762054443,1.6019281148910522,0.5533248782157898,-0.4831874402374124,0.0042036717742043655,0.11296241199248346
2.603426933288574,-0.03352471813559532,-0.1749696433544159,0.3562062978744507,4.672074317932129,1.353641390800476,0.4137418866157532,-0.4344659632390376,0.02094576208704847,0.1175651113595451
2.612330913543701,0.01616716757416725,-0.07708039879798889,0.2544887065887451,4.325047492980957,1.0945391654968262,0.3493833839893341,-0.38931564693468806,0.034319924113857446,0.12036447059141014
2.62243390083313,0.06099105253815651,-0.020790040493011475,0.15203118324279785,3.9476075172424316,0.9467054605484009,0.28292232751846313,-0.3478135349769327,0.04493993011955404,0.12195911363220695
2.6323089599609375,0.07388852536678314,0.0030649900436401367,0.08767038583755493,3.603788375854492,0.8511833548545837,0.3105643689632416,-0.3099007987648046,0.05446405927362734,0.12307610855365719
2.642584800720215,0.07047979533672333,0.031166791915893555,0.006826639175415039,3.2615935802459717,0.7693742513656616,0.2987596392631531,-0.2754019502257186,0.06270590007510253,0.12417110152153617
2.654778003692627,0.07658702880144119,0.05137503147125244,0.0009080171585083008,2.9850826263427734,0.7335613965988159,0.3437016010284424,-0.244055006154679,0.07059676963679744,0.12529793641854506
2.662411689758301,0.05753662437200546,-0.004573822021484375,-0.028639912605285645,2.7740025520324707,0.7038282752037048,0.38202157616615295,-0.21505950664139709,0.07811430337499983,0.12683226302634157
2.67250394821167,0.04430469870567322,-0.019058525562286377,-0.030628859996795654,2.598381757736206,0.6681898832321167,0.4152542054653168,-0.18793318260838854,0.08535172250135763,0.1286521301342731
2.6824278831481934,0.03158333897590637,-0.011310204863548279,-0.035285353660583496,2.4923548698425293,0.709858238697052,0.4035802483558655,-0.1623056312594114,0.0924422063773637,0.13050548746789437
2.692544937133789,0.014474734663963318,-0.03031902015209198,-0.04235965013504028,2.5499043464660645,0.6015207767486572,0.48020678758621216,-0.1368091724642629,0.0995950318778113,0.13250799581621545
2.7031898498535156,0.015635892748832703,-0.011783041059970856,-0.07008051872253418,2.5535874366760254,0.4242232143878937,0.44099652767181396,-0.11081026489175307,0.10487300693875815,0.134558890877388
2.712618827819824,0.04584765434265137,0.04288202524185181,-0.010065734386444092,2.3346803188323975,0.34831273555755615,0.3651885986328125,-0.085885561402764,0.10880468822349453,0.13593996841626263
2.722625732421875,0.035083092749118805,-0.0022466182708740234,-0.003992915153503418,1.9241737127304077,0.357064425945282,0.3104188144207001,-0.06424141159074773,0.1123725519459772,0.13692985153304846
2.7324867248535156,0.017532162368297577,-0.06545008718967438,-0.029721856117248535,1.4684573411941528,0.3978596031665802,0.25684091448783875,-0.047034739417455555,0.11618866390945659,0.13782159238321134
2.7426366806030273,0.013186052441596985,-0.11471810191869736,-0.04392427206039429,1.0349128246307373,0.4047510623931885,0.18076986074447632,-0.034356748275466156,0.12024627970874167,0.1385396405275592
2.753168821334839,0.012086145579814911,-0.12891748547554016,-0.04099392890930176,0.6792688965797424,0.4134728014469147,0.11415300518274307,-0.02572506203153903,0.12435309003952037,0.1389498036422148
2.7625648975372314,0.02034275233745575,-0.13313856720924377,-0.03931146860122681,0.47341665625572205,0.4102911353111267,0.07035519182682037,-0.019965375663566008,0.12850425382728395,0.13912922781062945
2.772636890411377,0.03050832450389862,-0.10578663647174835,-0.06068354845046997,0.3965480625629425,0.3526290953159332,0.04063985124230385,-0.0156077571638873,0.13233882629620633,0.1391254667412803
2.7826337814331055,0.04894314706325531,-0.06361021101474762,-0.079620361328125,0.34119293093681335,0.2978087365627289,0.00011452916078269482,-0.01189838275563489,0.13557875549971524,0.13884001377098118
2.7926788330078125,0.06509028375148773,-0.05753667652606964,-0.08743000030517578,0.33220142126083374,0.2873205542564392,-0.043555665761232376,-0.008632293755904448,0.13848211072214664,0.13815253934405675
2.8034138679504395,0.07315586507320404,-0.06774785369634628,-0.10302609205245972,0.3953883647918701,0.1981365978717804,-0.07025998085737228,-0.0051257333462944015,0.14096599878387345,0.13709532253428597
2.814607858657837,0.08681347966194153,-0.049175262451171875,-0.11152082681655884,0.44253790378570557,0.10318181663751602,-0.11003727465867996,-0.0010337074145224364,0.14242748707914962,0.1356028590871027
2.825230836868286,0.10276822745800018,-0.038011662662029266,-0.1015273928642273,0.3920094966888428,0.04837369546294212,-0.15251736342906952,0.0029735240142278216,0.1431585821104328,0.1337008129401191
2.832331895828247,0.10303664207458496,-0.05861784517765045,-0.10848015546798706,0.3027373254299164,0.03067508153617382,-0.18235376477241516,0.00621686171785618,0.14355248212518507,0.1315168462522319
2.842782974243164,0.09721539914608002,-0.08817308396100998,-0.11427587270736694,0.17616313695907593,0.014808233827352524,-0.21503980457782745,0.008338925439566611,0.1437474537225805,0.12922359266930936
2.8543548583984375,0.09095399081707001,-0.09736214578151703,-0.1030227541923523,0.03679598122835159,0.045655541121959686,-0.23985667526721954,0.009068107515792985,0.14407752908339252,0.12678544266818156
2.8626999855041504,0.08230707049369812,-0.10258761048316956,-0.10436451435089111,-0.05605965480208397,0.088920459151268,-0.24867360293865204,0.008603360252941205,0.14473512499349367,0.12438396151294216
2.8726978302001953,0.07840792834758759,-0.10263131558895111,-0.11317753791809082,-0.07699193805456161,0.07049493491649628,-0.2636728882789612,0.0075830692964475605,0.14559031276425086,0.12196455423657751
2.882603883743286,0.07697011530399323,-0.0887085348367691,-0.1046411395072937,-0.056771352887153625,0.05527789518237114,-0.2887779772281647,0.006506429104845987,0.14622508525413092,0.1193129889257044
2.8927648067474365,0.08196301758289337,-0.06888987123966217,-0.0901840329170227,0.02563154511153698,-0.0029367636889219284,-0.2917456030845642,0.0059545995657986454,0.1465143101876416,0.11646743897944002
2.9046549797058105,0.08128273487091064,-0.0643031969666481,-0.08522510528564453,0.14480027556419373,-0.06803001463413239,-0.3033798933029175,0.006360370975034305,0.14618435484956172,0.11338881964779214
2.9127938747406006,0.07612724602222443,-0.06194160133600235,-0.05723559856414795,0.2715432047843933,-0.12733998894691467,-0.301716685295105,0.008035364768024883,0.1452279159633703,0.11008345342593161
2.9228529930114746,0.06414994597434998,-0.041754964739084244,-0.021070480346679688,0.43952450156211853,-0.1518261432647705,-0.2881515920162201,0.011162820838728294,0.14384361116169628,0.10661288045372248
2.932832717895508,0.04070647060871124,-0.00949351117014885,-0.004787325859069824,0.6252583861351013,-0.14676840603351593,-0.22685860097408295,0.016142033133277604,0.14239474818600092,0.10328403258917081
2.9429149627685547,0.02294127643108368,0.0036859214305877686,-0.012209653854370117,0.7635419368743896,-0.14598970115184784,-0.19618937373161316,0.022853020261965354,0.1409836915662905,0.10024005913058888
2.9533329010009766,0.00980408489704132,0.004346011206507683,0.00807654857635498,0.8395203948020935,-0.10118197649717331,-0.20445246994495392,0.030595976309900994,0.13979443810022074,0.09712314268306006
2.9627437591552734,-0.010812312364578247,-0.01536538451910019,0.040838003158569336,0.8744853138923645,-0.04899254068732262,-0.1958770900964737,0.03890475948864649,0.13915840609652244,0.09394712758594101
2.972893714904785,-0.030357256531715393,-0.019696097820997238,0.05804479122161865,0.8407222032546997,0.025955472141504288,-0.2111525535583496,0.04724660449403205,0.13916092344705408,0.09075354423075574
2.9828977584838867,-0.045350998640060425,-0.00966889038681984,0.0844162106513977,0.7278279066085815,0.1373184770345688,-0.23954211175441742,0.05479647195636546,0.14011971697047282,0.08741018494441877
2.9929966926574707,-0.06158284842967987,-0.02385830134153366,0.09749722480773926,0.6417306065559387,0.2846575379371643,-0.24258089065551758,0.061232527833701825,0.1424542190611514,0.08401803824176372
3.0033516883850098,-0.0737515389919281,-0.028239883482456207,0.09522032737731934,0.6830016374588013,0.353383332490921,-0.22690579295158386,0.06742283596748863,0.14590337903439107,0.08074540401011991
3.013110876083374,-0.0719435065984726,0.01192205399274826,0.1025702953338623,0.801146924495697,0.3580767512321472,-0.20840081572532654,0.07446040161811691,0.14974395766446585,0.0774861610708652
3.0227928161621094,-0.056653544306755066,0.06020354479551315,0.1242527961730957,0.9282031655311584,0.33504971861839294,-0.1936516910791397,0.08274367981107791,0.15348165304203115,0.07417228781774642
3.0329458713531494,-0.04527778923511505,0.09520751982927322,0.1364380121231079,1.0097033977508545,0.3081817328929901,-0.17585879564285278,0.09213354215040673,0.15698225522239434,0.07083548262491707
3.042874813079834,-0.04496496915817261,0.10086765140295029,0.14175671339035034,0.9920349717140198,0.28505244851112366,-0.16625544428825378,0.10183712423444909,0.16024619007620872,0.06753779569601048
3.0533978939056396,-0.0513622909784317,0.08323445916175842,0.15226948261260986,0.8920456767082214,0.2790409028530121,-0.13378015160560608,0.1109584161054986,0.16342568864559584,0.06450624537321507
3.0628387928009033,-0.055662184953689575,0.06313707679510117,0.168759286403656,0.7562194466590881,0.2685965299606323,-0.10924258828163147,0.11892879009316891,0.16644088030037288,0.061934122701131154
3.072929859161377,-0.06022845208644867,0.07130323350429535,0.18685150146484375,0.634140133857727,0.27750518918037415,-0.06539853662252426,0.1256190415096001,0.16943776782383804,0.05986367115099314
3.0829687118530273,-0.07354085147380829,0.07012514770030975,0.18169152736663818,0.5467844605445862,0.25421586632728577,0.005614116322249174,0.13141625413305932,0.17225936694553445,0.05857016988889375
3.094122886657715,-0.08003699779510498,0.06934238970279694,0.16788077354431152,0.4507564902305603,0.2536312937736511,0.04788860306143761,0.1364001639773885,0.17485829077432727,0.057974759443777744
3.103841781616211,-0.08829668164253235,0.06811709702014923,0.1565200686454773,0.3689438998699188,0.2615605890750885,0.10189351439476013,0.14055523603929726,0.17745426945120554,0.05798177654387514
3.1129238605499268,-0.09598580002784729,0.05879203975200653,0.13835740089416504,0.3000394403934479,0.2657489478588104,0.1510680466890335,0.14408323089992034,0.17997219048697782,0.05865990638652417
3.122957706451416,-0.09129554033279419,0.0631440132856369,0.12388861179351807,0.21760180592536926,0.26984700560569763,0.20944319665431976,0.14697034972026626,0.18247392528120102,0.05996303751582448
3.1329498291015625,-0.08050636947154999,0.06686577200889587,0.10155558586120605,0.15297113358974457,0.2669627368450165,0.26456838846206665,0.1492214027696383,0.18485742438080385,0.06199170993375027
3.1430368423461914,-0.06538963317871094,0.07000178098678589,0.08901816606521606,0.10801644623279572,0.20527009665966034,0.3001343607902527,0.15103503684001038,0.18687673416684264,0.06456147633932131
3.154481887817383,-0.059747204184532166,0.07128427922725677,0.08931881189346313,0.028852038085460663,0.14944061636924744,0.32316651940345764,0.15233241214154808,0.1881746809559818,0.06754332269740956
3.16302490234375,-0.055617764592170715,0.06694130599498749,0.09488499164581299,-0.06008102744817734,0.11447597295045853,0.3321501612663269,0.1527859822482065,0.18897970959780014,0.07083971253300723
3.1731677055358887,-0.05740883946418762,0.06370481848716736,0.08399319648742676,-0.158868208527565,0.0760803371667862,0.33198124170303345,0.1523675025346376,0.18938203289028685,0.07435427077288637
3.182999849319458,-0.05776108801364899,0.05861230194568634,0.06908535957336426,-0.28428393602371216,0.05276595801115036,0.34018591046333313,0.15084331706870632,0.18944875436742142,0.07811311360624618
3.193079948425293,-0.04592519998550415,0.03873305022716522,0.050428807735443115,-0.3899630606174469,0.04375830292701721,0.35507938265800476,0.148145884703945,0.18932880665149132,0.08221552658288882
3.203436851501465,-0.030097976326942444,0.03061339259147644,0.023193061351776123,-0.46558088064193726,0.00596165657043457,0.3673940896987915,0.14461187004529272,0.18892673249410474,0.0866333006037034
3.213059902191162,-0.021259143948554993,0.04512801766395569,0.007165491580963135,-0.5150125622749329,0.002405049977824092,0.3807992935180664,0.14046874945665627,0.18829124624387808,0.09127636736746803
3.2230629920959473,-0.0162753164768219,0.048119962215423584,-0.010260283946990967,-0.5297749638557434,-0.014092700555920601,0.3887898325920105,0.13604850512895067,0.18756864963166947,0.09610511601474804
3.23305082321167,-0.015915662050247192,0.03993387520313263,-0.024833738803863525,-0.5313518643379211,-0.037798695266246796,0.35475826263427734,0.131514525207239,0.18666067288530008,0.10081777256567556
3.243237018585205,-0.021282285451889038,0.036361098289489746,-0.02006441354751587,-0.51284259557724,-0.05364929512143135,0.32771438360214233,0.1270038621521322,0.18565317337048326,0.10517723294661065
3.253445863723755,-0.02798601984977722,0.030652545392513275,-0.017789065837860107,-0.4697039723396301,-0.0987066999077797,0.28113165497779846,0.12272682996579809,0.18441580573012997,0.10911223912149869
3.2630887031555176,-0.03009764850139618,0.03498618304729462,-0.009549617767333984,-0.40432336926460266,-0.15754765272140503,0.24189025163650513,0.11889963951025326,0.18270973800694248,0.11248235260607403
3.2730798721313477,-0.02788020670413971,0.03316674381494522,0.005101144313812256,-0.33712393045425415,-0.21279297769069672,0.20959344506263733,0.11565410639969706,0.18052559814754773,0.11540915839689658
3.2831640243530273,-0.027485579252243042,0.03977068513631821,0.017575204372406006,-0.27274253964424133,-0.25964993238449097,0.17461974918842316,0.113009204204328,0.17785042104515233,0.1178642475235114
3.2932987213134766,-0.031992703676223755,0.03551065921783447,0.0203244686126709,-0.24491819739341736,-0.24878939986228943,0.14112192392349243,0.11076456430697015,0.1750507002274939,0.11987124181687829
3.3035318851470947,-0.03778804838657379,0.0005605816841125488,0.009351849555969238,-0.23180851340293884,-0.22001127898693085,0.11099545657634735,0.10862326927911667,0.17249693484794096,0.12154674263190295
3.313187837600708,-0.04470188915729523,-0.025543682277202606,-0.004305422306060791,-0.20173074305057526,-0.1716848462820053,0.08333905786275864,0.10664697385919432,0.17040556109011612,0.12288271927804247
3.3231687545776367,-0.04705660045146942,-0.02950987219810486,-0.015241801738739014,-0.1458168774843216,-0.1173316016793251,0.06800856441259384,0.10505222800062952,0.16882469690817256,0.12391620676856906
3.3331480026245117,-0.05117212235927582,-0.027402274310588837,-0.015221059322357178,-0.09663231670856476,-0.06460926681756973,0.049196746200323105,0.10398015103129157,0.16780515327727002,0.12471316478748332
3.343247890472412,-0.05441100895404816,-0.03137975186109543,-0.011386871337890625,-0.06632261723279953,-0.008236808702349663,0.033436160534620285,0.10326421263591101,0.167392123018422,0.12524662382687943
3.353609800338745,-0.05771329998970032,-0.03545524179935455,-0.008116841316223145,-0.05221446603536606,0.05620197206735611,0.024351265281438828,0.10274124561422628,0.1675917572740498,0.12563912525432092
3.363262891769409,-0.05397890508174896,-0.043556757271289825,-0.006819546222686768,-0.061351507902145386,0.10038433969020844,-0.0011559586273506284,0.10222061328494884,0.1683646525977027,0.12587085013871072
3.3732728958129883,-0.05372610688209534,-0.04484989494085312,-0.0007669329643249512,-0.0993487685918808,0.1290115863084793,-0.03719838336110115,0.10142691456014437,0.16950898649795687,0.12580942727781988
3.3832449913024902,-0.04527883231639862,-0.05717265605926514,0.00793302059173584,-0.17528721690177917,0.17825423181056976,-0.07038456201553345,0.09999165697388315,0.1710619908331856,0.12550443910526599
3.3933207988739014,-0.03127144277095795,-0.07056698948144913,0.0018339753150939941,-0.23246991634368896,0.23394101858139038,-0.08183440566062927,0.09781716131971424,0.1731724579688892,0.1250997529118313
3.4049577713012695,-0.012938722968101501,-0.06789851933717728,-0.018716931343078613,-0.23138360679149628,0.2360694259405136,-0.087702676653862,0.09536249005491963,0.17556741745913254,0.12468637880705659
3.413482904434204,0.009737670421600342,-0.04724027216434479,-0.031471848487854004,-0.18455331027507782,0.2344173789024353,-0.09552650898694992,0.09313794244845225,0.17795681421503218,0.12413158650536421
3.423656940460205,0.02916570007801056,-0.028924494981765747,-0.04325699806213379,-0.11576519906520844,0.19959522783756256,-0.08360646665096283,0.09150352617556261,0.1801994326080415,0.1235106422596875
3.4333908557891846,0.04322610795497894,-0.013025425374507904,-0.05434674024581909,-0.04634727165102959,0.16739502549171448,-0.07710808515548706,0.09177874571580184,0.18021239636620814,0.12302857743227237
3.443441867828369,0.05638785660266876,0.00142669677734375,-0.05517822504043579,-0.003814727533608675,0.14128565788269043,-0.06666076928377151,0.09237842466879558,0.18063420926912915,0.12247330539811756
3.453411817550659,0.06670381128787994,0.007916174829006195,-0.04911231994628906,0.0012786181177943945,0.13378065824508667,-0.07447326183319092,0.09294995023847007,0.181234896181387,0.12185686146652176
3.4632768630981445,0.07047618925571442,0.010590441524982452,-0.03732752799987793,0.002720986260101199,0.10350902378559113,-0.0643596425652504,0.09353629621926345,0.18192700083681845,0.1211919704595382
3.4733028411865234,0.07569877803325653,-0.002894870936870575,-0.03210580348968506,-0.004686097614467144,0.08533002436161041,-0.06740022450685501,0.09409152405719422,0.18255584956103071,0.12058162539259426
3.4832167625427246,0.08081567287445068,-0.006815485656261444,-0.021421849727630615,-0.014609834179282188,0.07380066812038422,-0.06828626245260239,0.0943989539993813,0.18322611958591348,0.11993815685398256
3.493757724761963,0.07131284475326538,-0.004266321659088135,-0.014566302299499512,-0.011583417654037476,0.053756922483444214,-0.05312355235219002,0.09449186667552642,0.18391021750373704,0.11936063310547161
3.5038158893585205,0.06656305491924286,-0.009385667741298676,-0.01310265064239502,-0.0170865748077631,0.033571757376194,-0.04038272425532341,0.0944535299302502,0.18452197999704814,0.11891964377247395
3.51320481300354,0.06535658240318298,-0.01490100473165512,-0.0114670991897583,-0.035715386271476746,0.039423517882823944,-0.023424245417118073,0.09418602884555158,0.18514200250277887,0.11862240071287163
3.523394823074341,0.0635640025138855,-0.016384243965148926,-0.012292265892028809,-0.03916311264038086,0.05149190127849579,0.012613649480044842,0.09369242864216742,0.186060792821462,0.11859396870639458
3.533414840698242,0.06367385387420654,-0.020768553018569946,-0.024359703063964844,-0.03510863333940506,0.049524225294589996,0.03262064605951309,0.09316629649572737,0.1872181190941556,0.11883863562708313
3.5434699058532715,0.06466521322727203,-0.02136700600385666,-0.021503448486328125,0.0025402074679732323,0.056986935436725616,0.060989171266555786,0.0929023914633111,0.18839944068428027,0.11925568104776854
3.5537807941436768,0.06345270574092865,-0.019829057157039642,-0.022494792938232422,0.052832603454589844,0.02024330198764801,0.08580546081066132,0.09332830318131398,0.1894128561556397,0.11988514630887857
3.563467025756836,0.057305678725242615,-0.007679201662540436,-0.018178939819335938,0.08679403364658356,0.005343714728951454,0.09696277230978012,0.09425173888424591,0.19019195134243072,0.12057558195334415
3.573516845703125,0.045074984431266785,-0.0038704797625541687,-0.005697906017303467,0.08516282588243484,0.01007548626512289,0.10801953077316284,0.09533399628499764,0.19087599355116736,0.12135487764003666
3.5835158824920654,0.022456511855125427,-0.015208043158054352,-0.0006936788558959961,0.06355420500040054,0.012595901265740395,0.10585144907236099,0.09634544499354886,0.19158690655935187,0.1222206864217657
3.593479871749878,-0.0014938414096832275,-0.025532923638820648,0.006051063537597656,0.05842336267232895,0.01885024644434452,0.10777606815099716,0.09727062097474228,0.19248849728273484,0.12305781871450784
3.603813886642456,-0.01415318250656128,-0.02992868423461914,-0.002795279026031494,0.0980948731303215,-0.005466278176754713,0.12746959924697876,0.0984192934445018,0.1934110035248316,0.1239910324647225
3.613636016845703,-0.0168188214302063,-0.010523296892642975,-0.010798811912536621,0.1612502634525299,-0.04016047343611717,0.1358756572008133,0.10016360655080637,0.1941591975452448,0.12493391487209059
3.623602867126465,-0.011701300740242004,0.013223886489868164,-0.014212250709533691,0.22520527243614197,-0.06529885530471802,0.13167744874954224,0.1025454481432845,0.19481059688803434,0.12576307589005137
3.633512020111084,-0.00707632303237915,0.026216454803943634,-0.01902681589126587,0.2675026059150696,-0.09210942685604095,0.11266930401325226,0.10537568886461146,0.19533648164097184,0.1263383299426999
3.6435627937316895,-0.011110886931419373,0.025807246565818787,-0.022225141525268555,0.2764667868614197,-0.12290596216917038,0.08683371543884277,0.10806403439165177,0.19543116665817983,0.12666367086476865
3.6549739837646484,-0.018726468086242676,0.017366260290145874,-0.009961247444152832,0.25364503264427185,-0.14318209886550903,0.049508389085531235,0.11053256437287186,0.1950324348566142,0.1267242472994197
3.6635899543762207,-0.032831430435180664,0.0038941651582717896,0.010542690753936768,0.22071664035320282,-0.1784290373325348,0.019253283739089966,0.11291393552775422,0.19385473823883512,0.12654950117027347
3.673604965209961,-0.05156148970127106,-0.0010292530059814453,0.03005772829055786,0.18727388978004456,-0.19380183517932892,-0.011952786706387997,0.11510004349458335,0.19201784258226196,0.12617057467236517
3.6835837364196777,-0.05605268478393555,-0.0086759552359581,0.03742462396621704,0.16297733783721924,-0.21534040570259094,-0.019151844084262848,0.11698752027160374,0.18984380785528562,0.12569826510137713
3.693542957305908,-0.05360525846481323,-0.01135089248418808,0.0227544903755188,0.13064292073249817,-0.20922645926475525,-0.023735411465168,0.11825814015623884,0.18753557120241868,0.12520719284276635
3.7037887573242188,-0.0508931428194046,-0.010996654629707336,0.0077904462814331055,0.11993301659822464,-0.2002478837966919,-0.0005091832135803998,0.11895295271437356,0.18541284643961983,0.12487093729653553
3.713778018951416,-0.04463230073451996,-0.017538301646709442,-0.006675601005554199,0.08911364525556564,-0.18222209811210632,0.003643803298473358,0.11914176422334921,0.1835362864433641,0.12468530391487515
3.7237539291381836,-0.04279822111129761,-0.019724875688552856,-0.018586039543151855,0.05186614394187927,-0.1665555238723755,0.028819464147090912,0.11884518507017898,0.1817451096244326,0.12472372369490008
3.733613967895508,-0.039345160126686096,-0.022176571190357208,-0.030377745628356934,-0.008368333801627159,-0.15914598107337952,0.03736986219882965,0.11815868301172239,0.17986655375218816,0.12504741267267355
3.743698835372925,-0.026316165924072266,-0.03368572145700455,-0.03362691402435303,-0.06773685663938522,-0.17313237488269806,0.04248446226119995,0.11749393586278584,0.17735621553836295,0.12560078266105762
3.7542858123779297,-0.009526431560516357,-0.03259211778640747,-0.03778719902038574,-0.1279425323009491,-0.20203521847724915,0.04872600734233856,0.11676676544984296,0.17402774596437406,0.12639121545346965
3.763704776763916,0.006442919373512268,-0.024323292076587677,-0.04156935214996338,-0.18596749007701874,-0.23873597383499146,0.058685433119535446,0.11587428254614893,0.17049223316736078,0.1273302423952426
3.773723840713501,0.021504506468772888,-0.013079121708869934,-0.043658554553985596,-0.2250148504972458,-0.2723376154899597,0.07183755934238434,0.1145363392636934,0.16681855733157042,0.12845191406163953
3.7837109565734863,0.02754293382167816,-0.0015821829438209534,-0.03798079490661621,-0.26039043068885803,-0.3035362660884857,0.06707902252674103,0.11276193354921035,0.1629745609329734,0.12964887663865224
3.793853759765625,0.019970983266830444,0.007203154265880585,-0.030104875564575195,-0.25689631700515747,-0.3312666714191437,0.06413905322551727,0.11030152580454324,0.15968214477354026,0.1307271766564652
3.8045706748962402,0.01686851680278778,0.009811602532863617,-0.02871304750442505,-0.2274198979139328,-0.3659040033817291,0.04899764806032181,0.10799818971893697,0.15607198709227435,0.13169028088133689
3.813959836959839,0.014782443642616272,0.019238248467445374,-0.02300119400024414,-0.19832633435726166,-0.37770482897758484,0.03757844120264053,0.10596913876150134,0.15224414791646518,0.13245268450641406
3.8244218826293945,0.006222322583198547,0.02726062387228012,-0.013500869274139404,-0.17436987161636353,-0.3760014772415161,0.02395930141210556,0.10417019942995624,0.14841335063238306,0.13304267331049122
3.833784818649292,-0.0032853782176971436,0.022963277995586395,-0.006513535976409912,-0.15952068567276,-0.3713013529777527,0.0038814637809991837,0.10254975408382391,0.1446218870731784,0.13343258919149154
3.8438467979431152,-0.011599823832511902,0.016845092177391052,0.012669503688812256,-0.15065021812915802,-0.35051751136779785,-0.021967710927128792,0.10098585191978636,0.14097127177856447,0.13355718037659603
3.853975772857666,-0.021547958254814148,0.014008551836013794,0.026619136333465576,-0.1345968246459961,-0.3285716474056244,-0.038330066949129105,0.09953054908974324,0.1375742527011402,0.1334513933082963
3.8638129234313965,-0.03381983935832977,0.016848377883434296,0.031741559505462646,-0.11437304317951202,-0.29166555404663086,-0.054458703845739365,0.09822888678608077,0.13448059533899465,0.1331578248078015
3.8738527297973633,-0.041540101170539856,0.022265546023845673,0.03444480895996094,-0.09103629738092422,-0.2472800612449646,-0.06762035936117172,0.09712529217551785,0.1318047835887437,0.13268146948597911
3.8838508129119873,-0.04583771526813507,0.024494841694831848,0.029577553272247314,-0.06559272110462189,-0.20073893666267395,-0.07698563486337662,0.09625297245635865,0.12962348483477854,0.13205582051910178
3.8937268257141113,-0.04632538557052612,0.0253731831908226,0.022795379161834717,-0.04036296531558037,-0.15970785915851593,-0.08928991854190826,0.09561777738629443,0.12788376218524963,0.1312928042255829
3.905066967010498,-0.039696142077445984,0.02436988055706024,0.018829405307769775,-0.021567709743976593,-0.1314525157213211,-0.10390134900808334,0.09517704706151216,0.1265114458744568,0.13034192823979954
3.9138548374176025,-0.03473547101020813,0.0257718563079834,0.016702890396118164,0.012289823032915592,-0.12144879996776581,-0.10115936398506165,0.09503725259680616,0.12531849920205046,0.12935157556629162
3.9240338802337646,-0.020519956946372986,0.027307942509651184,0.011278748512268066,0.0025277400854974985,-0.10142742842435837,-0.1248021051287651,0.09497087430301904,0.1243193292780407,0.12822222411311288
3.93404483795166,-0.014271751046180725,0.021216735243797302,0.015191495418548584,-0.013661799021065235,-0.09134438633918762,-0.12421999126672745,0.09476863871406686,0.12342904912884725,0.126983320244682
3.9443306922912598,-0.017897628247737885,0.006561852991580963,0.013893067836761475,-0.02117990143597126,-0.08153517544269562,-0.1321522295475006,0.0944402941967485,0.12269354377602379,0.12574512226653067
3.9543867111206055,-0.00792057067155838,0.002150028944015503,0.00765460729598999,-0.021184079349040985,-0.08711612969636917,-0.13567622005939484,0.09405507265218914,0.12196549421239519,0.1244390838189594
3.964052677154541,0.0010212361812591553,0.007874295115470886,0.005963683128356934,-0.013919509015977383,-0.09178438782691956,-0.1260736584663391,0.093720123119054,0.12118947067936091,0.12315952062518917
3.9739418029785156,0.015883639454841614,0.006404660642147064,-5.8710575103759766e-05,-0.0047508287243545055,-0.10193240642547607,-0.11730057001113892,0.09287241984566894,0.119249927159815,0.12206285099166528
3.983949899673462,0.02473638951778412,0.0058217719197273254,-0.0004247426986694336,-0.0038610666524618864,-0.10688348859548569,-0.10447638481855392,0.09216442990906455,0.11746472376816353,0.12103132068456778
3.9939608573913574,0.02930022031068802,0.0013863667845726013,-0.00024110078811645508,-0.013938967138528824,-0.10614793002605438,-0.09504048526287079,0.09140319622508077,0.11581966835037365,0.12010183314216671
4.00437068939209,0.03514012694358826,-0.006938859820365906,-0.0011486411094665527,-0.02907770499587059,-0.10797379165887833,-0.08145170658826828,0.09042866877072696,0.1145180059191949,0.1192762608839261
4.014026880264282,0.03898177295923233,-0.013600610196590424,0.0009707212448120117,-0.0431794635951519,-0.10707954317331314,-0.06741461157798767,0.08946984480321588,0.11340142235840397,0.11858008009323648
4.024021863937378,0.039826229214668274,-0.01577078551054001,0.00439608097076416,-0.03535056859254837,-0.10068422555923462,-0.04471621662378311,0.08900679770852987,0.11220428302196862,0.11807788400286927
4.033984899520874,0.03553329408168793,-0.013460539281368256,0.006555318832397461,-0.01763017475605011,-0.10317547619342804,-0.017878372222185135,0.08882916856829601,0.11131368440308648,0.11779647258475243
4.044161796569824,0.03388079255819321,-0.00822833925485611,0.00551295280456543,-0.01029023714363575,-0.10193738341331482,0.002264445647597313,0.08861312736059271,0.11069958050403539,0.117703633021851
4.054518699645996,0.03116975724697113,-0.009643658995628357,0.009912252426147461,-0.031077373772859573,-0.08927564322948456,0.015581956133246422,0.08835646933782511,0.11072278927813149,0.11773969093242671
4.064040899276733,0.021927833557128906,-0.014111161231994629,0.018216371536254883,-0.06170559301972389,-0.06442195922136307,0.02651369944214821,0.08782367434583009,0.11139077922232318,0.11787562932283395
4.074203014373779,0.011377580463886261,-0.020839445292949677,0.023905634880065918,-0.08467775583267212,-0.04519340395927429,0.031051194295287132,0.08721182574963447,0.11230064728309055,0.11812276603410651
4.083890914916992,0.0077836960554122925,-0.020653806626796722,0.02698427438735962,-0.07544030994176865,-0.02159886434674263,0.04101887345314026,0.08686207402354784,0.1135539416950753,0.11843492577544339
4.094002723693848,0.006435513496398926,-0.007727168500423431,0.023950397968292236,-0.04178035259246826,-0.02353524975478649,0.04811859503388405,0.08700238541258073,0.11490211022592861,0.1188153616544702
4.104256868362427,0.004305973649024963,0.007486969232559204,0.021989762783050537,-0.01270848698914051,-0.01581660844385624,0.04300878942012787,0.08750897601735792,0.11618033936673766,0.11915855702845182
4.113987922668457,0.005117721855640411,0.012924067676067352,0.02075660228729248,-0.002526423428207636,-6.321258842945099e-05,0.038715772330760956,0.08809603227193573,0.11729376390970468,0.1194572060871146
4.124037742614746,-0.002423807978630066,0.007239490747451782,0.01931065320968628,-0.01877783238887787,0.028572959825396538,0.034607578068971634,0.08839406186738091,0.1184729496177672,0.11973663083892595
4.1340107917785645,-0.011685565114021301,-0.0002415180206298828,0.01649034023284912,-0.038608528673648834,0.052500925958156586,0.028668995946645737,0.08852771102127206,0.11976999620213717,0.12001133702933013
4.144091844558716,-0.007675290107727051,-0.004506632685661316,0.009921729564666748,-0.029220085591077805,0.06916113197803497,0.023597270250320435,0.08876488390321485,0.12093265746103095,0.12026324185747725
4.154888868331909,-0.0030882060527801514,-0.0006009191274642944,0.008668005466461182,0.007326340302824974,0.05867599695920944,0.02290612831711769,0.08940776633805705,0.12174806001362086,0.12049455573973102
4.164186954498291,-0.003846287727355957,0.008986756205558777,0.008546710014343262,0.03736786171793938,0.05429403483867645,0.01604236289858818,0.09028620775603727,0.12235483419552912,0.12065356234102921
4.17418098449707,-0.0022426769137382507,0.012410856783390045,0.006293833255767822,0.05581334978342056,0.055795878171920776,0.010583575814962387,0.09095120370033495,0.12294745262010123,0.12072145751836187
4.184206962585449,-0.006790563464164734,0.008306093513965607,0.0017026066780090332,0.06721034646034241,0.058251846581697464,0.004044183064252138,0.09133411212419443,0.12352383072629033,0.1207096444836219
4.194196701049805,-0.014506198465824127,0.007645145058631897,0.002619504928588867,0.0659046471118927,0.06347967684268951,-0.00334779336117208,0.0916203883938319,0.12417024195067396,0.1206271812461079
