timestamp,accel_x,accel_y,accel_z,rotation_x,rotation_y,rotation_z, pitch,roll,yaw
0.04031085968017578,0.0002986416220664978,-0.014850378036499023,0.00660473108291626,-0.016531825065612793,-0.023851603269577026,0.006694299168884754,-0.2667197624020847,0.1001604017488621,0.013448172143590764
0.05331587791442871,1.220405101776123e-05,-0.018055737018585205,0.007991909980773926,-0.022501317784190178,-0.02063978835940361,0.010327702388167381,-0.26691064089679173,0.09997123727613134,0.013556155673857517
0.06561088562011719,-0.0019503310322761536,-0.01609554886817932,0.006913423538208008,-0.022246720269322395,-0.01803894340991974,0.0100509999319911,-0.26712477794067124,0.09981203196856321,0.013681041828967677
0.06807279586791992,-0.0016590580344200134,-0.013016313314437866,0.008195221424102783,-0.010218769311904907,-0.013587603345513344,0.010868803597986698,-0.26728611997404755,0.09968783763225571,0.013810661945289803
0.07636880874633789,-0.0012588798999786377,-0.01268884539604187,0.007532238960266113,-0.003365123877301812,-0.009617895819246769,0.015748247504234314,-0.26734211365595434,0.09960628128600321,0.013951802619619537
0.08420085906982422,-0.002390250563621521,-0.009354084730148315,0.007447302341461182,0.003976428881287575,-0.007818709127604961,0.014256025664508343,-0.2673334919938995,0.09956066687137845,0.01410607001923357
0.09849786758422852,-0.002329513430595398,-0.010274827480316162,0.01107478141784668,0.001525788102298975,-0.0010164626874029636,0.013566000387072563,-0.2672914046389135,0.09955982844176446,0.014245959342598011
0.10320377349853516,-0.0038703009486198425,-0.013258427381515503,0.014196038246154785,-0.004107879474759102,0.0029951015021651983,0.015058223158121109,-0.26729984814553936,0.09960738563099616,0.014394810347873384
0.11189579963684082,-0.006479121744632721,-0.011615246534347534,0.013337969779968262,-0.006954265758395195,0.007833799347281456,0.012463770806789398,-0.2673364401260761,0.09970333227176698,0.014528162150548113
0.11994266510009766,-0.0031344816088676453,-0.01031959056854248,0.011630415916442871,-0.007611400913447142,0.010984228923916817,0.011980567127466202,-0.26740110622629587,0.09982922558685506,0.014659402925279846
0.1299278736114502,-0.0010159462690353394,-0.005785852670669556,0.00673830509185791,-0.004258481319993734,0.008103221654891968,0.009731261059641838,-0.267446622673893,0.099960213669513,0.014778932550008892
0.13980984687805176,0.0012251213192939758,-0.004356324672698975,0.002780139446258545,0.0017066330183297396,-0.002896076999604702,0.005428818054497242,-0.26745160969419324,0.10001010616375929,0.014873282418040876
0.14983367919921875,0.0036203712224960327,-0.0036261379718780518,0.005848824977874756,0.0003153979778289795,-0.016547175124287605,-0.0026900949887931347,-0.26742227873469165,0.09991429341052693,0.014896443932819463
0.16013383865356445,0.003985598683357239,-0.004699259996414185,0.012996137142181396,-0.014271917752921581,-0.027581583708524704,-0.01180881168693304,-0.2674907546856428,0.09966278848880228,0.014824477659169239
0.1701488494873047,0.002599678933620453,-0.004468441009521484,0.013895094394683838,-0.02927936241030693,-0.026142679154872894,-0.01851864717900753,-0.2677260986208382,0.09934848094251038,0.01468124203666314
0.18010687828063965,0.0013219714164733887,-0.007850021123886108,0.008111298084259033,-0.04723555967211723,-0.02573423646390438,-0.02646423876285553,-0.2681313769863355,0.09903731653976157,0.01448880266309005
0.19020485877990723,0.0011172592639923096,-0.010152548551559448,0.0019311308860778809,-0.03825245052576065,-0.026953699067234993,-0.03266727551817894,-0.2686045403616936,0.09869106970841451,0.014214679245304897
0.20018386840820312,0.0018139183521270752,-0.007991909980773926,0.0024742484092712402,-0.03601709380745888,-0.024876609444618225,-0.036869850009679794,-0.26892741120390845,0.0983395350182117,0.013884011972237865
0.21013283729553223,-0.001968070864677429,-0.004775971174240112,0.0012609362602233887,-0.008397982455790043,-0.01877264678478241,-0.04298899322748184,-0.26918445446672323,0.09802613826051626,0.013479443928356299
0.22017288208007812,-0.005098029971122742,-0.009258180856704712,-0.0004773139953613281,-0.012254172936081886,-0.02851741760969162,-0.03283931687474251,-0.26929124645047103,0.09771291143541833,0.013109007671697854
0.22999000549316406,-0.0026999861001968384,-0.014146387577056885,-0.0001494884490966797,-0.00015383446589112282,-0.02099185809493065,-0.03367475047707558,-0.26937599837077314,0.09739458778039906,0.012772620423983555
0.2401409149169922,-0.005205981433391571,-0.007930546998977661,0.003293931484222412,-0.013918748125433922,-0.005612900480628014,-0.02549021504819393,-0.26944943558116224,0.09724123436193058,0.012488457253967722
0.2501077651977539,-0.011834345757961273,-0.022044897079467773,0.005531728267669678,-0.01258876547217369,0.004133203532546759,-0.01712203025817871,-0.26959187291941883,0.09721955856075287,0.012300451283655485
0.2599978446960449,-0.010564327239990234,-0.023296773433685303,0.009759187698364258,-0.011654762551188469,0.005388617515563965,-0.008808653801679611,-0.26968755603538075,0.09726616295982005,0.01218828733888219
0.2699768543243408,-0.009732566773891449,-0.02037525177001953,0.007250785827636719,-0.004650648217648268,-6.1009079217910767e-05,-0.0016900246264413,-0.2696960129665724,0.09730600298408362,0.012148978521501366
0.28006982803344727,-0.00549093633890152,-0.02127927541732788,0.004723787307739258,-0.002159777097404003,-0.003829515539109707,0.004403714090585709,-0.26966825084696233,0.09732147190967837,0.012181420596344203
0.2901496887207031,-0.002636238932609558,-0.023682385683059692,0.001713097095489502,-0.010374297387897968,0.002081104554235935,0.006480979733169079,-0.2696918372325126,0.09730484488828188,0.012250363534685995
0.29995298385620117,-0.0028705447912216187,-0.023097753524780273,-0.0003197789192199707,-0.004903116263449192,-0.0037771835923194885,0.01694917306303978,-0.2697026917570464,0.09731079652944107,0.012372392368039675
0.3105616569519043,-0.004262849688529968,-0.021010369062423706,-0.0008713603019714355,-0.009443805553019047,-0.003445887006819248,0.016937188804149628,-0.26965837571177076,0.097297617607078,0.012565772349386078
0.3203549385070801,-0.005339428782463074,-0.01946556568145752,0.0018699169158935547,-0.007139938417822123,-0.002247908618301153,0.014510516077280045,-0.2696862566488132,0.09727537457192977,0.012713096744672383
0.33024168014526367,-0.004383571445941925,-0.016275763511657715,-0.00136566162109375,-0.005947907455265522,-0.00904749147593975,0.015551013872027397,-0.2696063433567196,0.09718345746430643,0.012852046381736372
0.3402557373046875,-0.00020767003297805786,-0.010218024253845215,-0.002822697162628174,-0.002963702194392681,-0.013203265145421028,0.01125863753259182,-0.269511330888788,0.09704296214781308,0.01298127200266094
0.35029077529907227,0.0008402317762374878,-0.005201548337936401,-0.002259492874145508,-0.0010222578421235085,-0.015113815665245056,0.010154490359127522,-0.2694043516665595,0.09687031833129268,0.013079561877231418
0.3610057830810547,0.0007441937923431396,-0.00631287693977356,-0.0015280842781066895,-0.002859456231817603,-0.015233348123729229,0.00876565184444189,-0.2692908701129964,0.0967128975015063,0.013180147546311978
0.3702549934387207,0.0009709447622299194,-0.004876315593719482,0.0008025765419006348,-0.0030962112359702587,-0.013266869820654392,0.006194903049618006,-0.2691777608376439,0.09658487751906121,0.013258109600365862
0.3807539939880371,0.0016722828149795532,-0.0012219250202178955,0.0018793940544128418,-0.005449180491268635,-0.01355316024273634,0.007164719048887491,-0.26907498792298773,0.09645549290264865,0.013323491603686895
0.39040684700012207,0.0037377849221229553,-0.0005260705947875977,0.001435399055480957,-0.009156833402812481,-0.015663448721170425,0.0011172135127708316,-0.269017945302967,0.09630506100902567,0.013372882295766128
0.40135884284973145,0.0037503764033317566,-0.004233688116073608,0.004030168056488037,-0.012316757813096046,-0.0156993567943573,0.0008917502127587795,-0.2690176439737113,0.09613290995710572,0.01338575150244207
0.41201186180114746,0.0023349374532699585,-0.00548243522644043,0.007172644138336182,-0.011090371757745743,-0.018609657883644104,-0.0008534191292710602,-0.2690309084474313,0.09593866727048418,0.013390698002979814
0.4206719398498535,0.001363322138786316,-0.00356215238571167,0.008090198040008545,-0.015151426196098328,-0.02319224923849106,-0.0036671021953225136,-0.269096648805893,0.09572854166819685,0.013380607959597383
0.43097496032714844,0.0016846880316734314,-0.006160467863082886,0.01190716028213501,-0.01805480383336544,-0.0239267498254776,-0.004561391659080982,-0.269227768337592,0.09549252430665421,0.013350044307160757
0.44103479385375977,0.0017033517360687256,-0.012067347764968872,0.011550724506378174,-0.01835424266755581,-0.015317371115088463,-0.0020077398512512445,-0.2693720057761087,0.09530196365614578,0.013339149330299858
0.45246267318725586,0.00023338943719863892,-0.012469589710235596,0.008211135864257812,-0.016170185059309006,-0.012924786657094955,0.003034156747162342,-0.2695202033636242,0.0951839894837556,0.013365082818943538
0.46072983741760254,-0.001563824713230133,-0.010114789009094238,0.007945001125335693,-0.012194301933050156,-0.01572665385901928,0.004915573634207249,-0.2696417181773587,0.09507241980179452,0.013423239470312182
0.4704127311706543,0.0003492683172225952,-0.011650681495666504,0.010773777961730957,-0.013553312979638577,-0.01040299516171217,0.007054624147713184,-0.2697629439205854,0.09499010016508636,0.013494007915174586
0.48059797286987305,0.0006905347108840942,-0.011008471250534058,0.0117950439453125,-0.017947394400835037,-0.00504800071939826,0.011231419630348682,-0.2698881868924247,0.09497168921458057,0.013610808296288123
0.4904327392578125,-0.0021214336156845093,-0.01154237985610962,0.009618818759918213,-0.017096249386668205,-0.0024732560850679874,0.010292655788362026,-0.2700305329257589,0.09499588502744999,0.013747418991608681
0.5005769729614258,-0.0017441138625144958,-0.014831960201263428,0.00971221923828125,-0.01702895388007164,-0.0012738127261400223,0.012487952597439289,-0.2701822548496504,0.0950360035870395,0.013883214218065725
0.5106508731842041,-0.0006108805537223816,-0.012345880270004272,0.011360883712768555,-0.0071928356774151325,-0.0029846271499991417,0.01156410202383995,-0.27027845646452625,0.0950820167471225,0.014029911232273243
0.5214247703552246,0.00019787997007369995,-0.006887376308441162,0.010254323482513428,3.566616214811802e-05,-0.008046542294323444,0.00900666881352663,-0.2702510538165464,0.09508125511091091,0.014153848555477088
0.5305008888244629,0.0002325102686882019,-0.0063318610191345215,0.009548187255859375,0.002594165038317442,-0.006289122626185417,0.012111381627619267,-0.27016548308244986,0.09504289244546292,0.014266506264917158
0.5405027866363525,0.00015594065189361572,-0.005063503980636597,0.007218599319458008,0.0034269688185304403,0.0016689356416463852,0.011517816223204136,-0.27008437037119176,0.09505694783156479,0.014384819829525542
0.550562858581543,-0.0021317973732948303,-0.004873305559158325,0.005113661289215088,0.0015523696783930063,0.005280448589473963,0.010394494980573654,-0.2699978248485027,0.09513304750058048,0.01449695386992205
0.560661792755127,-0.004488758742809296,-0.007001638412475586,0.0037958621978759766,0.001514070201665163,0.008019288070499897,0.0075386809185147285,-0.2699263154982015,0.0952340081600299,0.014598983879889465
0.5708169937133789,-0.0046247392892837524,-0.006410688161849976,0.005102813243865967,0.002233656123280525,0.009822780266404152,0.005355687811970711,-0.26985145496091284,0.09534194100121815,0.014673225806694709
0.580603837966919,-0.00559089332818985,-0.004792243242263794,0.004825174808502197,0.0010346178896725178,0.005302907899022102,0.003762957639992237,-0.26977123278972875,0.09544029879620612,0.014723316350428403
0.590512752532959,-0.0046437084674835205,-0.0048749446868896484,0.00579601526260376,-0.0013931198045611382,-0.0031896461732685566,-0.00031327689066529274,-0.2697303941842975,0.09545393862571849,0.014731955643147188
0.6013069152832031,-0.0012873858213424683,-0.005367845296859741,0.005797743797302246,-0.00722564198076725,-0.010690705850720406,-0.000483772368170321,-0.2697510420874757,0.09537559835052246,0.014725380493013541
0.6111207008361816,-0.0009820908308029175,-0.004511147737503052,0.003773212432861328,-0.01218764390796423,-0.010348223149776459,-0.0015524988994002342,-0.26982790142529256,0.0952661786061635,0.014725560587913984
0.6206347942352295,-0.0023278966546058655,-0.007032334804534912,0.0024484992027282715,-0.020152010023593903,-0.01381552591919899,-0.003166640643030405,-0.269973999918432,0.09514597278435184,0.014724954930443918
0.6307506561279297,-0.003932252526283264,-0.012004315853118896,-2.181529998779297e-05,-0.012963871471583843,-0.012695133686065674,0.00039373920299112797,-0.2701298585031409,0.09500921917797535,0.014719736395392553
0.6405177116394043,-0.0043219104409217834,-0.010786116123199463,0.0001519322395324707,0.0018376607913523912,-0.008742514997720718,0.0018282241653651,-0.2701482977373947,0.094891009210057,0.014725598255039914
0.6506597995758057,-0.004369035363197327,-0.0075109899044036865,-0.0005880594253540039,0.01298005972057581,-0.01115746982395649,0.006928710266947746,-0.27004318138901096,0.09477830658718175,0.014764835955893703
0.6607537269592285,-0.003922119736671448,-0.00279882550239563,-0.001326143741607666,0.02348271943628788,-0.01513450127094984,0.006537811364978552,-0.26982442570503523,0.09464074416494173,0.014804739059306035
0.6706528663635254,-0.0017322897911071777,-0.006900876760482788,0.0004775524139404297,0.018209926784038544,-0.015900693833827972,0.0034693172201514244,-0.26958430109953124,0.09446726521434332,0.014825569735082377
0.6810827255249023,-0.003064073622226715,-0.009348660707473755,0.0031982064247131348,0.00520139979198575,-0.0169668011367321,0.0031077666208148003,-0.2694484580130552,0.0943091592549238,0.014857831142889969
0.6906368732452393,-0.0032722726464271545,-0.009137243032455444,0.007000982761383057,-0.005807842127978802,-0.017596904188394547,-0.0001364962663501501,-0.2694349090201206,0.09414414033663275,0.01488105205687758
0.700624942779541,-0.003057315945625305,-0.011098146438598633,0.008828878402709961,-0.011876553297042847,-0.015920355916023254,-0.0030203801579773426,-0.26950629045598384,0.09396970448441774,0.01487539759277134
0.7108938694000244,-0.003599919378757477,-0.014176428318023682,0.00686115026473999,-0.011062425561249256,-0.015904642641544342,-0.004084579646587372,-0.26956545588198594,0.09378935026186021,0.01484903154410405
0.7205839157104492,-0.004336223006248474,-0.008522242307662964,0.0042473673820495605,-0.002282532397657633,-0.016187602654099464,-0.0014548675389960408,-0.2695883512823953,0.09360317958953973,0.014828574816160097
0.7310967445373535,-0.002255462110042572,-0.004656165838241577,0.002907395362854004,0.010156027972698212,-0.01290818676352501,0.0008839204674586654,-0.2695192091990509,0.09343659032098542,0.014815710626822172
0.7406327724456787,-0.001448206603527069,-0.004471689462661743,0.004273593425750732,0.017356980592012405,-0.010855155065655708,0.0009601401397958398,-0.26935954080847657,0.09330678854814335,0.014805187564557187
0.750877857208252,-0.004119083285331726,-0.0070638954639434814,0.0029600858688354492,0.013857855461537838,-0.0077509754337370396,-0.0008143240120261908,-0.2691677292873655,0.0932070662311195,0.014795231871327103
0.7612578868865967,-0.0028820186853408813,-0.008812576532363892,0.004598140716552734,0.008909203112125397,-0.005269708577543497,-0.0030494616366922855,-0.2690031246751356,0.09312219726261857,0.014766883837520825
0.7707619667053223,-0.0016361773014068604,-0.010462522506713867,0.007832527160644531,0.003801525803282857,-0.0030560889281332493,-0.00369421299546957,-0.26891022010624804,0.09306181164788493,0.01472866506301382
0.7807059288024902,-0.0016474351286888123,-0.008889347314834595,0.010230600833892822,-0.0006068546790629625,-0.004092102870345116,-0.006004665046930313,-0.2688611852733081,0.09300869809974037,0.014680219314511014
0.790766716003418,-0.0010348185896873474,-0.008709967136383057,0.009057939052581787,-0.0013978136703372002,-0.003378109075129032,-0.008141585625708103,-0.2688175685930862,0.092941633305869,0.014604738843449433
0.8007297515869141,0.0008153319358825684,-0.010871917009353638,0.006798803806304932,0.0033042803406715393,0.0003645638935267925,-0.0065821451134979725,-0.2687809133167492,0.09288901160021061,0.014522749266921814
0.8112297058105469,0.0002353563904762268,-0.010217219591140747,0.0046083927154541016,0.01022583618760109,0.0003539114259183407,-0.004329643212258816,-0.2687032843131469,0.09287127721238615,0.014458460404194882
0.8212718963623047,0.0009221285581588745,-0.0076618194580078125,0.0021139979362487793,0.014320462010800838,-0.004379546735435724,-0.0032709301449358463,-0.2685692270671784,0.09283591651457056,0.014408122955475068
0.831028938293457,0.002685151994228363,-0.008321493864059448,0.0032922029495239258,0.01325093675404787,-0.0072110197506845,-0.0027199224568903446,-0.2684146384073097,0.09274387025159093,0.014355300614367078
0.8410229682922363,0.0010264217853546143,-0.011326968669891357,0.007034420967102051,0.004223686642944813,-0.0002226186916232109,-0.0021818571258336306,-0.26830332521531375,0.09268869504457856,0.014317162432991725
0.8508808612823486,-0.0020163878798484802,-0.014805316925048828,0.00799548625946045,0.00035810843110084534,0.005195315927267075,0.0014155406970530748,-0.26823936425895456,0.09270951150800151,0.014314534283328748
0.8615717887878418,-0.0041388049721717834,-0.019552141427993774,0.007886707782745361,-0.0028277146629989147,0.0037202355451881886,0.002416356699541211,-0.26822492525012903,0.09277421897202648,0.014335351418689479
0.8708457946777344,-0.0020811930298805237,-0.014290839433670044,0.004760444164276123,0.001476219855248928,-0.0032697636634111404,0.006384466774761677,-0.26821215863279185,0.09279221366573914,0.014387114948214815
0.8808717727661133,0.0017765313386917114,-0.010191887617111206,0.005575954914093018,0.0033274332527071238,-0.006614471320062876,0.0072357188910245895,-0.2681389325223454,0.09276142531067505,0.014452978824692037
0.8909118175506592,0.0025059059262275696,-0.012104183435440063,0.0066162943840026855,-0.000796471955254674,-0.003373138140887022,0.009920718148350716,-0.268080782181859,0.09273131698183112,0.014528661862168961
0.9010047912597656,-0.001256406307220459,-0.01249721646308899,0.010168969631195068,-0.005438877269625664,0.0028233719058334827,0.014032266102731228,-0.26807695050066155,0.09277201958527635,0.014666709278002696
0.9121999740600586,-0.0024245232343673706,-0.01243928074836731,0.009565114974975586,-0.003531521651893854,0.002487813588231802,0.01606026291847229,-0.26808016122600586,0.09286036609786819,0.014827342562190345
0.9210858345031738,-0.0010340586304664612,-0.0099659264087677,0.008533656597137451,0.0023468572180718184,0.0023741405457258224,0.017324944958090782,-0.26803120726213864,0.09293656971612067,0.014996181192548776
0.9310858249664307,0.0011966601014137268,-0.00796005129814148,0.011489272117614746,0.003946884535253048,0.0017560208216309547,0.01652759499847889,-0.26791320915455513,0.09299407039205425,0.015165826818670151
0.9408228397369385,-0.0023709312081336975,-0.005333840847015381,0.012612581253051758,0.006890376564115286,-0.000931641086935997,0.013149747624993324,-0.26775321195201357,0.09301866932030543,0.015311056380915455
0.9509627819061279,-0.003608196973800659,-0.004869610071182251,0.013840675354003906,-0.0012932512909173965,0.0053568813018500805,0.009829585440456867,-0.267651586838654,0.09306510793742159,0.015426179562869858
0.9613909721374512,-0.003278873860836029,-0.007102459669113159,0.015231132507324219,-0.010630560107529163,0.012631571851670742,0.009361667558550835,-0.26765678189017256,0.09319899106937912,0.01553538685514606
0.9708766937255859,-0.005569569766521454,-0.0052470862865448,0.012678980827331543,-0.01497124694287777,0.013806291855871677,0.008510521613061428,-0.26772654468371676,0.09337755656876778,0.015643155364565633
0.9809589385986328,-0.00531315803527832,-0.00673028826713562,0.013749420642852783,-0.016763554885983467,0.01256232988089323,0.005387166049331427,-0.2678405229711657,0.09352662523889327,0.015729144332456656
0.9911308288574219,-0.00546969473361969,-0.00850975513458252,0.016588032245635986,-0.015901988372206688,0.015584484674036503,0.005570711102336645,-0.2679610840999915,0.09367686517556832,0.015790783005514678
1.001255989074707,-0.007225252687931061,-0.0066013336181640625,0.017294645309448242,-0.019604796543717384,0.02198987640440464,0.005287723615765572,-0.2681023843488252,0.09388796056863537,0.015860824813666893
1.0114448070526123,-0.009604766964912415,-0.0067861080169677734,0.014396369457244873,-0.02011905238032341,0.029912780970335007,0.003470382187515497,-0.2682940075981133,0.09416225048498231,0.015931117338560438
1.0210447311401367,-0.01092606782913208,-0.012907475233078003,0.016431987285614014,-0.02213313616812229,0.04260114207863808,0.005321918521076441,-0.26848659182905715,0.09454229609797288,0.01599806483450901
1.0311999320983887,-0.013728067278862,-0.015587866306304932,0.013926208019256592,-0.02175390161573887,0.042898617684841156,0.00903409905731678,-0.2686869505424772,0.09500270831855491,0.016087715311465068
1.0411930084228516,-0.012306086719036102,-0.00841665267944336,0.010042548179626465,-0.019554147496819496,0.03634267300367355,0.005976683460175991,-0.2688615145103556,0.09541764951813132,0.01617734832395344
1.0513038635253906,-0.007389180362224579,-0.010124444961547852,0.010739624500274658,-0.052343253046274185,0.0234452486038208,0.0009603532962501049,-0.26917685419236226,0.09572437544871697,0.016243047511875722
1.0628910064697266,-0.007781140506267548,-0.014591574668884277,0.015914857387542725,-0.10906475782394409,0.01911778934299946,-0.007283088751137257,-0.2699645123078391,0.0959152495659357,0.016283493369570846
1.0719537734985352,-0.006633982062339783,-0.023946046829223633,0.02348637580871582,-0.184052973985672,0.016077790409326553,-0.0022782101295888424,-0.2714380812404993,0.09609494491235182,0.01638683769285655
1.0818538665771484,-0.008602134883403778,-0.0350533127784729,0.024295687675476074,-0.2648090422153473,0.0053294505923986435,-0.003003389108926058,-0.27367086485713554,0.09621857417820452,0.016587440504416028
1.0912418365478516,-0.009353309869766235,-0.03579297661781311,0.028706133365631104,-0.3168242871761322,-0.002795320935547352,0.0014046751894056797,-0.27657989594758126,0.0962855696251446,0.016862474590680177
1.1011576652526855,-0.008281096816062927,-0.034633904695510864,0.02641582489013672,-0.333128958940506,0.007460645399987698,0.010001517832279205,-0.27984951069546227,0.09637153616759683,0.01723448870063946
1.111332893371582,-0.007117569446563721,-0.030180305242538452,0.023859083652496338,-0.3447344899177551,0.006366618908941746,0.04651825129985809,-0.28304421208278685,0.09664841311368218,0.017843834710987598
1.121387004852295,-0.00936124473810196,-0.007406353950500488,0.01733165979385376,-0.3430159389972687,-0.03911591321229935,0.07675924152135849,-0.28642251228792526,0.09679293162441197,0.018844793345001373
1.1314177513122559,0.000677838921546936,0.008244067430496216,0.026605844497680664,-0.3772737979888916,-0.07603345066308975,0.07645111531019211,-0.2898813731906183,0.09647783439424153,0.02002349842046927
1.1413617134094238,0.0070677027106285095,-0.058062970638275146,0.03264647722244263,-0.53448885679245,-0.1278095245361328,0.02453571930527687,-0.29422322636802717,0.09574302151182572,0.021029262777613453
1.1514177322387695,-0.003849022090435028,-0.09569388628005981,0.031883180141448975,-0.7464759945869446,-0.14413176476955414,-0.01656191423535347,-0.30056197061482937,0.09454066551691508,0.021673584738153468
1.1614298820495605,-0.009636014699935913,-0.09610575437545776,0.03858029842376709,-0.8745673298835754,-0.13210546970367432,8.976587560027838e-05,-0.3086393472257901,0.09335418814308988,0.022382004831670146
1.1712548732757568,0.0005291327834129333,-0.08988344669342041,0.03605759143829346,-0.9260520935058594,-0.14832012355327606,0.0147832240909338,-0.31767267381082076,0.09227039927870248,0.023358556638631695
1.1813008785247803,-0.0020517706871032715,-0.04934132099151611,0.026671886444091797,-0.9051591753959656,-0.1970556080341339,0.0233621709048748,-0.3268105631187229,0.09090513344826466,0.024438056920902094
1.1912968158721924,0.003221459686756134,-0.03371936082839966,0.012536227703094482,-0.8265844583511353,-0.2379998415708542,0.037353623658418655,-0.3354623370703684,0.08907408582643557,0.025595951812492943
1.201314926147461,0.02195046842098236,-0.03331884741783142,-0.00654911994934082,-0.7020865678787231,-0.2649262547492981,0.05320656672120094,-0.34307970112384983,0.08691648286791337,0.026771445299702275
1.2115449905395508,0.028272487223148346,-0.01636064052581787,-0.03929543495178223,-0.5621928572654724,-0.27383720874786377,0.0854494571685791,-0.34935131652569895,0.08466366465641183,0.028073923378056566
1.2212677001953125,0.022539034485816956,0.009188413619995117,-0.06620770692825317,-0.4159945249557495,-0.2872355878353119,0.12452245503664017,-0.354123736992164,0.08239217240058366,0.029638697691177145
1.2313528060913086,0.018716782331466675,0.017414987087249756,-0.07367432117462158,-0.3155278265476227,-0.2955172061920166,0.13961777091026306,-0.35763773552298317,0.08005669319728247,0.031367899603386665
1.2412278652191162,0.012668401002883911,0.0005529820919036865,-0.0656358003616333,-0.28904274106025696,-0.2960153818130493,0.13573990762233734,-0.3604421059531159,0.07774294284794338,0.03309661985086181
1.2513327598571777,0.006575942039489746,-0.01284414529800415,-0.05594217777252197,-0.4317074716091156,-0.3411506414413452,0.08383515477180481,-0.36391762066377786,0.0750170584338341,0.0345799259508221
1.261469841003418,0.0004170835018157959,-0.02127254009246826,-0.01805257797241211,-0.6360400915145874,-0.3058355450630188,0.059382811188697815,-0.3691537534616694,0.07217635494226332,0.035724526165270824
1.2712838649749756,-0.0032883957028388977,-0.06797313690185547,0.003420412540435791,-0.8689026832580566,-0.25237736105918884,0.027673084288835526,-0.3766346160405617,0.0697700400068368,0.03679060898605217
1.2812929153442383,-0.018130145967006683,-0.08306685090065002,0.0017917156219482422,-1.045379638671875,-0.20999209582805634,-0.010810392908751965,-0.3862552775759256,0.06775616583104817,0.03757421874379278
1.2912688255310059,-0.025718342512845993,-0.06785330176353455,0.004196465015411377,-1.0983641147613525,-0.1888473927974701,-0.01827230304479599,-0.39705156204859116,0.066008087732008,0.03817380244077465
1.301313877105713,-0.012699026614427567,-0.04264569282531738,-0.011291563510894775,-1.0214378833770752,-0.18868201971054077,-0.010774972848594189,-0.407731178794721,0.06435649033135897,0.038759470141491746
1.3115286827087402,0.0008160583674907684,-0.002801835536956787,-0.025554656982421875,-0.8480523228645325,-0.20199967920780182,0.008669991977512836,-0.4171213599514517,0.06266973723755652,0.03938932176542772
1.3213329315185547,0.010083355009555817,0.03687995672225952,-0.03842759132385254,-0.6208354830741882,-0.21257513761520386,0.030903393402695656,-0.4244671008924559,0.06087419853152164,0.040099017863850735
1.3314919471740723,0.01010044664144516,0.06099081039428711,-0.04320883750915527,-0.3972064256668091,-0.20486049354076385,0.0534031055867672,-0.42951088598285214,0.059112286647286204,0.04089869901937018
1.3414487838745117,0.004028789699077606,0.060836583375930786,-0.046433866024017334,-0.22138765454292297,-0.19560188055038452,0.06112462282180786,-0.4325525830826964,0.05744276693276052,0.0417417508068695
1.3515357971191406,-0.0043480247259140015,0.049473583698272705,-0.038009047508239746,-0.08920140564441681,-0.17002221941947937,0.06299735605716705,-0.43404361130707536,0.05593238542492175,0.04253694751766183
1.3616728782653809,-0.010589443147182465,0.03752806782722473,-0.023090898990631104,0.02578841708600521,-0.1329537183046341,0.05973253771662712,-0.4343103928188354,0.054710180007566424,0.043241807820124836
1.3716368675231934,-0.017324984073638916,0.0369284451007843,-0.014486968517303467,0.11257577687501907,-0.1161920502781868,0.054223522543907166,-0.4335585840112988,0.053721495058416634,0.04383561239604162
1.3815388679504395,-0.021611861884593964,0.04327869415283203,0.00017219781875610352,0.16755247116088867,-0.10796892642974854,0.045694537460803986,-0.4321101671225573,0.05279276505419843,0.04429554536792257
1.3915410041809082,-0.01596786454319954,0.04069837927818298,0.014987289905548096,0.21083655953407288,-0.0855187475681305,0.036832068115472794,-0.43019719390959876,0.0519580628512863,0.044634729868391884
1.4015488624572754,-0.01228417083621025,0.03580614924430847,0.01979374885559082,0.2615514397621155,-0.06560597568750381,0.030727945268154144,-0.42780809357090827,0.051323355589555066,0.04487879193443722
1.411982774734497,-0.015160586684942245,0.039701104164123535,0.019568204879760742,0.3276883661746979,-0.0648815929889679,0.020020969212055206,-0.4248374274985652,0.05072601677142162,0.04500004277085072
1.4215388298034668,-0.014804214239120483,0.041832566261291504,0.02622056007385254,0.3750280737876892,-0.07931464165449142,0.009536105208098888,-0.42131173126841004,0.04998659532575775,0.0449710837606708
1.4316067695617676,-0.006980147212743759,0.035580575466156006,0.027724862098693848,0.4003877639770508,-0.09159234166145325,0.0030600959435105324,-0.41741464166205533,0.04906817508831214,0.044828645309608006
1.4416768550872803,-0.0022616013884544373,0.030330002307891846,0.02854233980178833,0.37491050362586975,-0.10125292092561722,-0.012185382656753063,-0.41349709808030166,0.04801187344005834,0.04458049175544171
1.452124834060669,-0.0027461759746074677,0.015192776918411255,0.033188700675964355,0.1750842183828354,-0.15868665277957916,-0.06672372668981552,-0.4106666706650254,0.04649888501594341,0.04405651665907874
1.4620819091796875,-0.005561433732509613,-0.0142536461353302,0.0510525107383728,-0.03091937117278576,-0.13650983572006226,-0.1084141805768013,-0.40999776224546214,0.044578378779446516,0.04302777988182519
1.471625804901123,-0.004155304282903671,-0.07603916525840759,0.05853545665740967,-0.2114766240119934,-0.10670188069343567,-0.12854447960853577,-0.4112987874178834,0.04290147625300619,0.04181326777916049
1.481651782989502,-0.009303726255893707,-0.09183365106582642,0.03470093011856079,-0.3260323405265808,-0.1291312426328659,-0.17603124678134918,-0.4140989681766631,0.041109197222661424,0.040270996613825355
1.4916458129882812,-0.013070255517959595,-0.05529719591140747,0.03793150186538696,-0.34421029686927795,-0.1428755521774292,-0.20044976472854614,-0.4175943578317975,0.03894812334946586,0.03834857194255682
1.501729965209961,-0.0063150785863399506,-0.04295811057090759,0.026677429676055908,-0.2595961093902588,-0.14476878941059113,-0.23941880464553833,-0.42074063941999607,0.03659876517691514,0.03609010918295493
1.5117568969726562,-0.012701787054538727,-0.035245656967163086,0.00031894445419311523,-0.15904393792152405,-0.17268937826156616,-0.3159835934638977,-0.4229911234826128,0.033781919312905195,0.03312182283229441
1.521559715270996,-0.031593579798936844,-0.04954066872596741,-0.010606527328491211,0.0399835966527462,-0.16404852271080017,-0.38159269094467163,-0.4237080521015717,0.03051183280852199,0.029313198751983217
1.5317318439483643,-0.04208993911743164,-0.09061607718467712,-0.030087947845458984,0.24063226580619812,-0.17969752848148346,-0.4597913324832916,-0.4224014086983181,0.026943982618724337,0.024680297824897033
1.5416736602783203,-0.04103539139032364,-0.08411741256713867,-0.06573963165283203,0.47079265117645264,-0.21189837157726288,-0.5483028888702393,-0.41899301752848395,0.022673737517263363,0.01904219334428855
1.5520308017730713,-0.031934842467308044,-0.0643225908279419,-0.0691271424293518,0.6674430966377258,-0.24157372117042542,-0.6020002365112305,-0.4133663445555035,0.017760835221707388,0.01260002587209528
1.5618057250976562,-0.022831743583083153,-0.05139008164405823,-0.08225882053375244,0.8119576573371887,-0.2607101798057556,-0.6520863771438599,-0.4061040346243864,0.012445978593650514,0.005634327480884118
1.5717339515686035,-0.022518068552017212,0.004794657230377197,-0.09493058919906616,1.0821641683578491,-0.19078728556632996,-0.6736169457435608,-0.3967527940682448,0.007225500773766664,-0.0016952946310812226
1.5818367004394531,-0.034368839114904404,0.0509265661239624,-0.11012613773345947,1.5682657957077026,-0.048722684383392334,-0.6845049262046814,-0.38368047140748424,0.0032152681292423758,-0.009126921792223013
1.5917878150939941,-0.055654045194387436,0.14010131359100342,-0.15537500381469727,2.2497620582580566,0.05339382588863373,-0.6771935224533081,-0.3647597219423239,0.0005119260739959642,-0.016513873499487325
1.6017978191375732,-0.0832599401473999,0.2775212824344635,-0.20218640565872192,3.3413357734680176,0.23676471412181854,-0.6110010743141174,-0.3370065332009707,-0.0004604364822106027,-0.023418675083567212
1.611928939819336,-0.08368992060422897,0.3248560130596161,-0.27081966400146484,4.764784336090088,0.39556795358657837,-0.5650964379310608,-0.2966958106165953,0.0008089905286274397,-0.02960054077353987
1.6217827796936035,-0.07613217830657959,0.37427276372909546,-0.3507586717605591,6.118875503540039,0.3330177068710327,-0.5641221404075623,-0.24189461695579778,0.0030552249778753827,-0.03548229536984645
1.632030963897705,-0.059685561805963516,0.46570050716400146,-0.3422224521636963,7.067126274108887,0.32045823335647583,-0.6349409222602844,-0.1756275516071262,0.004843692554260391,-0.04190157374777415
1.6419198513031006,-0.012446754612028599,0.4330316185951233,-0.2757815718650818,7.416857719421387,0.47655972838401794,-0.7127370238304138,-0.10274776671087188,0.007818861987050976,-0.04913709094331106
1.6521508693695068,-0.030174605548381805,0.32842525839805603,-0.23831719160079956,7.251173496246338,0.6958353519439697,-0.8102795481681824,-0.029092201037475226,0.013105924052670812,-0.05759538255308783
1.6619267463684082,-0.1081852912902832,0.31299692392349243,-0.1250854730606079,6.668142795562744,0.9279338121414185,-0.8326412439346313,0.040516610321050604,0.021275018322510737,-0.06701402527649981
1.6719489097595215,-0.12406790256500244,0.27188217639923096,-0.0035085082054138184,5.996507167816162,1.1399400234222412,-0.846251904964447,0.10354914816733392,0.03225096629301487,-0.07710476946025652
1.682161808013916,-0.10609478503465652,0.21781647205352783,0.07744306325912476,5.621904373168945,1.3965015411376953,-0.7481683492660522,0.1611554338273192,0.04636340684418848,-0.08754686064052147
1.691929817199707,-0.09283816814422607,0.21901504695415497,0.06104773283004761,5.5555548667907715,1.6093227863311768,-0.5460687875747681,0.2166314595864756,0.06335446441676738,-0.09726341864122527
1.7020339965820312,-0.06197933107614517,0.36651676893234253,-0.03975397348403931,5.648070812225342,1.7837731838226318,-0.373003214597702,0.2721306886340419,0.08248454292531654,-0.10621394754381035
1.7119526863098145,-0.027607053518295288,0.43908607959747314,-0.11618763208389282,5.663279056549072,1.9823230504989624,-0.13019298017024994,0.3283467172264075,0.10371239322450361,-0.11438033210796664
1.7219018936157227,-0.03362908959388733,0.40320560336112976,-0.18250316381454468,5.537596225738525,2.1409006118774414,0.030008675530552864,0.384059172905063,0.12686553799652003,-0.12156543050257804
1.731982707977295,-0.06559956073760986,0.42667892575263977,-0.14736658334732056,5.175384044647217,2.341801643371582,-0.08135326951742172,0.4374290561744119,0.15263570421659936,-0.12988196267909774
1.7419309616088867,-0.13941387832164764,0.3811403214931488,-0.0351792573928833,4.621410369873047,2.4490466117858887,-0.3013276755809784,0.48555182231759536,0.18175145530352751,-0.14115009023109365
1.7520079612731934,-0.21199138462543488,0.34588557481765747,0.09123831987380981,4.167464733123779,2.3371450901031494,-0.5194091200828552,0.527672996606113,0.21273978227388177,-0.15546280663734308
1.7621028423309326,-0.23176999390125275,0.32927781343460083,0.28857702016830444,3.734595537185669,2.2530677318573,-0.8579134941101074,0.5647570112472534,0.24523248329790565,-0.17380693220050195
1.772049903869629,-0.2229693979024887,0.18542760610580444,0.49520236253738403,3.482905387878418,2.0518252849578857,-1.167736291885376,0.5968932372433158,0.2794235601981853,-0.19663602068850777
1.7822699546813965,-0.20412638783454895,-0.04309004545211792,0.7219651341438293,3.2527639865875244,1.6107697486877441,-1.6423972845077515,0.6249082325732133,0.3141419668585523,-0.22495803011977278
1.7947449684143066,-0.10821083188056946,-0.2929026484489441,0.9270981550216675,3.212263345718384,1.0093350410461426,-1.987749695777893,0.6493837442193784,0.3479125926841013,-0.2596742453461856
1.8025226593017578,0.04220852255821228,-0.10357117652893066,0.9057143330574036,3.362391471862793,0.5063501000404358,-1.9488016366958618,0.6729903339477319,0.37889511067779796,-0.29800175116618716
1.812126874923706,0.220683753490448,0.32996273040771484,0.5531398057937622,3.4680490493774414,0.24710732698440552,-1.9027653932571411,0.6974489441139676,0.40777032847642797,-0.33788269326908543
1.8221049308776855,0.3339122235774994,0.40822428464889526,0.10804998874664307,3.2417702674865723,0.23320123553276062,-2.0483646392822266,0.7202021256050196,0.43729286740060375,-0.3798064606057906
1.8321609497070312,0.3001627027988434,0.1783466935157776,-0.17402642965316772,2.8551909923553467,0.47649404406547546,-2.185199499130249,0.7382658230428472,0.46976522641369695,-0.42337571595979123
1.8421268463134766,0.14089474081993103,0.04637235403060913,-0.2690846920013428,2.626905679702759,0.7162452936172485,-2.125227451324463,0.7522586241112457,0.5053744448215146,-0.4668700856971956
1.8521456718444824,0.009112238883972168,0.11640363931655884,-0.22048300504684448,2.526074171066284,0.7522805333137512,-2.004390001296997,0.7641655253630066,0.541868833182358,-0.5091667239417121
1.8622338771820068,-0.005347788333892822,0.24437355995178223,-0.042465806007385254,2.5382490158081055,0.7750608325004578,-1.9089463949203491,0.7752708096399121,0.578637653923931,-0.5510684818714213
1.8721437454223633,0.005852252244949341,0.21018582582473755,0.045411527156829834,2.485642910003662,0.8354514837265015,-1.7898743152618408,0.7857174549383298,0.6159305723636267,-0.5926605616447189
1.8843269348144531,-0.025583982467651367,0.12370181083679199,0.07102477550506592,2.2683324813842773,0.9278190732002258,-1.626752495765686,0.7948946152978702,0.6529685223265862,-0.6323778843608469
1.8948898315429688,-0.0875842273235321,0.0518912672996521,0.12121248245239258,1.9355800151824951,1.0954780578613281,-1.4782633781433105,0.8016901607577339,0.6890517579143106,-0.6685954361375372
1.902662754058838,-0.134607195854187,-0.0626479983329773,0.1401129961013794,1.6445653438568115,1.2261884212493896,-1.3312296867370605,0.8061223251612494,0.7235198301403015,-0.7005095633403567
1.913285732269287,-0.15079188346862793,-0.15237289667129517,0.15761339664459229,1.4958914518356323,1.4193816184997559,-1.3240212202072144,0.8086778241950032,0.7585318007371706,-0.7302138325573221
1.9222347736358643,-0.1825588047504425,-0.22584819793701172,0.2031678557395935,1.2327066659927368,1.3395287990570068,-1.1897845268249512,0.8096223943552177,0.7920051151569525,-0.7571229915091471
1.9322457313537598,-0.13009661436080933,-0.22838914394378662,0.2549918591976166,1.085957646369934,1.1462671756744385,-1.0020167827606201,0.8096993110299067,0.8212431342302606,-0.7802698431744929
1.9422578811645508,-0.029223620891571045,-0.12843674421310425,0.25326263904571533,0.9874566197395325,0.978218674659729,-0.8575621247291565,0.8098206269834978,0.846444085637491,-0.8004198112407419
1.9523568153381348,0.008733689785003662,-0.09950929880142212,0.17753267288208008,0.9148942828178406,0.8181099891662598,-0.7021182179450989,0.8101036002513017,0.8683430145798042,-0.8182638406870912
1.9622797966003418,0.03564155101776123,-0.06863319873809814,0.07830941677093506,0.890414834022522,0.6745113730430603,-0.5420911312103271,0.8110668205647025,0.8872957732666945,-0.8340888531730328
1.9722919464111328,0.05462038516998291,0.01079404354095459,-0.03302127122879028,0.8389109373092651,0.5657684206962585,-0.418069064617157,0.8127818624133815,0.9037508871656584,-0.8482643110401942
1.9823238849639893,0.05104231834411621,0.05399453639984131,-0.06927978992462158,0.7611490488052368,0.5420145392417908,-0.3476402461528778,0.8146522414747837,0.9185017176623937,-0.8609323682878245
1.9924068450927734,0.024584650993347168,0.057746946811676025,-0.05693328380584717,0.5996086001396179,0.5499856472015381,-0.29904529452323914,0.8162085205138823,0.9318271513276307,-0.8717803167228916
2.002379894256592,-0.0016753673553466797,0.05896109342575073,-0.035790979862213135,0.4459705352783203,0.6508181691169739,-0.2678994834423065,0.8170011714545066,0.9440162672964416,-0.8803139017546456
2.01245379447937,-0.03674674034118652,0.06356304883956909,-0.03973132371902466,0.35357484221458435,0.7225255966186523,-0.20572933554649353,0.8173712592966454,0.9557765619074148,-0.8870159610358093
2.0223069190979004,-0.071971595287323,0.10670477151870728,-0.01959449052810669,0.33742788434028625,0.8024892210960388,-0.21218222379684448,0.8176240286731785,0.967645540771116,-0.8928363318296455
2.0323667526245117,-0.08088463544845581,0.09896260499954224,0.033389925956726074,0.4209752380847931,0.8124827146530151,-0.30306127667427063,0.8176823253278552,0.9807269933578001,-0.8995018692068181
2.0423717498779297,-0.067172110080719,0.032640039920806885,0.05386322736740112,0.2987874448299408,0.7021982073783875,-0.33694398403167725,0.8170239584138395,0.9935192201457425,-0.9067528210036552
2.0524277687072754,0.0019187331199645996,-0.06069678068161011,0.12670952081680298,0.10747658461332321,0.773655891418457,-0.36165890097618103,0.8151770344893727,1.0047130862487823,-0.9118572120373538
2.0623459815979004,0.020059168338775635,-0.1482694149017334,0.08751842379570007,0.05636616423726082,0.6868637800216675,-0.28021588921546936,0.8127290027646099,1.0145430864633822,-0.9152813118602501
2.0723907947540283,0.018586456775665283,-0.1226155161857605,-0.04805833101272583,0.114523746073246,0.5491431951522827,-0.19001887738704681,0.8112044997660933,1.0227786436901107,-0.9180947416911925
2.082368850708008,0.1090579628944397,-0.00773853063583374,-0.10533973574638367,0.1587783396244049,0.547217845916748,-0.175924152135849,0.8103534753081875,1.0304911536129135,-0.921176111123562
2.0941147804260254,0.13128256797790527,-0.06116288900375366,-0.1602482795715332,0.13802273571491241,0.44002053141593933,-0.12013224512338638,0.8098617438911477,1.037738784063515,-0.9241761807473099
2.1025147438049316,0.14113205671310425,-0.12041592597961426,-0.16672298312187195,0.022613245993852615,0.2314530462026596,-0.10103797167539597,0.809326196812745,1.042309232655446,-0.9259180153051371
2.1125118732452393,0.1811545491218567,-0.1857060194015503,-0.11433562636375427,-0.030863294377923012,0.10704746842384338,-0.08859515190124512,0.808423170411161,1.044465414577594,-0.9265701203300104
2.1222686767578125,0.16496211290359497,-0.2241172194480896,-0.11955371499061584,-0.05349268764257431,-0.019588105380535126,-0.018366098403930664,0.8077094503146329,1.0447707666559003,-0.9264381870853378
2.132624864578247,0.1233903169631958,-0.1686333417892456,-0.12383705377578735,-0.02161465212702751,-0.0948658138513565,0.02984190732240677,0.807625448813491,1.0437165563996622,-0.9258488539268953
2.1439719200134277,0.09314882755279541,-0.1526058316230774,-0.11415016651153564,-0.04420062154531479,-0.16698084771633148,0.060266394168138504,0.8079208258399803,1.0420070276515563,-0.9252164012752709
2.1525659561157227,0.05681943893432617,-0.1585485339164734,-0.10364258289337158,-0.17258335649967194,-0.25985461473464966,0.10244287550449371,0.8080432137071759,1.0385105758456905,-0.9233484389266742
2.1626439094543457,0.06623560190200806,-0.20023894309997559,-0.05440413951873779,-0.22339996695518494,-0.3358080983161926,0.14989428222179413,0.8080603395634277,1.0329059939561631,-0.9197376640336093
2.1724917888641357,0.053646981716156006,-0.16556423902511597,-0.02491578459739685,-0.06383773684501648,-0.38359081745147705,0.14278709888458252,0.8085119737119972,1.0271711389974445,-0.916782381316653
2.1826210021972656,0.03582179546356201,-0.051227569580078125,-0.043148189783096313,0.10297460108995438,-0.38395118713378906,0.15493570268154144,0.8099308167175467,1.022771518219999,-0.9160150932685966
2.1959729194641113,0.011782824993133545,0.02954012155532837,-0.07686084508895874,0.12142178416252136,-0.37241119146347046,0.1783749759197235,0.8120174320667676,1.019123202903222,-0.9162403357345237
2.203908920288086,0.0013374090194702148,0.010545969009399414,-0.07605805993080139,0.09370040893554688,-0.3501245081424713,0.1336410641670227,0.8139533136685813,1.0155729924382582,-0.9163367381213368
2.213352680206299,-0.0023592710494995117,-0.03480249643325806,-0.04089641571044922,0.04033917933702469,-0.3234628140926361,0.10007911175489426,0.8152885207741645,1.0122198309882815,-0.9163200128631209
2.2225489616394043,-0.01615464687347412,-0.05791175365447998,-0.016740649938583374,-0.040245261043310165,-0.3073456883430481,0.07859805226325989,0.8160567740158517,1.0084988148309286,-0.9155716139062443
2.2325949668884277,-0.025908589363098145,-0.053531646728515625,0.02555149793624878,-0.0657183974981308,-0.2873474955558777,0.04344592243432999,0.8162586002719459,1.0046817791203873,-0.9144217025690395
2.2440948486328125,-0.03590339422225952,-0.06034398078918457,0.0493854284286499,-0.06789867579936981,-0.25623103976249695,0.006435066927224398,0.8161148503257885,1.0012127313573103,-0.9134012501125397
2.2526726722717285,-0.04845166206359863,-0.04682034254074097,0.05457329750061035,-0.10619333386421204,-0.23518967628479004,0.015862390398979187,0.8157426342749335,0.9978934647543685,-0.9122383334592336
2.262678861618042,-0.04541820287704468,-0.04185384511947632,0.051427870988845825,-0.16592445969581604,-0.19303178787231445,-0.004694017115980387,0.815085604428571,0.994530695986614,-0.9105672007756617
2.2727389335632324,-0.04051649570465088,-0.04894149303436279,0.035261958837509155,-0.27461951971054077,-0.19144268333911896,0.014524685218930244,0.813873881779139,0.9906812802417075,-0.9078892548310185
2.283007860183716,-0.030312001705169678,-0.08855926990509033,0.03280079364776611,-0.31230130791664124,-0.2126545011997223,0.07013292610645294,0.8125995081740357,0.9856999031754252,-0.9038145188594031
2.2940659523010254,0.006607949733734131,-0.052331507205963135,0.025783002376556396,-0.2365517020225525,-0.2378503978252411,0.0844186544418335,0.8116950052414544,0.9806032812284814,-0.8998710316253713
2.3026957511901855,0.02636265754699707,0.00030422210693359375,-0.000283658504486084,-0.22329272329807281,-0.29768607020378113,0.13023380935192108,0.8113300666178583,0.9753650404243918,-0.8963425382571144
2.3127098083496094,0.04319638013839722,-0.0001685619354248047,-0.008150637149810791,-0.30319663882255554,-0.34663283824920654,0.1441216617822647,0.8110201871311894,0.9690584772294455,-0.8921022801368063
2.32307767868042,0.058272719383239746,-0.03204143047332764,-0.00783461332321167,-0.4254097044467926,-0.3930702805519104,0.15552984178066254,0.8102047788165713,0.9612832416520851,-0.8865018834633921
2.3330278396606445,0.06205230951309204,-0.06480187177658081,-0.010011762380599976,-0.5529764294624329,-0.4216768741607666,0.15774905681610107,0.8086568220767791,0.952082244001194,-0.8794178436961727
2.3439748287200928,0.0557713508605957,-0.07279998064041138,-0.003836005926132202,-0.6610873341560364,-0.456892728805542,0.1848466694355011,0.8065119975381787,0.941436247933005,-0.8707906509555718
2.3527727127075195,0.04686862230300903,-0.06044059991836548,0.0014479756355285645,-0.7172922492027283,-0.4737260341644287,0.19473151862621307,0.8039354234745059,0.9298361246851562,-0.8611607943463413
2.362743854522705,0.0359187126159668,-0.040831029415130615,0.0020464658737182617,-0.847326397895813,-0.4697625935077667,0.20943309366703033,0.8008645273373749,0.9174247801691251,-0.8504919210459551
2.3727316856384277,0.010946571826934814,-0.05984073877334595,0.01993057131767273,-1.1172107458114624,-0.4377407431602478,0.2205243557691574,0.7965813931744762,0.9036140404849274,-0.8375583733744463
2.3832550048828125,-0.014570534229278564,-0.13751375675201416,0.06471472978591919,-1.4465903043746948,-0.4316401779651642,0.26952630281448364,0.7904378817845066,0.8875429315484897,-0.8210904758409779
2.395498752593994,-0.022819876670837402,-0.2199927568435669,0.11357355117797852,-1.721701741218567,-0.49391475319862366,0.3587091863155365,0.7826744722761784,0.8686479435179025,-0.8008965684056839
2.4028148651123047,-0.010825693607330322,-0.236919105052948,0.16977721452713013,-1.8384268283843994,-0.6012493371963501,0.46332257986068726,0.774032556295241,0.8472234965715336,-0.7781493042660063
2.4128057956695557,0.011431396007537842,-0.2293984293937683,0.2269389033317566,-1.9207409620285034,-0.6993052959442139,0.6490767002105713,0.7654876322163244,0.8234180889532545,-0.753391769526835
2.4227538108825684,0.022537052631378174,-0.17261558771133423,0.2408924102783203,-1.9169703722000122,-0.7667332291603088,0.7532212138175964,0.7573574562226602,0.7982258883443059,-0.7274611197479786
2.4328699111938477,0.027538180351257324,-0.09354043006896973,0.18618720769882202,-2.0553784370422363,-0.8977631330490112,0.8429063558578491,0.7490590785549949,0.771538234503106,-0.7005880399231879
2.4448678493499756,0.05234280228614807,-0.12022334337234497,0.16085219383239746,-2.497084140777588,-1.0197770595550537,0.8678552508354187,0.7385528565718157,0.741917315089175,-0.6710100930941754
2.4529190063476562,0.07218030095100403,-0.24820739030838013,0.21242856979370117,-3.2170050144195557,-1.153340458869934,0.9108170866966248,0.7231106334380697,0.7081845415988701,-0.6367217412557801
2.4629769325256348,0.06108173727989197,-0.4202035069465637,0.2862837314605713,-3.954908847808838,-1.321274757385254,0.9676613807678223,0.7012994803406986,0.6698040331085561,-0.5969259020115325
2.4728527069091797,0.05355378985404968,-0.45668482780456543,0.3465092182159424,-4.593471527099609,-1.4667898416519165,1.0090477466583252,0.6731336749187793,0.6280469086293431,-0.5531489339476819
2.4829277992248535,0.063824862241745,-0.3558761477470398,0.3475918769836426,-5.023271560668945,-1.5680512189865112,0.9430333971977234,0.6390968212711738,0.5854030337005662,-0.5082528912447343
2.494126796722412,0.08651161193847656,-0.20975661277770996,0.3001742959022522,-5.434661388397217,-1.6203759908676147,0.8485045433044434,0.5996300672723244,0.5440592460105215,-0.4645435623410389
2.5029149055480957,0.1178920567035675,-0.12603861093521118,0.2532304525375366,-5.733393669128418,-1.7066887617111206,0.86160808801651,0.5554342701981791,0.5043528810771795,-0.422343476150683
2.5129668712615967,0.15064141154289246,-0.05100095272064209,0.20520538091659546,-5.959846496582031,-1.736035704612732,0.9188112020492554,0.5077708603673586,0.4663792312367266,-0.3814441176999159
2.5234568119049072,0.16385036706924438,0.038015514612197876,0.13371813297271729,-6.079939365386963,-1.7334299087524414,0.8910501003265381,0.4573079448189833,0.430957100271732,-0.3426286324398775
2.533702850341797,0.15937191247940063,0.020093262195587158,0.111350417137146,-6.217916965484619,-1.7546817064285278,0.7398301959037781,0.404309884972134,0.3986512757628765,-0.3071022021799915
2.544320821762085,0.1418878734111786,-0.05126634240150452,0.14211505651474,-6.28476619720459,-1.782171368598938,0.5917254090309143,0.3486856300093038,0.3691214703940649,-0.2751614622975736
2.553027868270874,0.10501077771186829,-0.05560410022735596,0.1944981813430786,-6.491757869720459,-1.8409465551376343,0.36808887124061584,0.2905059028253163,0.3421862171275313,-0.246928186999679
2.563048839569092,0.059084951877593994,-0.06555134057998657,0.22830748558044434,-6.761257171630859,-1.8957207202911377,0.15380805730819702,0.22867280341520851,0.3170642124215316,-0.2222761704955407
2.5729968547821045,0.030039161443710327,-0.10202956199645996,0.2760447859764099,-7.209081172943115,-1.9895817041397095,0.057504959404468536,0.16229285529148718,0.293300543144115,-0.19987678296275313
2.583012819290161,0.032859742641448975,-0.06546188145875931,0.3216841220855713,-7.63491678237915,-2.1602466106414795,-0.035621095448732376,0.0910053061953167,0.26990984555415226,-0.17894508075563234
2.59460186958313,0.06114800274372101,-0.03566548228263855,0.4101976156234741,-8.003297805786133,-2.3193302154541016,-0.13846811652183533,0.014933285545276955,0.24638775289073642,-0.15978481505700465
2.603149890899658,0.09857407212257385,-0.03901217132806778,0.4730043411254883,-8.2299165725708,-2.357987403869629,-0.18735858798027039,-0.06447792361940151,0.22331777751229853,-0.14248895043437973
2.6132848262786865,0.0966377705335617,0.00788368284702301,0.5038065910339355,-8.305914878845215,-2.355632781982422,-0.03942158445715904,-0.14580000953809014,0.20144630469374522,-0.12622985734589803
2.623013973236084,0.062429025769233704,0.12896603345870972,0.505834698677063,-7.759082317352295,-2.5569422245025635,0.16132766008377075,-0.22514998610462153,0.1799506718922639,-0.10980352735512926
2.6335177421569824,0.07763509452342987,0.2410324513912201,0.47140610218048096,-7.168676376342773,-2.616863965988159,0.1376769244670868,-0.2984268660373793,0.15769641628837228,-0.09527029547211391
2.6445937156677246,0.0897965282201767,0.19917985796928406,0.39575618505477905,-6.609904766082764,-2.63932728767395,0.1843855232000351,-0.36639731374158185,0.1353637460787864,-0.08299431263464713
2.6532859802246094,0.03259168565273285,0.20307129621505737,0.32163554430007935,-6.108029365539551,-2.5095179080963135,0.25279200077056885,-0.42935335973325633,0.11372609875936408,-0.07202566642646287
2.663275718688965,-0.018216416239738464,0.14820465445518494,0.24731385707855225,-5.557498931884766,-2.2379531860351562,0.2271765023469925,-0.48705063830357204,0.09411806357388537,-0.06255152548750235
2.6731607913970947,-0.06157848238945007,0.02096503973007202,0.14763319492340088,-5.088129043579102,-1.936385989189148,0.15132088959217072,-0.5401177545671164,0.0767672518797303,-0.05518391612162169
2.683152675628662,-0.09670532494783401,-0.029589951038360596,0.08053022623062134,-4.511676788330078,-1.622972846031189,0.13600142300128937,-0.5879177884067356,0.061978702945862205,-0.049592080644918074
2.6952807903289795,-0.1013428270816803,-0.021672427654266357,0.031765520572662354,-3.9999818801879883,-1.3818731307983398,0.14645379781723022,-0.6303613881661936,0.049615299456344165,-0.04497677223372168
2.703401803970337,-0.08567079901695251,0.007179081439971924,0.014796257019042969,-3.4958810806274414,-1.1548231840133667,0.15416550636291504,-0.6678132544030839,0.03929542334439263,-0.040999642249526826
2.713146686553955,-0.07112929970026016,0.0014480948448181152,0.024981319904327393,-2.996473550796509,-0.9045496582984924,0.18661560118198395,-0.7002124915925216,0.03130325887210162,-0.03735203844001388
2.7231106758117676,-0.07165433466434479,-0.012506842613220215,0.015467286109924316,-2.516958713531494,-0.6839154362678528,0.25143176317214966,-0.727722868704135,0.02595434072344091,-0.03343196281550504
2.7330899238586426,-0.07336891442537308,0.02510392665863037,0.03014993667602539,-2.044356107711792,-0.550674557685852,0.3310922384262085,-0.7504779395914344,0.023020815724980492,-0.028716693164924496
2.7441768646240234,-0.06136529892683029,0.08947426080703735,0.05937319993972778,-1.5578551292419434,-0.4741508662700653,0.4099145233631134,-0.7683922096085485,0.02180956481408973,-0.023058707573397612
2.753227710723877,-0.04165282100439072,0.13297182321548462,0.061728477478027344,-1.1757330894470215,-0.4197957515716553,0.49497559666633606,-0.7819000673823014,0.022081297698572845,-0.01628021407098087
2.76328182220459,-0.014249781146645546,0.1424667239189148,0.039818525314331055,-0.9140896201133728,-0.3556719124317169,0.5542250871658325,-0.7921396708756069,0.02372440125254995,-0.008461494302934483
2.7733259201049805,-0.00017660483717918396,0.12620186805725098,0.010238945484161377,-0.7896534204483032,-0.26643550395965576,0.5635711550712585,-0.8004948120522326,0.026551680905475515,-0.00010307826910736335
2.78338885307312,-0.011765504255890846,0.07700145244598389,-0.024995505809783936,-0.720937967300415,-0.14042867720127106,0.543853223323822,-0.8078282239871531,0.030498530848534017,0.008195553394883766
2.7942988872528076,-0.03075915016233921,0.028447091579437256,-0.057492971420288086,-0.6845083236694336,-0.026885610073804855,0.5032314658164978,-0.8147212604596715,0.03543328678424279,0.01615410414673479
2.8032848834991455,-0.0404018759727478,0.029423773288726807,-0.08460450172424316,-0.636543869972229,0.06840140372514725,0.46582454442977905,-0.821125972891416,0.04109839469513074,0.023597008425736622
2.8133087158203125,-0.03595305606722832,0.047664642333984375,-0.09758073091506958,-0.5646326541900635,0.14399230480194092,0.4407418370246887,-0.82695684579304,0.04732331398506939,0.030635272754688695
2.8232548236846924,-0.03064434975385666,0.0684238076210022,-0.10436487197875977,-0.4588156044483185,0.21317075192928314,0.4275384843349457,-0.8318946511533549,0.05411502462840536,0.037432144826468935
2.833390712738037,-0.02966463938355446,0.08815008401870728,-0.09843951463699341,-0.2867642343044281,0.2914069592952728,0.4331628084182739,-0.835395476107897,0.061610057458933803,0.044130979372935225
2.8446857929229736,-0.03734178468585014,0.10784262418746948,-0.0911441445350647,-0.1088036522269249,0.34218829870224,0.447445273399353,-0.8370899106402894,0.06981291952010724,0.05087787187727315
2.8533427715301514,-0.04186214506626129,0.1410456895828247,-0.09248268604278564,0.054037731140851974,0.37604668736457825,0.4599147439002991,-0.8369987982050967,0.0784706928721238,0.057676583489861946
2.863398790359497,-0.03731130436062813,0.14433038234710693,-0.08990299701690674,0.1844055950641632,0.40242651104927063,0.4629216492176056,-0.8354220039985193,0.08736603960209098,0.06442044006546883
2.873353958129883,-0.033500537276268005,0.11521017551422119,-0.08304893970489502,0.3242154121398926,0.4400838613510132,0.43821364641189575,-0.8324795372325413,0.0962861768426446,0.07076564610353311
2.8834657669067383,-0.039359815418720245,0.08653289079666138,-0.07030022144317627,0.4485819935798645,0.47861096262931824,0.40316879749298096,-0.8281684893460678,0.10506189564293783,0.07640490230378935
2.8948769569396973,-0.05218282341957092,0.07651019096374512,-0.06754070520401001,0.5407044887542725,0.4885466694831848,0.3514280915260315,-0.8228551140464886,0.11342469317618137,0.08118515482200511
2.903435707092285,-0.05537647753953934,0.07456731796264648,-0.05318880081176758,0.6489506959915161,0.501158595085144,0.29585495591163635,-0.8165570790947757,0.12107963602062465,0.08486462638733314
2.913489818572998,-0.05017004907131195,0.055570244789123535,-0.03858053684234619,0.7260411977767944,0.5135239362716675,0.2518451511859894,-0.8093642866918476,0.12811018745424724,0.08755630270250005
2.9233968257904053,-0.04755408316850662,0.06565099954605103,-0.05056971311569214,0.7432936429977417,0.5320456027984619,0.21601581573486328,-0.8017065336596451,0.1347564569408284,0.0895024418124599
2.9335079193115234,-0.04673463851213455,0.08636999130249023,-0.06667643785476685,0.7158375382423401,0.5549002885818481,0.19178453087806702,-0.7941917839505929,0.14123909620586803,0.09095362467187088
2.9448699951171875,-0.04623255878686905,0.07755410671234131,-0.06699401140213013,0.6912466287612915,0.5823982954025269,0.17137740552425385,-0.7869631267192789,0.14771915465047158,0.09206210409041005
2.9534997940063477,-0.04984772205352783,0.05812239646911621,-0.058171093463897705,0.6793316006660461,0.6007751822471619,0.1524822860956192,-0.779930750396511,0.15421130892715681,0.0928600272336358
2.96354079246521,-0.055976226925849915,0.05864518880844116,-0.05425363779067993,0.6329601407051086,0.6003490090370178,0.1397736817598343,-0.7731656529406621,0.16064234345059514,0.09342429019328587
2.973587989807129,-0.05793675035238266,0.06543421745300293,-0.047313392162323,0.547375500202179,0.570675253868103,0.1291910856962204,-0.7671088621906504,0.16687831216884214,0.09393976797800226
2.983773708343506,-0.04740262031555176,0.054630815982818604,-0.027262449264526367,0.44859594106674194,0.5326923727989197,0.11036146432161331,-0.7619924859132329,0.17272201573913257,0.09442478283299843
2.9954898357391357,-0.04331547021865845,0.022466599941253662,-0.005605340003967285,0.3339247703552246,0.4996097683906555,0.09436359256505966,-0.7579489698351303,0.17820098806306153,0.09487330833480057
3.003673791885376,-0.04662071168422699,0.005921602249145508,-0.0025391578674316406,0.22103886306285858,0.4550001621246338,0.08022108674049377,-0.7550596333476566,0.1833252982227994,0.0953753841615861
3.0137298107147217,-0.04846559464931488,-0.0018743276596069336,0.0013934969902038574,0.12708547711372375,0.41474756598472595,0.06758758425712585,-0.7532364452891207,0.18805001972399865,0.09593017878590579
3.023549795150757,-0.043623656034469604,-0.01962810754776001,0.005824387073516846,0.0700782984495163,0.38451120257377625,0.06288976967334747,-0.7521600081277855,0.19246916102935652,0.09655719578946802
3.033878803253174,-0.04305267333984375,-0.019485950469970703,-0.0027063488960266113,0.042734295129776,0.356469988822937,0.06336141377687454,-0.7515057369930442,0.1966618832889219,0.09726237536030229
3.045200824737549,-0.047324031591415405,-0.011252403259277344,-0.01463174819946289,0.07168200612068176,0.3380590081214905,0.06434209644794464,-0.7508461722543719,0.20062517148550127,0.09797253297312476
3.0537288188934326,-0.048690065741539,-0.017261207103729248,-0.0188140869140625,0.13331422209739685,0.3162306547164917,0.06751418858766556,-0.7497154277604092,0.20431691756443188,0.09858702651090333
3.063776969909668,-0.047062650322914124,-0.012688517570495605,-0.026974797248840332,0.19706711173057556,0.2864409387111664,0.07028216868638992,-0.7479515074524877,0.2076633936174503,0.09905845087361839
3.0738728046417236,-0.04170474410057068,0.008151650428771973,-0.03356438875198364,0.24976414442062378,0.2617230713367462,0.07944690436124802,-0.7456064923894846,0.21066438670009108,0.09942860771604208
3.083770751953125,-0.03232063353061676,0.014177322387695312,-0.035151004791259766,0.3046853542327881,0.2490733116865158,0.08749907463788986,-0.7427256413858552,0.2134244584538057,0.09975297912301058
3.0948410034179688,-0.02582964301109314,0.005156219005584717,-0.03267669677734375,0.328945130109787,0.23291859030723572,0.09123389422893524,-0.7394205396627638,0.21601664451563352,0.10002039416154732
3.103721857070923,-0.02475588023662567,0.003202378749847412,-0.02708292007446289,0.3448621928691864,0.21817763149738312,0.09294380992650986,-0.735916346723995,0.21843098339402794,0.10025548739063833
3.113741874694824,-0.021155312657356262,0.006307244300842285,-0.016905248165130615,0.337532103061676,0.19954721629619598,0.09490682184696198,-0.7323712478806461,0.22068706840048194,0.100491385824922
3.1236748695373535,-0.011702299118041992,-0.0003548264503479004,-0.011600315570831299,0.31603723764419556,0.17616678774356842,0.08732777833938599,-0.7289619950023802,0.22271803917483682,0.10072021353316193
3.1338908672332764,-0.0029138922691345215,-0.008073568344116211,-0.00024688243865966797,0.27667516469955444,0.1552697718143463,0.07397709041833878,-0.72587421640955,0.22448229975070527,0.1008826108581639
3.1447978019714355,0.00025144219398498535,-0.009382426738739014,0.007443666458129883,0.20966902375221252,0.14147815108299255,0.05969785898923874,-0.7233426949671569,0.22605016931061023,0.10101874184179725
3.153944969177246,0.0013437420129776,-0.00838559865951538,0.01359546184539795,0.13964785635471344,0.13326814770698547,0.050710223615169525,-0.7215258263154837,0.22754707904017552,0.10120125329843058
3.163980007171631,0.006517693400382996,-0.014760076999664307,0.01255345344543457,0.07488387078046799,0.13115395605564117,0.03518112003803253,-0.7203833175651663,0.22902217505552927,0.10144067075055875
3.1739187240600586,0.010004296898841858,-0.01666921377182007,0.009037792682647705,0.033365994691848755,0.12699809670448303,0.02085278183221817,-0.7197970009636123,0.23045494907775538,0.10164636823567358
3.1838178634643555,0.010195478796958923,-0.015873610973358154,0.005823075771331787,0.025479324162006378,0.1198374330997467,0.008939770050346851,-0.7195101702025613,0.23176049472111312,0.10175923869854629
3.1956958770751953,0.0126161128282547,-0.02101612091064453,0.00846707820892334,0.05002807825803757,0.1143750250339508,-0.00021724333055317402,-0.7191252094621668,0.2328971883705369,0.10169879524980843
3.2037477493286133,0.01375386118888855,-0.022788405418395996,0.012690126895904541,0.08615706861019135,0.10255001485347748,-0.007367351092398167,-0.7184996036830307,0.23381816616236867,0.10145561203251191
3.2138400077819824,0.012707948684692383,-0.00856250524520874,0.012441158294677734,0.13084197044372559,0.09353308379650116,-0.010626262053847313,-0.7174601067202069,0.23450856733735473,0.10101080439438984
3.2238128185272217,0.013130292296409607,-0.0071738362312316895,0.009661436080932617,0.1777094155550003,0.08921627700328827,-0.02028416097164154,-0.7160027557911983,0.23496068904261974,0.10033575312579605
3.234407901763916,0.015431389212608337,-0.016443610191345215,0.005007326602935791,0.21254782378673553,0.0903470516204834,-0.029290972277522087,-0.7141537321401146,0.2352451377655406,0.09940521629327789
3.24540376663208,0.010101526975631714,-0.021664142608642578,0.001958310604095459,0.24113960564136505,0.09617941081523895,-0.031393855810165405,-0.7120179310682591,0.23549294454031017,0.0983267839750796
3.253734827041626,0.006907761096954346,-0.02249544858932495,-0.0006262063980102539,0.2675813138484955,0.10722940415143967,-0.029912341386079788,-0.7096114538806948,0.23578874359830718,0.09717365149996918
3.2638978958129883,0.007365003228187561,-0.02194511890411377,-0.0013030171394348145,0.28214508295059204,0.11219087243080139,-0.02414739690721035,-0.7069781250127097,0.2361768993815777,0.09601875911740494
3.273876667022705,0.011123254895210266,-0.023970723152160645,-3.5762786865234375e-06,0.2721467912197113,0.11325187236070633,-0.01722930371761322,-0.7043271055104395,0.23663695577293312,0.09493592963948384
3.2839457988739014,0.011193886399269104,-0.02940523624420166,0.003925323486328125,0.24758411943912506,0.12097899615764618,-0.008343080058693886,-0.7018298980024413,0.23726521208779483,0.09401528290409639
3.2948336601257324,0.009920209646224976,-0.04023510217666626,0.009047985076904297,0.20530135929584503,0.12851573526859283,0.004153802990913391,-0.6996888128108986,0.23813133159781386,0.09334130380231176
3.3038878440856934,0.007963612675666809,-0.0494503378868103,0.011879384517669678,0.1683368980884552,0.13822190463542938,0.014941628091037273,-0.6978936812596446,0.23922533065307647,0.09291839140754543
3.3139219284057617,0.006396368145942688,-0.05412322282791138,0.01094198226928711,0.13715367019176483,0.14425449073314667,0.02590213529765606,-0.6963859500623585,0.24057018687344153,0.09274252206154901
3.3239078521728516,0.0065359026193618774,-0.052707672119140625,0.009385824203491211,0.12334387004375458,0.12763099372386932,0.0248048584908247,-0.6950586397142589,0.24191176881027246,0.09267989590151104
3.333953857421875,0.006134301424026489,-0.04952341318130493,0.013268887996673584,0.09097793698310852,0.09795086830854416,0.021347809582948685,-0.6939330246397306,0.2430161375061167,0.09262316439664423
3.3444557189941406,0.01089392602443695,-0.04922753572463989,0.017825722694396973,0.037700872868299484,0.07569127529859543,0.021350152790546417,-0.6932306831242868,0.24391535129425204,0.09267688708451136
3.3539676666259766,0.014754712581634521,-0.04473954439163208,0.018218398094177246,-0.01793655939400196,0.06508603692054749,0.029566004872322083,-0.6930695264787051,0.2448015244902131,0.0929809648928488
3.36398983001709,0.013365045189857483,-0.042064547538757324,0.010392725467681885,-0.060150157660245895,0.06096576899290085,0.032272521406412125,-0.693360941309693,0.2457838754589754,0.09351509663731343
3.3740508556365967,0.008989080786705017,-0.04338425397872925,0.003247201442718506,-0.0802714079618454,0.056788600981235504,0.03439239785075188,-0.693946113448865,0.24680205171792277,0.09418036584126369
3.3843917846679688,0.006829261779785156,-0.0377424955368042,-0.00045436620712280273,-0.07251570373773575,0.04934830963611603,0.041945282369852066,-0.6945668408647356,0.24780376699409143,0.09491675140387952
3.395366668701172,0.010441586375236511,-0.029906868934631348,-0.00634390115737915,-0.03941260650753975,0.05225061997771263,0.048992007970809937,-0.6949538904928192,0.2487925783954062,0.09567755998319491
3.404118776321411,0.008768841624259949,-0.023292124271392822,-0.014265894889831543,-0.006695423275232315,0.05606067180633545,0.05878216028213501,-0.6949835724019858,0.24983668654674052,0.09645026566047082
3.4142699241638184,0.0035801082849502563,-0.01421588659286499,-0.019611835479736328,0.03288021311163902,0.05730942636728287,0.06033558025956154,-0.694649505507246,0.2508736561554403,0.09717558323981086
3.4241909980773926,0.002132430672645569,-0.012274742126464844,-0.01649940013885498,0.05940178781747818,0.048575811088085175,0.05676732212305069,-0.6939899530485726,0.25181655520213464,0.09778682386791322
3.4341650009155273,0.0017758756875991821,-0.015507817268371582,-0.009266138076782227,0.08321045339107513,0.036599043756723404,0.046735458076000214,-0.6930947033372008,0.2525543959004253,0.09822893929339574
3.4459598064422607,0.002085670828819275,-0.010867774486541748,0.0003306269645690918,0.09475553035736084,0.022209497168660164,0.03772076591849327,-0.6920619778744975,0.25302311996536764,0.09847659051414256
3.454150676727295,0.002634480595588684,-0.0033832788467407227,0.0005158185958862305,0.09142311662435532,0.012237823568284512,0.03338780254125595,-0.6909822310355681,0.2533040650008204,0.09863612049148479
3.464226722717285,0.004377216100692749,0.003027021884918213,-0.00831151008605957,0.08533129096031189,0.009438885375857353,0.03001416102051735,-0.6899707193904262,0.2534922019990081,0.0987619781916831
3.4742259979248047,-3.902614116668701e-05,0.0022193193435668945,-0.013544559478759766,0.07296942174434662,0.014152946881949902,0.02642102539539337,-0.689039894866197,0.2536901508156601,0.09887346750257311
3.4842817783355713,-0.00455649197101593,-0.004461526870727539,-0.01688927412033081,0.060066528618335724,0.020054202526807785,0.023431306704878807,-0.688226414191566,0.2539259370451855,0.09897069409770817
3.4946208000183105,-0.008263662457466125,-0.008976161479949951,-0.015523731708526611,0.05770856514573097,0.024640165269374847,0.02266271784901619,-0.6875129217600587,0.254180843877969,0.09904459636991465
3.5041537284851074,-0.010801240801811218,-0.00902491807937622,-0.014852702617645264,0.058063097298145294,0.026356838643550873,0.02384074032306671,-0.6868258425617959,0.25446869254611887,0.09912968241171627
3.5142159461975098,-0.010552480816841125,-0.004914343357086182,-0.013082504272460938,0.06829363107681274,0.02037058398127556,0.025559278205037117,-0.6860882787465394,0.2547536914176959,0.09922660486913687
3.5241799354553223,-0.009012162685394287,-0.002237677574157715,-0.011077165603637695,0.07910581678152084,0.01934637874364853,0.029048128053545952,-0.6852914951928959,0.2550331836388534,0.09933920927888053
3.5345358848571777,-0.009840026497840881,-0.002316296100616455,-0.010449230670928955,0.09281923621892929,0.015470679849386215,0.029435884207487106,-0.6843882217468541,0.2552734716824166,0.09942355076284813
3.545301914215088,-0.006171137094497681,0.00024193525314331055,-0.012568831443786621,0.09183919429779053,0.0017775041051208973,0.023586517199873924,-0.6834500688353196,0.25539035923403747,0.09947099606595691
3.55430269241333,0.0009814947843551636,-0.0010492801666259766,-0.006644606590270996,0.09134038537740707,-0.011348949745297432,0.0063340263441205025,-0.6825180422260746,0.2552380815249544,0.09933359074267675
3.5642688274383545,0.007193177938461304,-0.011623501777648926,0.001560211181640625,0.08239974826574326,-0.03242103382945061,-0.010169423185288906,-0.6816333298575936,0.25474428360742946,0.09897164951718809
3.5743026733398438,0.008518323302268982,-0.00806647539138794,0.0059209465980529785,0.06180445849895477,-0.05404483526945114,-0.02483757957816124,-0.6809239906657997,0.25392813536540754,0.09845123213544389
3.584338665008545,0.010228797793388367,0.0020632147789001465,0.007816553115844727,0.033804751932621,-0.06735611706972122,-0.030660903081297874,-0.6804947125722615,0.2529031163698616,0.09789185588647448
3.594672679901123,0.014198973774909973,-0.000897824764251709,0.005501151084899902,0.0072423797100782394,-0.07234448194503784,-0.032173044979572296,-0.6803583878215127,0.2518166701314767,0.09737511201055409
3.6042728424072266,0.012676864862442017,-0.009203910827636719,0.0027118325233459473,-0.006631291471421719,-0.07018687576055527,-0.03159615024924278,-0.68040449636935,0.25078762722117537,0.09693145350620717
3.614321708679199,0.006186127662658691,-0.008026480674743652,0.0002472996711730957,-0.0007443737704306841,-0.07280796021223068,-0.032742906361818314,-0.6805386895741546,0.2497694189168228,0.09649977045591765
3.624267816543579,0.005892708897590637,-0.0062010884284973145,0.000931859016418457,0.01105774100869894,-0.07587898522615433,-0.030301641672849655,-0.6805460259362344,0.24872215191486838,0.09607559745608572
3.634401798248291,0.009493887424468994,-0.012590885162353516,0.003602743148803711,0.021239537745714188,-0.0710967481136322,-0.02665976993739605,-0.6804430737332758,0.2477692976420672,0.0956956679895432
3.644592761993408,0.007545992732048035,-0.009806990623474121,0.0041048526763916016,0.0276618842035532,-0.0704895481467247,-0.020978501066565514,-0.6802381050600788,0.24691063024297097,0.09537700406438378
3.6544079780578613,0.005360618233680725,-0.008521795272827148,0.007814526557922363,0.0330880768597126,-0.06737232208251953,-0.01927034929394722,-0.6799589099625727,0.24610950316923869,0.0951056166580243
3.6646528244018555,0.005660295486450195,-0.018562495708465576,0.014878034591674805,0.02818186581134796,-0.05496225506067276,-0.015579421073198318,-0.6797240320336438,0.24542183638349888,0.09488125585895434
3.675022840499878,0.0027162879705429077,-0.023752868175506592,0.01588594913482666,0.024303771555423737,-0.045478999614715576,-0.014669951982796192,-0.67951125215342,0.2448922670533152,0.09470151826179161
3.6854629516601562,-0.00018034875392913818,-0.02335953712463379,0.019039511680603027,0.02702505514025688,-0.040793173015117645,-0.011611737310886383,-0.6792606461794818,0.24443406712410143,0.09453562848395132
3.696009874343872,0.0007028579711914062,-0.023032784461975098,0.02253168821334839,0.025964319705963135,-0.035495609045028687,-0.005214824806898832,-0.6789976122697298,0.24399952172446693,0.09439077521742734
3.7044219970703125,0.00010679662227630615,-0.02076929807662964,0.021784961223602295,0.02484281174838543,-0.023858793079853058,0.003965677227824926,-0.6787360256509736,0.24370589815532412,0.09433559087474708
3.714404821395874,-0.0042098164558410645,-0.02153116464614868,0.01978546380996704,0.024390606209635735,-0.0085325688123703,0.014889963902533054,-0.6784602781376645,0.24362828949531282,0.09441138463816832
3.724423885345459,-0.008419722318649292,-0.025213539600372314,0.022542893886566162,0.03242480009794235,0.00041618477553129196,0.021523311734199524,-0.6781139249635293,0.24371841150454246,0.09457537023998926
3.7344746589660645,-0.009559661149978638,-0.02541118860244751,0.025933802127838135,0.03432416543364525,0.006326804403215647,0.028911985456943512,-0.6777212248424144,0.24391645470755766,0.09480993178938074
3.7447807788848877,-0.010359793901443481,-0.020726382732391357,0.029674828052520752,0.037740785628557205,0.015876146033406258,0.03313778340816498,-0.6772898604678265,0.24424250459923202,0.095113528446417
3.754509925842285,-0.012310147285461426,-0.019952595233917236,0.03222852945327759,0.04396432638168335,0.02871577814221382,0.04002365097403526,-0.6767865679625601,0.24470287155452783,0.09547149027539349
3.7645418643951416,-0.014167889952659607,-0.01775890588760376,0.025143742561340332,0.0517197847366333,0.04057057574391365,0.044649671763181686,-0.6762041401411658,0.24530703485730085,0.09585981275224335
3.7744789123535156,-0.013754397630691528,-0.008069515228271484,0.019070029258728027,0.0549030601978302,0.04812729358673096,0.0470782071352005,-0.6755781520097233,0.24602610047029858,0.09627716835733387
3.7845959663391113,-0.011374235153198242,-0.0033949613571166992,0.015624940395355225,0.0557880774140358,0.05405997112393379,0.047368597239255905,-0.6749261369753616,0.24680211316176182,0.09669243437744984
3.7950828075408936,-0.007336616516113281,-0.0007410645484924316,0.013444960117340088,0.05110490694642067,0.05355024337768555,0.04012639820575714,-0.6743022885154442,0.2475707444426349,0.09706724980629454
3.804579734802246,-0.007523968815803528,0.001069486141204834,0.015164196491241455,0.04511922225356102,0.046937257051467896,0.03184918314218521,-0.6737426473618257,0.2482488728257841,0.09735523712873113
3.8144216537475586,-0.009119287133216858,-0.0012896060943603516,0.017529189586639404,0.03590548411011696,0.04161573201417923,0.024730291217565536,-0.6732860321538143,0.2488120008252282,0.09756143507948685
3.824431896209717,-0.007965713739395142,0.0034353137016296387,0.01599276065826416,0.02615964412689209,0.03667796403169632,0.023274607956409454,-0.6729414979732323,0.2493139963669812,0.09774227360163568
3.834526777267456,-0.008242607116699219,0.006933093070983887,0.012789547443389893,0.011793488636612892,0.02951405942440033,0.022509481757879257,-0.6727224522172215,0.24975568940426737,0.09793899783197686
3.844604969024658,-0.007462203502655029,0.004154324531555176,0.0059282779693603516,0.009804373607039452,0.02476777508854866,0.019713694229722023,-0.672588017324371,0.25014823862008567,0.09815620625061384
3.854463815689087,-0.006074726581573486,-0.0013207197189331055,0.0013257265090942383,0.019573647528886795,0.019493117928504944,0.017296077683568,-0.6724283080006292,0.2504594172968101,0.09832545847787925
3.8645267486572266,-0.008080676198005676,0.000562131404876709,0.0006754398345947266,0.03538297116756439,0.014336971566081047,0.015804972499608994,-0.6721475603277685,0.25067321146475047,0.09842687560512792
3.8745877742767334,-0.010307341814041138,0.0026023387908935547,-0.0009998679161071777,0.04557054489850998,0.007750308606773615,0.016160504892468452,-0.6717438197128835,0.2508108667617685,0.09849367568941064
3.8856918811798096,-0.010820150375366211,0.0003714561462402344,-0.0017732977867126465,0.047754917293787,0.0038302685134112835,0.01740175113081932,-0.6712800836814763,0.25088964242060696,0.09854009909333872
3.89487886428833,-0.012106209993362427,-0.0005516409873962402,-0.0029706954956054688,0.040680233389139175,-0.002962389960885048,0.01601317897439003,-0.670861081069767,0.25089052958891467,0.09858940719159846
3.9046597480773926,-0.013125985860824585,-0.003112494945526123,-0.0017979741096496582,0.032612334936857224,-0.010110625065863132,0.013648025691509247,-0.6705265000674293,0.25083922697895916,0.09863729962597213
3.9146728515625,-0.012631058692932129,-0.01059800386428833,0.0017844438552856445,0.013492168858647346,-0.011398795992136002,0.009462068788707256,-0.6703624326997979,0.25073681012606674,0.09868739626297023
3.924738883972168,-0.01172173023223877,-0.011851966381072998,0.0011349320411682129,0.0021239672787487507,-0.019056981429457664,0.0012939409352838993,-0.6703270291713148,0.25057701418789147,0.09870091340906463
3.934809684753418,-0.010615959763526917,-0.009963393211364746,0.0006532669067382812,-0.0035235323011875153,-0.026418225839734077,-0.0020403368398547173,-0.6703509695825596,0.2503111794846448,0.09867684707850632
3.9458627700805664,-0.007164761424064636,-0.005972146987915039,-0.004656374454498291,-0.008631158620119095,-0.03146549314260483,-0.0034895227290689945,-0.6704371849491453,0.24996327401600293,0.0986304336183292
3.954730987548828,-0.005583241581916809,0.0019252896308898926,-0.011304259300231934,-0.0041850111447274685,-0.03637023642659187,-0.006049086805433035,-0.6705430173568283,0.24952954761645754,0.09854869015592999
3.9647397994995117,-0.006604999303817749,0.0019238591194152832,-0.01788705587387085,-0.004346332512795925,-0.0351533479988575,-0.007156269159168005,-0.6706032651307196,0.24905861854153194,0.09843470529056965
3.9746856689453125,-0.009032711386680603,-0.004570662975311279,-0.021458745002746582,-0.002672801958397031,-0.032610561698675156,-0.010293472558259964,-0.6706543677411765,0.24858867716999453,0.09829783131789377
3.9847936630249023,-0.01022520661354065,-0.005112886428833008,-0.021477222442626953,0.00019062869250774384,-0.035201285034418106,-0.008867350406944752,-0.6706842846811714,0.24811547602582448,0.09814472190185886
3.9965219497680664,-0.007501661777496338,-0.0037540793418884277,-0.017941832542419434,0.01006935816258192,-0.0394386425614357,-0.005556242074817419,-0.670624864705132,0.24761148190206111,0.098002479510948
4.004916667938232,-0.005047246813774109,-0.006175875663757324,-0.015820026397705078,0.01827993243932724,-0.04508982598781586,-0.004247670993208885,-0.6704634818083548,0.24707996865438922,0.09786696659707037
4.015086889266968,-0.002364933490753174,-0.004428088665008545,-0.014212965965270996,0.03364637494087219,-0.055963512510061264,-0.0023637511767446995,-0.6701998086107009,0.24644924078060984,0.09771316383820311
4.0247979164123535,0.0029413700103759766,-0.0030698180198669434,-0.011343121528625488,0.04242659732699394,-0.07205330580472946,-0.0033407583832740784,-0.6698101837751013,0.24567411047659315,0.0975307046328533
4.034890651702881,0.008436977863311768,-0.005566000938415527,-0.009301900863647461,0.03753756731748581,-0.08434139937162399,0.00017701112665235996,-0.6693934703412112,0.24476586398469832,0.09736340287747411
4.045123815536499,0.014380797743797302,-0.007095992565155029,-0.00858771800994873,0.02538440003991127,-0.09251739829778671,0.0054260483011603355,-0.669048524925945,0.24378486487890264,0.09726234985364278
4.0548787117004395,0.015962213277816772,-0.009383857250213623,-0.006588399410247803,0.011648081243038177,-0.0975814014673233,0.010521207936108112,-0.6687749944011637,0.24279650284778723,0.0972617327295552
