timestamp,accel_x,accel_y,accel_z,rotation_x,rotation_y,rotation_z, pitch,roll,yaw
0.044014930725097656,-0.007796645164489746,0.002998948097229004,-0.0009031370282173157,0.005497559905052185,0.018628157675266266,-0.011731860227882862,-0.5489196990443955,1.703296762548295,2.658176132095758
0.05669403076171875,-0.006163835525512695,0.0009594559669494629,-0.003064177930355072,0.0014528506435453892,0.02002844773232937,-0.014464369975030422,-0.5490566678734763,1.7034815956844467,2.6581457641431028
0.06462502479553223,-0.006309926509857178,0.0013872385025024414,-0.0072498321533203125,-0.0042039696127176285,0.018519766628742218,-0.015430831350386143,-0.5491993205179778,1.7036973650044627,2.6581826076018986
0.06746292114257812,-0.006410479545593262,-0.0007138848304748535,-0.009528622031211853,-0.008340124972164631,0.016690973192453384,-0.013961565680801868,-0.549337111574103,1.703931466928198,2.6582842351055853
0.07592201232910156,-0.0054645538330078125,-0.003262341022491455,-0.009443044662475586,-0.010465594008564949,0.015661662444472313,-0.01280202530324459,-0.5494625317993016,1.7041654803641015,2.6584226485022273
0.08593511581420898,-0.0049172043800354,-0.0030730366706848145,-0.008123643696308136,-0.007190904580056667,0.011009564623236656,-0.009699122048914433,-0.5495625536856259,1.7043638371964047,2.658544675864277
0.09607100486755371,-0.005324065685272217,-0.0003560781478881836,-0.00941610336303711,-1.8479302525520325e-05,0.008601800538599491,-0.005466294474899769,-0.5496331850802829,1.7044905793439475,2.6585979875653787
0.10593509674072266,-0.0046672821044921875,-0.0011707544326782227,-0.010380163788795471,0.0010069378186017275,0.0061196452006697655,-0.002616338897496462,-0.5496758815100257,1.7045696212718346,2.658606083363272
0.11595606803894043,-0.004744112491607666,-0.0025010108947753906,-0.012680672109127045,0.0009368963073939085,0.0045225475914776325,-0.00028127938276156783,-0.5496969371248057,1.7046032406803204,2.6585832828152185
0.12602710723876953,-0.0042722225189208984,-0.003543674945831299,-0.013740882277488708,0.001231092493981123,0.004823529627174139,0.0030139561276882887,-0.5496851905698674,1.7046470260286817,2.658576906588482
0.13593697547912598,-0.004574596881866455,-0.0026910901069641113,-0.011613376438617706,-0.00036174384877085686,0.004067458212375641,0.004147930070757866,-0.5496514844675964,1.7046908085913242,2.658569919893717
0.14611291885375977,-0.003647446632385254,-0.0023192763328552246,-0.012279406189918518,-0.001557420240715146,0.0007717516273260117,0.004098022822290659,-0.5496091505962555,1.7047171250689894,2.6585743694485053
0.15617609024047852,-0.0033347010612487793,-0.0026456117630004883,-0.0119408518075943,-0.0024184202775359154,0.0009003826417028904,0.0047510298900306225,-0.5495623572417855,1.704727858224749,2.658583468254266
0.16611385345458984,-0.0024183988571166992,-0.0010554194450378418,-0.012387871742248535,0.0014537163078784943,-0.00014455290511250496,0.00556904636323452,-0.5495049044392709,1.70472850380358,2.6585852622212047
0.17609691619873047,-0.0014913678169250488,0.00020331144332885742,-0.013064764440059662,0.0021472033113241196,-0.0005831755697727203,0.0069773257710039616,-0.5494423096166892,1.70471172422149,2.658553801835073
0.1861739158630371,-0.004355788230895996,0.0007033944129943848,-0.012990474700927734,0.0030927753541618586,-0.004766157828271389,0.0069819060154259205,-0.5493749457295414,1.7046544190822392,2.6585102693486515
0.1965639591217041,-0.00462418794631958,-0.0006203651428222656,-0.009965553879737854,0.0014874220360070467,-0.0064841629937291145,0.009663976728916168,-0.5493167856380675,1.704302193003611,2.6583216941723795
0.20617914199829102,-0.005103766918182373,-0.0027024149894714355,-0.008903607726097107,0.0007045522797852755,-0.006759711541235447,0.011273910291492939,-0.5492354951100509,1.7039418716549937,2.658146227126856
0.21616697311401367,-0.006147325038909912,-0.0017696022987365723,-0.0107412189245224,0.002470760839059949,-0.00656929612159729,0.01248751301318407,-0.5491436843614946,1.703635221552167,2.6579877701409322
0.22618603706359863,-0.007349491119384766,-0.00011271238327026367,-0.010474085807800293,0.0026169351767748594,-0.006746041588485241,0.011785503476858139,-0.5490436902259035,1.703311215396456,2.657822997010029
0.23628616333007812,-0.006492435932159424,0.0016684532165527344,-0.010348677635192871,0.004331744275987148,-0.007921827025711536,0.012242501601576805,-0.548941180954729,1.7029920648931596,2.6576514120446566
0.24659490585327148,-0.0068857669830322266,0.0008977651596069336,-0.0073273032903671265,0.0003758682869374752,-0.008889487013220787,0.012411186471581459,-0.5488430087934665,1.702659185798562,2.6574904083522983
0.25634098052978516,-0.006750285625457764,0.0016143321990966797,-0.00497029721736908,-0.00018499325960874557,-0.010431989096105099,0.014089243486523628,-0.5487363706247188,1.7023172961946356,2.657348492220235
0.26633214950561523,-0.0066928863525390625,0.0015882253646850586,-0.006208524107933044,-0.0011740748304873705,-0.010818547569215298,0.0140502555295825,-0.5486238973253026,1.701986196995287,2.6572214026895105
0.27636194229125977,-0.006296813488006592,0.0018724799156188965,-0.005112409591674805,0.0006770885083824396,-0.011242522858083248,0.01362574752420187,-0.5485053327496865,1.7017090893227527,2.657118056025678
0.28635406494140625,-0.00713270902633667,0.003666102886199951,-0.004451766610145569,0.001166128320619464,-0.010757516138255596,0.013131145387887955,-0.5483882062772133,1.701459891137884,2.6570167892659593
0.2967391014099121,-0.008272945880889893,0.004245936870574951,-0.005802631378173828,0.0025171495508402586,-0.009633395820856094,0.01292315311729908,-0.5482809715013102,1.701172360926493,2.6568852657150686
0.3064389228820801,-0.00878143310546875,0.005180954933166504,-0.004080772399902344,0.005536208860576153,-0.00838606059551239,0.013197564519941807,-0.5481866158859776,1.7008791356551805,2.656724960959918
0.31636500358581543,-0.008295297622680664,0.006438612937927246,-0.00265347957611084,0.0023729063104838133,-0.010526442900300026,0.008443822152912617,-0.5481254686106786,1.7005940119631988,2.6565720523473195
0.32646989822387695,-0.009184837341308594,0.006623327732086182,-0.0006296634674072266,-0.004414426162838936,-0.00806124322116375,0.00787624903023243,-0.5480699235366505,1.7003978469687684,2.6565189486746874
0.3370480537414551,-0.007957518100738525,0.0029163360595703125,-0.0005952119827270508,-0.011520006693899632,-0.008451130241155624,0.007254401221871376,-0.5480152297055121,1.7002987991647969,2.656567826491064
0.34693288803100586,-0.008266210556030273,0.002743065357208252,-0.0011047124862670898,-0.011099493131041527,-0.004914985038340092,0.005617622286081314,-0.5479679481362847,1.7002119962712803,2.656648097858118
0.3563709259033203,-0.008353888988494873,0.006070196628570557,-0.0009401887655258179,-0.0044969841837882996,-0.006121130660176277,0.0062727597542107105,-0.547931443919623,1.7001409317433809,2.6567028505475543
0.3663620948791504,-0.008068859577178955,0.008094549179077148,-0.0015665292739868164,0.005655186250805855,-0.005552457179874182,0.0051019806414842606,-0.5479194443657994,1.700014561694555,2.6566542693194366
0.3764171600341797,-0.008175075054168701,0.010068058967590332,-0.0002757161855697632,0.00893566757440567,-0.004581468645483255,0.004507031291723251,-0.5479313460197767,1.6998245758342427,2.65650593547227
0.3865818977355957,-0.008241415023803711,0.009027421474456787,1.8596649169921875e-05,0.00904622208327055,-0.0021856888197362423,0.00457046739757061,-0.5479527729886734,1.6996767982020184,2.6563647579870393
0.396528959274292,-0.009526848793029785,0.007169842720031738,-0.0007081031799316406,0.0052576083689928055,-0.000919621903449297,0.004307613242417574,-0.547965921459575,1.6995810453177314,2.6562529580994942
0.40656518936157227,-0.010536134243011475,0.0031809210777282715,0.0006990581750869751,0.0014141679275780916,0.0022923278156667948,0.0018577715381979942,-0.5479913622088126,1.6995790983234933,2.656212586861185
0.41654014587402344,-0.011540055274963379,0.001975536346435547,0.0009332895278930664,0.0008690191898494959,0.003905404359102249,0.00380347715690732,-0.5479912254455628,1.6996087582696753,2.656199928946737
0.4265589714050293,-0.011111259460449219,0.004952490329742432,0.0006701946258544922,0.0014799649361521006,0.003507395042106509,0.002025444060564041,-0.5479895137512671,1.6996309957522253,2.656185442067756
0.43657398223876953,-0.008471548557281494,0.0071258544921875,0.00045274198055267334,-0.0007019627373665571,4.0492042899131775e-05,0.0007726931944489479,-0.5480173899246283,1.6996377839874341,2.656166725561915
0.4470639228820801,-0.006484806537628174,0.005688905715942383,-0.0002639368176460266,-0.004705376457422972,-0.0025328760966658592,0.00031036848668009043,-0.5480562626660722,1.6996221644785654,2.656181672625513
0.4565160274505615,-0.008076906204223633,0.005071699619293213,0.0002675056457519531,-0.007527261972427368,-0.0005893008783459663,-0.0010819321032613516,-0.5481001188680114,1.6996467576019776,2.656261781922451
0.466541051864624,-0.008260250091552734,0.004314064979553223,0.00034747272729873657,-0.006986357271671295,0.00013805273920297623,-4.3725420255213976e-05,-0.5481473889668654,1.6997002272341535,2.656363599202626
0.4767179489135742,-0.009916245937347412,0.005701839923858643,0.0010403171181678772,-0.0004134092014282942,0.0016776260454207659,0.002213836181908846,-0.5481840308038595,1.699731871433452,2.6564129348763936
0.48660707473754883,-0.01095438003540039,0.006751358509063721,-0.0011363029479980469,0.009091362357139587,0.00576553400605917,0.0014520124532282352,-0.5482059345116573,1.699763328051451,2.6563716520449976
0.49671411514282227,-0.010877728462219238,0.00729292631149292,-0.004916295409202576,0.015253918245434761,0.007581277284771204,0.0017284485511481762,-0.5482329628631137,1.699778475142174,2.65623850843516
0.506721019744873,-0.01121830940246582,0.005146980285644531,-0.004404172301292419,0.017352936789393425,0.010508845560252666,0.0015798973618075252,-0.548280147209583,1.699790193127769,2.656049622822675
0.5166540145874023,-0.010185718536376953,0.0031586289405822754,-0.00296841561794281,0.012000249698758125,0.010776227340102196,0.0027085449546575546,-0.5483214219744575,1.699827810996214,2.655888515446227
0.5266640186309814,-0.008519589900970459,0.002455472946166992,-0.0020096302032470703,0.009208358824253082,0.007655357476323843,0.005894644185900688,-0.5483228179966286,1.699848905013275,2.6557520663504572
0.5366301536560059,-0.00503164529800415,0.003460526466369629,-0.001428253948688507,0.007449074648320675,0.004736532922834158,0.004509001970291138,-0.5483072567769338,1.699863898869431,2.6556491276470813
0.5468459129333496,-0.004025459289550781,0.002787947654724121,-0.002667069435119629,0.010698780417442322,0.0016313311643898487,0.004123642109334469,-0.5483086988741355,1.6998494399131272,2.6555333752797963
0.5566580295562744,-0.0042310357093811035,0.003625333309173584,-0.004752740263938904,0.013004545122385025,0.0023629015777260065,0.0022604947444051504,-0.5483288057942497,1.6998272910733876,2.6553977464228504
0.5667910575866699,-0.0038616061210632324,0.0030622482299804688,-0.002899646759033203,0.011555701494216919,-0.0004981765523552895,0.0011769079137593508,-0.5483806363182943,1.699751366181807,2.6552448613559103
0.5768129825592041,-0.003913223743438721,0.004239916801452637,-0.0021424368023872375,0.006075981538742781,-0.0032111392356455326,0.001823257189244032,-0.5484310172836385,1.6995997651566863,2.6550948514176476
0.5870130062103271,-0.005455613136291504,0.003313899040222168,-0.0037038326263427734,-0.0005221827886998653,-0.000864050816744566,-0.00016085122479125857,-0.5484790859593066,1.6995012677857346,2.6550279865317057
0.5967609882354736,-0.006136894226074219,-0.0005817413330078125,-0.004839904606342316,-0.007066102232784033,0.000977525021880865,-0.0017339804908260703,-0.5485202425425126,1.699494774605096,2.655062489870181
0.6067509651184082,-0.006440162658691406,-0.0006641745567321777,-0.006518512964248657,-0.00511047663167119,0.0018881489522755146,8.389318827539682e-05,-0.5485452297886146,1.699532873490781,2.655124195545747
0.6167001724243164,-0.006954967975616455,0.0005199313163757324,-0.006001591682434082,0.0006214450113475323,-0.002497544512152672,0.0013326493790373206,-0.5485525486504009,1.6995356639467525,2.6551458982481675
0.6266920566558838,-0.007264971733093262,0.004035353660583496,-0.005461439490318298,0.008363287895917892,-0.003835427574813366,0.0027144039049744606,-0.5485635541673953,1.6994391381184046,2.6550695881077386
0.6367721557617188,-0.009011387825012207,0.005998849868774414,-0.006380543112754822,0.00735208485275507,-0.0064096394926309586,0.0007228921167552471,-0.5485871686232916,1.6992649692866297,2.6549417279272545
0.646867036819458,-0.008693158626556396,0.0037052035331726074,-0.006495818495750427,0.005955823697149754,-0.005453032441437244,-0.0009537809528410435,-0.548610723771104,1.6991325103978705,2.6548419413245337
0.6568231582641602,-0.00976550579071045,0.00037616491317749023,-0.006453618407249451,-0.0014469654997810721,-0.00431453064084053,-0.0014081161934882402,-0.5486495392411389,1.6990497427289566,2.6548106753530827
0.6677861213684082,-0.009315907955169678,0.0005776286125183105,-0.0059053897857666016,0.0015540008898824453,-0.0031323982402682304,0.00010823446791619062,-0.548681597513957,1.6989632892748245,2.654789382282728
0.676814079284668,-0.008297979831695557,0.0025464892387390137,-0.0038017109036445618,0.007553569972515106,-0.004028019495308399,0.0001931893639266491,-0.5486989109863121,1.698840803515939,2.6547138357913505
0.686866044998169,-0.006450831890106201,0.002960801124572754,-0.0026815086603164673,0.013843823224306107,-0.00601917551830411,0.0022955951280891895,-0.5487140743839952,1.698636205989758,2.654538497601442
0.697084903717041,-0.0054593682289123535,0.006150782108306885,-0.003497600555419922,0.012579355388879776,-0.007233843673020601,0.00042685517109930515,-0.5487309789994519,1.6984119825462887,2.654330957437848
0.7068819999694824,-0.0050318241119384766,0.0035673975944519043,-0.003574974834918976,0.008898915722966194,-0.00448772544041276,0.00011148350313305855,-0.5487721065551363,1.6982180381077794,2.6541575555904298
0.7169280052185059,-0.0065271854400634766,-0.0009222030639648438,-0.00042031705379486084,0.000300900312140584,0.0006484473124146461,-0.0017865514382719994,-0.5488299925844721,1.6980829796673713,2.6540616849977248
0.7269339561462402,-0.004924476146697998,-0.0019185543060302734,0.0015937238931655884,-0.008450713008642197,0.0004307781346142292,-0.0018474844982847571,-0.5488710640639896,1.6980322739379592,2.6540664994035064
0.7368190288543701,-0.006173849105834961,0.00025963783264160156,0.0014879852533340454,-0.009170832112431526,-0.0014621964655816555,-0.0034629579167813063,-0.548911335820608,1.6979981260274186,2.654130647127695
0.7471108436584473,-0.0051230788230896,-0.0014082789421081543,-3.219395875930786e-05,-0.005763583816587925,0.001246327068656683,-0.004748412407934666,-0.5489703991237521,1.6979779364804635,2.6541880242678846
0.7569370269775391,-0.006003081798553467,6.097555160522461e-05,-0.0015478134155273438,-0.002819725312292576,0.0024918874260038137,-0.003127612639218569,-0.5490368198773643,1.6979889534112376,2.654223759646254
0.7669610977172852,-0.008008360862731934,0.0027078986167907715,-0.0011687427759170532,-0.001009274972602725,0.0008856463246047497,-0.001235703006386757,-0.5490820560100217,1.697995433388471,2.6542386640960145
0.7769830226898193,-0.0077860355377197266,0.0015648603439331055,-0.002285480499267578,0.0008924882858991623,0.0016968450509011745,-0.002525205723941326,-0.5491341885005064,1.697966824332978,2.6542155806746885
0.7872099876403809,-0.007576167583465576,6.836652755737305e-05,-0.00402415543794632,0.0017381086945533752,0.0048102582804858685,-0.004008532967418432,-0.549189117635959,1.6979520952822509,2.6541853854578896
0.7972350120544434,-0.009297430515289307,-0.0001270771026611328,-0.0033921003341674805,-0.0023186847101897,0.0050384909845888615,-0.004582444205880165,-0.5492393972465907,1.6980204783395567,2.65419047371518
0.8069748878479004,-0.00793236494064331,-7.534027099609375e-05,-0.001556396484375,-0.004437146242707968,-0.002288796938955784,-0.0020074336789548397,-0.5492681891804163,1.6980894315928676,2.6542484785592526
0.8169980049133301,-0.006359398365020752,-0.0008580684661865234,-0.001468069851398468,-0.005558603443205357,-0.0013758651912212372,-0.0024897323455661535,-0.5492913641137089,1.6981311565313277,2.654326423248664
0.8270390033721924,-0.006210744380950928,-0.002034783363342285,-0.004221223294734955,-0.007994330488145351,0.0027414702344685793,-0.00613528024405241,-0.5493291243387269,1.6981960272643262,2.654419630638934
0.8369970321655273,-0.010926663875579834,-0.0002943873405456543,-0.005867481231689453,-0.009113656356930733,0.0035702460445463657,-0.007421587128192186,-0.5493998256288953,1.6982716643729656,2.6545128974410703
0.847161054611206,-0.010431945323944092,-0.0008018612861633301,-0.00610245019197464,-0.012559836730360985,0.0014654167462140322,-0.012633074074983597,-0.5495116906239034,1.69835982455164,2.654645139419459
0.8571901321411133,-0.007773041725158691,-0.0033232569694519043,-0.005157724022865295,-0.01686004363000393,-0.0011261054314672947,-0.009456722065806389,-0.5496233708203039,1.698424272689033,2.654813710638997
0.8673281669616699,-0.003930270671844482,-0.002977728843688965,-0.004702702164649963,-0.013912556692957878,-0.002163939643651247,-0.006603837013244629,-0.5497013062041457,1.6984517054912769,2.6549725571117313
0.8771710395812988,-0.002487003803253174,-0.0019328594207763672,-0.006323456764221191,-0.009124459698796272,-0.003604443743824959,-0.0019757954869419336,-0.5497465846181354,1.6984591623527925,2.6550936225622865
0.8873319625854492,-0.002470850944519043,-0.0015619993209838867,-0.005608201026916504,-0.0006109327077865601,-0.008237987756729126,0.0005293868016451597,-0.5497589878527483,1.6984082607443312,2.6551448413946224
0.8973069190979004,-0.001972794532775879,-0.002476990222930908,-0.0039958953857421875,-0.0010820459574460983,-0.010235093533992767,0.003994958475232124,-0.5497405059061317,1.698304648037538,2.6551333153255823
0.9072141647338867,-0.0028879642486572266,-0.0024741291999816895,-0.0028689950704574585,-0.007860256358981133,-0.012523813173174858,0.0077346754260361195,-0.549683514348035,1.6981584078337515,2.655150516181244
0.9170970916748047,-0.004227697849273682,-0.0036038756370544434,-0.0015757083892822266,-0.015979435294866562,-0.009809785522520542,0.011931550689041615,-0.5495946425783903,1.6980477040704658,2.6552396635755007
0.9270980358123779,-0.004997730255126953,-0.005593776702880859,-0.0018490701913833618,-0.01898261532187462,-0.009644048288464546,0.012399202212691307,-0.5494766661473451,1.6979827991651368,2.6553946482502058
0.937114953994751,-0.0077713727951049805,-0.0033422112464904785,-0.0018972158432006836,-0.012154271826148033,-0.011492815800011158,0.015574755147099495,-0.5493236110850147,1.697901395932899,2.655521383516534
0.947296142578125,-0.007527351379394531,0.0031021833419799805,-0.0016416385769844055,-0.008005432784557343,-0.014728201553225517,0.01233517937362194,-0.5491743322339642,1.6977680663430657,2.6556004035934095
0.9571759700775146,-0.008365213871002197,0.006125450134277344,-0.0006069019436836243,-0.009891749359667301,-0.010584854520857334,0.010334879159927368,-0.5490646416972008,1.6976005623383301,2.6556300191386364
0.9674501419067383,-0.011955976486206055,0.006301522254943848,-0.001016363501548767,-0.0171991977840662,-0.008293382823467255,0.004300476051867008,-0.5489835808896826,1.6975190766442545,2.65574805483584
0.9772448539733887,-0.011904656887054443,0.004973173141479492,-0.0011606290936470032,-0.027199899777770042,-0.00596551364287734,0.001099889283068478,-0.5489307642427451,1.6975412157429122,2.6559841680584273
0.9872169494628906,-0.01073002815246582,0.003518342971801758,-0.0014017671346664429,-0.036360207945108414,-0.0015789316967129707,-0.0030989572405815125,-0.5489012760730196,1.6976795756343073,2.656354976673754
0.9974250793457031,-0.009568393230438232,0.0027330517768859863,0.0010780245065689087,-0.03674823045730591,-0.0020718825981020927,-0.002969527617096901,-0.5488917178429463,1.6978859550751535,2.6567823853583272
1.007187843322754,-0.005351662635803223,0.005758881568908691,0.001002192497253418,-0.026021335273981094,-0.0034362641163170338,-0.0032194918021559715,-0.5488683615241213,1.6980459653169206,2.6571593557589996
1.0172491073608398,-0.004369854927062988,0.010690927505493164,0.0014632940292358398,-0.015100509859621525,-0.0038929968141019344,-0.0010671248892322183,-0.5488642900876969,1.6981137179877976,2.6573961111703754
1.0272068977355957,-0.004006505012512207,0.011131346225738525,0.0011753961443901062,-0.010751018300652504,-0.0016657505184412003,-9.363301796838641e-05,-0.5488845467676564,1.6981309983540436,2.6575219895430626
1.037726879119873,-0.005805790424346924,0.011321961879730225,0.002026796340942383,-0.007118466775864363,-7.184874266386032e-05,-0.001139722764492035,-0.548911605623967,1.6981548094399541,2.657613912398351
1.0473651885986328,-0.006664276123046875,0.009331285953521729,0.002350926399230957,-0.011032181791961193,0.0002550985664129257,-0.0010845421347767115,-0.5489556227789366,1.6981899189523437,2.6577056186018124
1.0573091506958008,-0.005806922912597656,0.007184386253356934,0.001069091260433197,-0.016022412106394768,0.0014247589278966188,-0.002690162044018507,-0.5490040743411407,1.698265967547188,2.6578632059099396
1.067533016204834,-0.005644083023071289,0.0045166015625,0.0012792348861694336,-0.021213414147496223,0.004960371647030115,-0.005940496455878019,-0.5490546461563676,1.6984002528764222,2.658084881546395
1.077409029006958,-0.005978763103485107,0.004701435565948486,0.0015388727188110352,-0.01746128499507904,0.002499077934771776,-0.006668871268630028,-0.5491062608263272,1.698584519376976,2.65832623809572
1.0877439975738525,-0.0044855475425720215,0.009608924388885498,5.841255187988281e-05,-0.011155635118484497,-0.001375777181237936,-0.004349311348050833,-0.5491668106430713,1.6986977707088324,2.6585073513297006
1.0979700088500977,-0.003548562526702881,0.011969566345214844,0.00016342103481292725,-0.004804529249668121,-0.005395552143454552,-0.007453225553035736,-0.5492614265917337,1.6987253875712633,2.6586131398243866
1.1073341369628906,-0.003407776355743408,0.011024177074432373,-0.0004689842462539673,-0.012148345820605755,-0.00705226045101881,-0.011397366411983967,-0.5493859026871145,1.698725307631633,2.658723279662795
1.1173548698425293,-0.003116011619567871,0.01027458906173706,-0.0014148950576782227,-0.020708544179797173,-0.01796216517686844,-0.01998606137931347,-0.549567136110076,1.6987212445440534,2.658938806260823
1.1272850036621094,-0.005691349506378174,0.003239870071411133,0.0023479387164115906,-0.03019627183675766,-0.01365073025226593,-0.02753196842968464,-0.5498001997359017,1.6987649590386948,2.659317802148752
1.1373071670532227,-0.007634401321411133,-0.00380706787109375,0.004915609955787659,-0.04420769214630127,0.002710133558139205,-0.03661680966615677,-0.5501014831956885,1.6989641822674448,2.659807328364994
1.1473829746246338,-0.011260151863098145,0.0014621615409851074,0.0021670013666152954,-0.04037177562713623,-0.0006516631692647934,-0.04157247394323349,-0.5504537593291702,1.6993013244504602,2.6603934102448923
1.1574101448059082,-0.011299192905426025,0.011745631694793701,0.002533435821533203,-0.04146580398082733,-0.0012037367559969425,-0.052732717245817184,-0.5508844813302094,1.699551988253534,2.66086408694398
1.1717629432678223,-0.008435726165771484,0.0051010847091674805,-0.006276257336139679,-0.07466407120227814,0.0032522641122341156,-0.05255870521068573,-0.5513761976964646,1.6999587467708268,2.6616054892898022
1.1809310913085938,-0.00853872299194336,0.007752060890197754,0.00033892691135406494,-0.06012294441461563,-0.005915934219956398,-0.036042045801877975,-0.551757365972559,1.7004132259580769,2.6624923530018054
1.1877470016479492,-0.005268752574920654,0.02402263879776001,-0.0033882707357406616,-0.03240083530545235,-0.024515895172953606,-0.028066465631127357,-0.5520385034720956,1.7005128486854055,2.6630713668349495
1.1976900100708008,-0.009821474552154541,0.021763384342193604,-0.004815801978111267,-0.025004705414175987,-0.026928985491394997,-0.024148423224687576,-0.55229055212655,1.700380440788814,2.6633800615953023
1.2074699401855469,-0.020754218101501465,0.004197180271148682,-0.009504303336143494,-0.03421990945935249,-0.027121443301439285,-0.000416887691244483,-0.552401989321106,1.70033997322298,2.6637918874181166
1.2175121307373047,-0.031110525131225586,-0.017082154750823975,-0.0158376544713974,0.00022914470173418522,-0.03016303852200508,0.06735043972730637,-0.5520715668692402,1.7002784335862284,2.664107126619039
1.2276129722595215,-0.02497154474258423,-0.03467601537704468,-0.03835487365722656,0.022445501759648323,-0.1374574452638626,0.11086814850568771,-0.5512299602498447,1.6993023102842397,2.663648491319137
1.2374858856201172,-0.018225252628326416,-0.048092007637023926,-0.06694948673248291,-0.011202474124729633,-0.17414435744285583,0.2123311161994934,-0.5496943766004148,1.697520340704979,2.6633741662451578
1.2479290962219238,-0.029727518558502197,-0.07508295774459839,-0.07456110417842865,-0.0818026065826416,-0.16581878066062927,0.2738322913646698,-0.5471889734410937,1.695971726729711,2.663638815668893
1.257472038269043,-0.0383986234664917,-0.13236427307128906,-0.11101306974887848,0.020773302763700485,-0.2475985884666443,0.3368128538131714,-0.5441538889981514,1.6939772178577854,2.663634338639667
1.2675490379333496,-0.035141944885253906,-0.11857634782791138,-0.08209119737148285,0.17042170464992523,-0.3730599582195282,0.4509769380092621,-0.5403844087144276,1.6899961412211195,2.6619535133137515
1.2775001525878906,-0.01776587963104248,-0.05118745565414429,-0.06158638000488281,0.2228098064661026,-0.4586270749568939,0.5400013327598572,-0.5356861594205491,1.6842511930806021,2.6589024610736756
1.2879271507263184,0.0011296868324279785,-0.016828417778015137,-0.059751152992248535,0.13968224823474884,-0.5327422618865967,0.5859661102294922,-0.530287055279164,1.677815621070164,2.6560064883599908
1.2976441383361816,0.011778473854064941,-0.05872368812561035,-0.05165957659482956,-0.05950169637799263,-0.6013826131820679,0.5797947645187378,-0.5244890881564024,1.6715286539794756,2.654805912166917
1.3075180053710938,0.01893913745880127,-0.11934593319892883,-0.043921589851379395,-0.26900985836982727,-0.6501748561859131,0.5343523621559143,-0.5187857248052449,1.665881710886697,2.6560656852310345
1.317605972290039,0.02813732624053955,-0.14324384927749634,-0.03487885743379593,-0.4658792316913605,-0.6839700937271118,0.49542224407196045,-0.5132976832165251,1.661053284965322,2.659757231613867
1.327794075012207,0.03483450412750244,-0.10887646675109863,-0.02664829045534134,-0.6350525617599487,-0.7453212141990662,0.44768068194389343,-0.5081151700995358,1.6567337713780188,2.665583517409017
1.3376741409301758,0.03944128751754761,-0.05296820402145386,-0.010274045169353485,-0.7486744523048401,-0.7954989075660706,0.41691717505455017,-0.5032315696547666,1.6526538879319113,2.673098234127595
1.347877025604248,0.04126465320587158,-0.019366830587387085,0.0198676660656929,-0.7932752370834351,-0.841709554195404,0.35721975564956665,-0.4987241086490679,1.6484885218676193,2.681570286506547
1.3577508926391602,0.030626773834228516,-0.020596593618392944,0.054441213607788086,-0.8095447421073914,-0.8351137042045593,0.2730180621147156,-0.49496779403268004,1.6443163677062425,2.6904079346617613
1.3688089847564697,0.004085421562194824,-0.0023292899131774902,0.08802271634340286,-0.7845534086227417,-0.8405796885490417,0.2036854326725006,-0.4920541552886159,1.6401430578411642,2.6992837005802053
1.3778061866760254,-0.008812963962554932,0.05874904990196228,0.1097027063369751,-0.8143361210823059,-0.8605882525444031,0.16989152133464813,-0.4896693934877768,1.635811919021752,2.7081245659661235
1.3879618644714355,0.005890011787414551,0.09784537553787231,0.12997853755950928,-0.8760144710540771,-0.8573214411735535,0.13032492995262146,-0.4876092585003879,1.6316426562788846,2.7175621702406376
1.3979289531707764,0.0253639817237854,0.07446327805519104,0.1190791204571724,-1.0256025791168213,-0.8573960065841675,0.023780914023518562,-0.48625166077493986,1.628077104391059,2.7282296211177806
1.4077939987182617,0.039314091205596924,0.028451383113861084,0.07500291615724564,-1.1470586061477661,-0.8598073124885559,-0.05878927558660507,-0.48587950770882027,1.6251723125714854,2.740525650356913
1.4177770614624023,0.04981100559234619,0.013929188251495361,0.051745180040597916,-1.320799708366394,-0.8235657215118408,-0.13900262117385864,-0.48616817645570753,1.6232659300301968,2.7544782370466967
1.4277479648590088,0.04876762628555298,0.021358758211135864,0.030083179473876953,-1.5533744096755981,-0.7071526646614075,-0.21955765783786774,-0.48724008030374466,1.6232030080516948,2.770836936594772
1.4376440048217773,0.01859879493713379,0.033010125160217285,0.04116510972380638,-1.6544984579086304,-0.6143452525138855,-0.27500998973846436,-0.488905740926804,1.6250622537366417,2.789219553849654
1.4477629661560059,-0.00852745771408081,0.04956406354904175,0.08012557029724121,-1.7092304229736328,-0.49401527643203735,-0.34970083832740784,-0.4910349709031919,1.6286712931287777,2.808499430047751
1.4577651023864746,-0.027261197566986084,0.07074713706970215,0.08059322088956833,-1.7040687799453735,-0.38963747024536133,-0.38275572657585144,-0.493731762247183,1.6335178781163806,2.828156688941698
1.4680838584899902,-0.042405009269714355,0.1015174388885498,0.05211186408996582,-1.6718798875808716,-0.28681474924087524,-0.3911389410495758,-0.4964793018882894,1.6393773854459597,2.847601528930557
1.4778509140014648,-0.0448952317237854,0.10275280475616455,0.005226247012615204,-1.6267441511154175,-0.2036048173904419,-0.40431758761405945,-0.4992413142857228,1.6460445380449502,2.8666937980021885
1.487900972366333,-0.05022519826889038,0.06282973289489746,-0.02052760124206543,-1.6005419492721558,-0.07344380021095276,-0.45399951934814453,-0.5022401104756918,1.653674235152581,2.8854442113373784
1.497910976409912,-0.05208849906921387,0.04990401864051819,-0.014729134738445282,-1.54551362991333,0.0008860905654728413,-0.47828593850135803,-0.5055525822669485,1.6621768438168307,2.9037951312484345
1.5077710151672363,-0.051941752433776855,0.07624250650405884,0.0218815878033638,-1.5151928663253784,0.08972754329442978,-0.5072582960128784,-0.5089720475130008,1.6713335026402096,2.921784995170291
1.51790189743042,-0.05322617292404175,0.08458957076072693,0.04804481565952301,-1.5876356363296509,0.18184122443199158,-0.524174690246582,-0.5124696100285071,1.6816791023961706,2.9400714641839913
1.5279479026794434,-0.05461376905441284,0.08266556262969971,0.0418853759765625,-1.6418083906173706,0.22806097567081451,-0.5597642064094543,-0.5159587060391271,1.6931793479883483,2.959243445881217
1.5379018783569336,-0.043194472789764404,0.0647118091583252,0.027505993843078613,-1.6600886583328247,0.264095664024353,-0.6157680749893188,-0.5196573287697814,1.7054281409798377,2.9790273306635777
1.5478510856628418,-0.03429281711578369,0.044563233852386475,0.038521066308021545,-1.6664429903030396,0.3014414310455322,-0.6876699924468994,-0.5237662743732422,1.7182627307136418,2.9991082510161493
1.5579349994659424,-0.025711417198181152,0.06755441427230835,0.08218134939670563,-1.711801528930664,0.35724425315856934,-0.7720870971679688,-0.5283759129289214,1.7318693977601476,3.019668349456888
1.5680830478668213,-0.022508978843688965,0.09176075458526611,0.1469108909368515,-1.826482892036438,0.4213866889476776,-0.8925747275352478,-0.533606795378485,1.7468218559551838,3.041505546442956
1.578153133392334,-0.017145514488220215,0.11408871412277222,0.20080529153347015,-2.0075814723968506,0.5101160407066345,-1.043167233467102,-0.5396204206650017,1.7637076516839252,3.0654620798845498
1.5885109901428223,-0.002770841121673584,0.140062153339386,0.2316650152206421,-2.2671403884887695,0.64387047290802,-1.199967622756958,-0.5463180557722551,1.7834356028792022,3.0925356640749317
1.5982251167297363,0.009610891342163086,0.1522083878517151,0.24995122849941254,-2.560343027114868,0.8206652402877808,-1.381667137145996,-0.5535125245242815,1.8069418529505747,3.123535651720677
1.6079411506652832,0.01843470335006714,0.13901585340499878,0.26494690775871277,-2.8093907833099365,1.0386296510696411,-1.5783076286315918,-0.5612185097516215,1.8348038733417174,-3.1245388443723003
1.6179850101470947,0.03079766035079956,0.15364068746566772,0.2862491309642792,-2.9009647369384766,1.2929109334945679,-1.7227568626403809,-0.5692149246955818,1.8668714449225212,-3.0864287832930515
1.6279990673065186,0.04507946968078613,0.22773557901382446,0.29886144399642944,-2.8460805416107178,1.5529509782791138,-1.843892216682434,-0.5772810067790938,1.9023694150518768,-3.047266042089064
1.6379518508911133,0.06816554069519043,0.2772412896156311,0.28052136301994324,-2.740251302719116,1.8325659036636353,-1.9751300811767578,-0.5856548497449697,1.9409399682499644,-3.0078973083621094
1.6478710174560547,0.10438382625579834,0.2944040298461914,0.2679862976074219,-2.6125895977020264,2.083646774291992,-2.0684213638305664,-0.594160719818863,1.9823432895219024,-2.9687896678370564
1.6578500270843506,0.16118359565734863,0.3388141989707947,0.2511734962463379,-2.5436840057373047,2.3143532276153564,-2.164273738861084,-0.6025547699696318,2.0264056384308975,-2.929733314903326
1.6681280136108398,0.2100408673286438,0.3779502511024475,0.25467583537101746,-2.5111477375030518,2.516284942626953,-2.254148483276367,-0.6105251941286051,2.073259102054709,-2.890002133050566
1.6779849529266357,0.23910337686538696,0.3915119171142578,0.297637939453125,-2.4490890502929688,2.679342031478882,-2.3364131450653076,-0.6179046653616189,2.1226215573892726,-2.8495414591792847
1.6880879402160645,0.26115721464157104,0.37897223234176636,0.35008788108825684,-2.3660378456115723,2.813255548477173,-2.4194893836975098,-0.6246939522319409,2.1738948717059965,-2.8087223965351598
1.698085069656372,0.26972270011901855,0.3623332977294922,0.36352676153182983,-2.211674928665161,2.952394485473633,-2.452169418334961,-0.630924310513986,2.2266948203333734,-2.7680212904679196
1.708132028579712,0.2634695768356323,0.33920586109161377,0.3316742777824402,-1.9568710327148438,3.0559494495391846,-2.468254566192627,-0.6368079714906401,2.2801393177940485,-2.728572584052976
1.7182269096374512,0.26371222734451294,0.3167415261268616,0.26206278800964355,-1.6991997957229614,3.143460273742676,-2.4920284748077393,-0.643013423008211,2.3336652321136446,-2.6909224129906155
1.7302441596984863,0.25321370363235474,0.3074434995651245,0.1978437304496765,-1.5454827547073364,3.206833839416504,-2.413828134536743,-0.6488290653659262,2.3872864978143418,-2.6547265446821298
1.7385210990905762,0.23849380016326904,0.29736757278442383,0.1468367576599121,-1.4466919898986816,3.23685359954834,-2.330322742462158,-0.653439741699552,2.4406391714627675,-2.6199649759341366
1.748203992843628,0.2484039068222046,0.24758291244506836,0.07060462236404419,-1.3901393413543701,3.2680490016937256,-2.268629550933838,-0.6567434316660633,2.4938341319587196,-2.5860911125732793
1.7580761909484863,0.24017301201820374,0.19159823656082153,0.05700182914733887,-1.269474983215332,3.2971012592315674,-2.156517267227173,-0.6587872883650997,2.546672940569873,-2.5534762246945673
1.7681159973144531,0.21142444014549255,0.16550350189208984,0.06510931253433228,-1.1286088228225708,3.2795615196228027,-2.069955348968506,-0.6600645179147431,2.5984120975812255,-2.522799907796085
1.778730869293213,0.18841689825057983,0.10928386449813843,0.02406919002532959,-0.9939126968383789,3.278834104537964,-2.0037834644317627,-0.6609418798638457,2.649136243131107,-2.4936816232587153
1.7881200313568115,0.16549262404441833,0.05083787441253662,0.0040395259857177734,-0.8463032841682434,3.230991840362549,-1.9436007738113403,-0.6616247306892651,2.6986840235153435,-2.4660975071135067
1.7982211112976074,0.16088661551475525,0.023612141609191895,-0.0421333909034729,-0.7757883667945862,3.1878254413604736,-1.9068278074264526,-0.6621134894873866,2.747070341757357,-2.4396063612174492
1.8081231117248535,0.17138472199440002,0.004420340061187744,-0.08673936128616333,-0.7752540111541748,3.135725259780884,-1.81388258934021,-0.6616443418968172,2.794514814815272,-2.4139932829961928
1.8182811737060547,0.1869523972272873,0.003507852554321289,-0.10468322038650513,-0.735558807849884,3.0461361408233643,-1.716650128364563,-0.660075168921136,2.8403421684042507,-2.3897675210870584
1.828434944152832,0.21288038790225983,-0.022399723529815674,-0.15327000617980957,-0.7303881645202637,2.9737229347229004,-1.6338272094726562,-0.6576795738077568,2.884525799884715,-2.3668044308295038
1.8382489681243896,0.22177830338478088,-0.0727158784866333,-0.18045544624328613,-0.713913083076477,2.8974106311798096,-1.5416648387908936,-0.6543392947597665,2.927132636967434,-2.345173705405847
1.8482699394226074,0.22318196296691895,-0.0813140869140625,-0.1853002905845642,-0.7117879986763,2.8173134326934814,-1.4650983810424805,-0.6502781678736317,2.9680745511098197,-2.324865983207873
1.8582391738891602,0.23964479565620422,-0.09006017446517944,-0.14811670780181885,-0.7760735154151917,2.759246826171875,-1.4013901948928833,-0.6451345408784213,3.0075776778457275,-2.3056477566391043
1.8682150840759277,0.26233768463134766,-0.07858431339263916,-0.0599064826965332,-0.8380289077758789,2.69702410697937,-1.321988821029663,-0.6386558172909059,3.0457110701528793,-2.2875922647717895
1.8797521591186523,0.2909427881240845,-0.057833731174468994,-0.012398898601531982,-0.9006286263465881,2.6292271614074707,-1.2826321125030518,-0.6310013759424893,3.0824122878096976,-2.2706472042105617
1.8882839679718018,0.3162371516227722,-0.05283987522125244,-0.016601502895355225,-0.9212033152580261,2.6110615730285645,-1.2386502027511597,-0.6223490537167502,3.11805785760052,-2.254559056686912
1.8984739780426025,0.32600247859954834,-0.028873205184936523,0.006892025470733643,-0.8495376706123352,2.611292600631714,-1.1832135915756226,-0.6135002496423813,-3.1303410981614235,-2.2396364898995023
1.9084019660949707,0.3334740698337555,0.002596139907836914,-0.003087282180786133,-0.7300272583961487,2.6128013134002686,-1.1529523134231567,-0.6052868166625361,-3.096217460366089,-2.2256912941730547
1.9191040992736816,0.33629924058914185,0.010863840579986572,-0.04267776012420654,-0.6473321318626404,2.634237766265869,-1.136428952217102,-0.5977391237269796,-3.0623979875056944,-2.212329921459712
1.9302380084991455,0.33390289545059204,0.026189565658569336,-0.023002028465270996,-0.6327223777770996,2.638158082962036,-1.1455695629119873,-0.5902931808428953,-3.028733752389792,-2.199358881107926
1.9383840560913086,0.3232208788394928,0.02952820062637329,0.03713434934616089,-0.7728235721588135,2.7098214626312256,-1.1692873239517212,-0.58190842203051,-2.994974084583037,-2.1865849236991046
1.9484338760375977,0.3047482967376709,0.012152493000030518,0.16119813919067383,-0.912583589553833,2.7856152057647705,-1.1001561880111694,-0.5716728945526419,-2.961045515828381,-2.174876100309959
1.9583959579467773,0.29870080947875977,0.04437589645385742,0.27617454528808594,-0.9750546813011169,2.8260421752929688,-1.1034356355667114,-0.5602333977673846,-2.927290901042718,-2.1643096846756182
1.9684810638427734,0.3008602261543274,0.051780760288238525,0.21999359130859375,-0.9552505612373352,2.893838405609131,-1.0891555547714233,-0.5482052324045925,-2.893395570251621,-2.1543375143175716
1.9800190925598145,0.28614747524261475,0.04132431745529175,0.13167577981948853,-0.8139919638633728,2.965545177459717,-1.0848572254180908,-0.5367537115657435,-2.8591596250744247,-2.1447964864451117
1.9884190559387207,0.27408096194267273,0.0613558292388916,0.04745328426361084,-0.5478025078773499,3.013261079788208,-1.0525648593902588,-0.5270376864635222,-2.824395398724578,-2.135312656673024
1.9985909461975098,0.2637813985347748,0.07858151197433472,-0.012045025825500488,-0.30060386657714844,3.0484726428985596,-1.0353885889053345,-0.519605128565738,-2.789139895314007,-2.1254966094274272
2.008437156677246,0.24286684393882751,0.06573623418807983,-0.07738524675369263,-0.10069482773542404,3.062002658843994,-1.0210779905319214,-0.5140559111283487,-2.7534731029769874,-2.1152715814051635
2.0185799598693848,0.22587257623672485,0.050899654626846313,-0.10927325487136841,0.0076974304392933846,3.0286121368408203,-1.0108122825622559,-0.5096864495058353,-2.7177919775627415,-2.1047117837001927
2.03035306930542,0.22795641422271729,0.02983728051185608,-0.11656737327575684,-0.01850777491927147,2.9725615978240967,-1.0192692279815674,-0.505397298480073,-2.6826216986302085,-2.0942070628456397
2.0390970706939697,0.22868114709854126,-0.01773679256439209,-0.1291048526763916,-0.19808286428451538,2.909909248352051,-1.0032830238342285,-0.49983956261983825,-2.648452051086023,-2.084429548249611
2.0490779876708984,0.22120019793510437,-0.051117390394210815,-0.10358083248138428,-0.3718298375606537,2.803638219833374,-0.9684152603149414,-0.49249353671216706,-2.615936380261508,-2.0762656859399473
2.058542013168335,0.23086890578269958,-0.038263171911239624,-0.09382587671279907,-0.4957301914691925,2.7007851600646973,-0.9842775464057922,-0.4836755432504426,-2.5851565622056563,-2.0692946927455806
2.068427085876465,0.22850283980369568,-0.029141604900360107,-0.10373872518539429,-0.48955026268959045,2.6134371757507324,-0.924676239490509,-0.47430848238463236,-2.5557866339611426,-2.063313367223681
2.080009937286377,0.21624284982681274,0.005375117063522339,-0.12014275789260864,-0.3703000247478485,2.4988064765930176,-0.8650329113006592,-0.46562999723039267,-2.527666926338105,-2.0577936842885753
2.0885820388793945,0.21983259916305542,0.02661120891571045,-0.21899676322937012,-0.20459602773189545,2.3565332889556885,-0.8761208057403564,-0.45823700795129946,-2.500683470432247,-2.0518043702797994
2.098716974258423,0.23030930757522583,0.024581611156463623,-0.3008239269256592,-0.008603628724813461,2.2026286125183105,-0.8370959162712097,-0.452121336995873,-2.4748402821982176,-2.044961384455152
2.108597993850708,0.23715728521347046,0.04257252812385559,-0.2834814190864563,0.11982062458992004,2.051032781600952,-0.8480479121208191,-0.44737617116749956,-2.4502156286099024,-2.037210480547864
2.1185929775238037,0.22194814682006836,0.04170754551887512,-0.2740275263786316,0.0866168662905693,1.9318691492080688,-0.8385908007621765,-0.44272193652066244,-2.426872053170154,-2.0293012396879475
2.1309919357299805,0.1905694603919983,0.01692330837249756,-0.21774977445602417,-0.08596187829971313,1.7906547784805298,-0.8617668747901917,-0.43719451854436975,-2.405226318250901,-2.0221978884098544
2.13873291015625,0.17051100730895996,-0.03319805860519409,-0.18649160861968994,-0.31766730546951294,1.662596344947815,-0.8265193700790405,-0.4299096696475611,-2.385686695480918,-2.016862459937363
2.1486220359802246,0.15631091594696045,-0.04706832766532898,-0.12063074111938477,-0.46939095854759216,1.5277619361877441,-0.7956057190895081,-0.4213988194125942,-2.3683220805087797,-2.013488692133496
2.1586289405822754,0.14743852615356445,-0.044152528047561646,-0.14911025762557983,-0.49752965569496155,1.3985130786895752,-0.7727121114730835,-0.4123858273418042,-2.35273858568135,-2.011186440155972
2.168658971786499,0.13579720258712769,-0.04738491773605347,-0.20570266246795654,-0.3500184714794159,1.2909513711929321,-0.715048611164093,-0.40398760826304453,-2.338361303312124,-2.0088727109255395
2.180014133453369,0.13022518157958984,-0.018832236528396606,-0.22941160202026367,-0.13535010814666748,1.1902905702590942,-0.6395788788795471,-0.39742145799359374,-2.32472691622595,-2.005721925567943
2.1886579990386963,0.12120145559310913,-0.019246160984039307,-0.3003302216529846,0.032335180789232254,1.0712532997131348,-0.588823139667511,-0.3926127795545888,-2.3117722883392045,-2.0015631428199416
2.1987109184265137,0.12119066715240479,-0.060478657484054565,-0.35576319694519043,0.10301760584115982,0.9216799736022949,-0.533985435962677,-0.3889033271164921,-2.3000197593422897,-1.9969004209774477
2.2086710929870605,0.1286325454711914,-0.09011217951774597,-0.2911631464958191,0.07188238948583603,0.8124696016311646,-0.4550643861293793,-0.3858390502130329,-2.2897485583706207,-1.9925609842939245
2.2189719676971436,0.10520607233047485,-0.10597768425941467,-0.17063337564468384,-0.061549168080091476,0.7507468461990356,-0.3579186797142029,-0.3828394585416295,-2.2808296884810866,-1.9896472606403488
2.2299630641937256,0.06093794107437134,-0.13691821694374084,-0.12050819396972656,-0.19406035542488098,0.6536087989807129,-0.29815030097961426,-0.3795306176391664,-2.273345673556277,-1.9884387018238066
2.2387099266052246,0.04865825176239014,-0.17386052012443542,-0.1602727770805359,-0.23831303417682648,0.531898558139801,-0.23450368642807007,-0.3760675285014383,-2.2674259768205007,-1.9884216874710994
2.2488319873809814,0.06459963321685791,-0.16237381100654602,-0.164409339427948,-0.24121399223804474,0.4374835193157196,-0.20522978901863098,-0.3729230763396197,-2.2627936565971907,-1.9889066988809758
2.259026050567627,0.05755716562271118,-0.12459775805473328,-0.13150060176849365,-0.2577298581600189,0.39435815811157227,-0.15621191263198853,-0.3699314505942583,-2.258971119138553,-1.989739066385485
2.2687630653381348,0.021357238292694092,-0.10006499290466309,-0.06430673599243164,-0.27984723448753357,0.3869398236274719,-0.12773053348064423,-0.36715428709186154,-2.255541552720272,-1.9910191557803472
2.279860019683838,0.0044782161712646484,-0.09269732236862183,-0.07517468929290771,-0.24589593708515167,0.3692212700843811,-0.09298346936702728,-0.3646076675878108,-2.2522667123568745,-1.992510761655715
2.2887821197509766,0.013136148452758789,-0.08002105355262756,-0.10576367378234863,-0.13136634230613708,0.3369958996772766,-0.06958450376987457,-0.3627832115327755,-2.2491160399862253,-1.993558588805012
2.298820972442627,0.03531622886657715,-0.04873490333557129,-0.1223326325416565,-0.020371921360492706,0.3200632631778717,-0.06745397299528122,-0.3617818248411528,-2.245899048628258,-1.993718964986571
2.308840036392212,0.03233975172042847,-0.031831324100494385,-0.1212884783744812,0.011928245425224304,0.3144427239894867,-0.03993676230311394,-0.3613936538840499,-2.242579798101928,-1.9933384067178452
2.319715976715088,0.01814669370651245,-0.029337912797927856,-0.09234619140625,-0.05939413607120514,0.2917160987854004,-0.0568571537733078,-0.3609302433716839,-2.239469701108006,-1.9931591073486314
2.3309149742126465,0.008184850215911865,-0.04649391770362854,-0.054734885692596436,-0.1750592589378357,0.2720652222633362,-0.043062884360551834,-0.35977796240003257,-2.2369082915550043,-1.9938240594867966
2.33884596824646,0.0008706450462341309,-0.05570897459983826,0.024940967559814453,-0.24041083455085754,0.28254184126853943,-0.027861561626195908,-0.35819581143420204,-2.234689988249315,-1.9953730221916548
2.3491058349609375,-0.01415020227432251,-0.053516536951065063,0.008052349090576172,-0.22886942327022552,0.26998400688171387,-0.03912705183029175,-0.35644199726475906,-2.2325219484569243,-1.9971816493791767
2.3589420318603516,-0.01337045431137085,-0.04165270924568176,-0.04091012477874756,-0.12081378698348999,0.25198957324028015,-0.013653917238116264,-0.35513129084646455,-2.230387094430017,-1.9985101780627827
2.369020938873291,0.006735384464263916,-0.005829662084579468,-0.043223559856414795,-0.008508902974426746,0.25311869382858276,0.0003583584912121296,-0.3547131167429933,-2.2280166972484485,-1.9989907918411471
2.3814029693603516,0.012029290199279785,0.0037034153938293457,-0.08463478088378906,0.04746168851852417,0.21870611608028412,0.012409428134560585,-0.35489596263298995,-2.2255826661232634,-1.9988387695267342
2.389613151550293,0.02235466241836548,0.0021508336067199707,-0.11055010557174683,0.04995260760188103,0.17332914471626282,0.04561265558004379,-0.35544530835278204,-2.2235324212321914,-1.998573946007798
2.3991408348083496,0.0381966233253479,-0.010049253702163696,-0.11277192831039429,-0.023522939532995224,0.10337642580270767,0.038050875067710876,-0.3559262074085806,-2.222165774215885,-1.9987101189830794
2.409036159515381,0.04054147005081177,-0.03489029407501221,-0.11879771947860718,-0.10050056129693985,0.029949476942420006,0.058765050023794174,-0.3558771041444355,-2.221822458200986,-1.9995701459452917
2.418894052505493,0.03984278440475464,-0.01987484097480774,-0.04006016254425049,-0.15225990116596222,0.0003313980996608734,0.0794394388794899,-0.35568091397975293,-2.222234820297279,-2.0011085743421315
2.43015193939209,0.018673598766326904,-0.0028268098831176758,-0.031183242797851562,-0.1469389647245407,-0.028326701372861862,0.09874282777309418,-0.3554325616601043,-2.2230088059874262,-2.003011251759464
2.438997983932495,0.007260799407958984,-0.007083237171173096,-0.10512590408325195,-0.02382635697722435,-0.11111665517091751,0.13820873200893402,-0.3558061802000983,-2.224219486055713,-2.004544445371397
2.4490630626678467,0.04525989294052124,0.004273444414138794,-0.16317200660705566,0.1377665400505066,-0.1983807235956192,0.17531722784042358,-0.3574301018130345,-2.2259374828073737,-2.0050622513252714
2.4590611457824707,0.07361477613449097,0.020242959260940552,-0.19236522912979126,0.26669228076934814,-0.2800508141517639,0.22003036737442017,-0.3603051942560228,-2.2281092792418282,-2.0045872833468033
2.4691760540008545,0.0712398886680603,0.011389940977096558,-0.20913082361221313,0.3066638112068176,-0.3727758526802063,0.2694459557533264,-0.3640939737105675,-2.2309899575268286,-2.003693618288915
2.480393886566162,0.0732617974281311,-0.02544248104095459,-0.21500664949417114,0.296922504901886,-0.4886135160923004,0.3238024115562439,-0.3683078515174566,-2.235070064269944,-2.003086519487349
2.4891581535339355,0.08458268642425537,-0.06557175517082214,-0.2352955937385559,0.2945060133934021,-0.6266852617263794,0.37828829884529114,-0.37288997057978496,-2.240590349833927,-2.0029295014464634
2.499253988265991,0.09338253736495972,-0.08421757817268372,-0.26522016525268555,0.3071504533290863,-0.7645089030265808,0.44826871156692505,-0.3779904322826053,-2.2476516363884786,-2.0031798534714707
2.509152889251709,0.09305912256240845,-0.08937996625900269,-0.27304500341415405,0.30484893918037415,-0.9093167781829834,0.504463255405426,-0.3836661761606619,-2.2562602939463106,-2.0038306555701517
2.519829034805298,0.09014642238616943,-0.09197452664375305,-0.27254652976989746,0.24140766263008118,-1.0500285625457764,0.5585035681724548,-0.3895153996904886,-2.2665914114966,-2.005176102881633
2.530164957046509,0.08727395534515381,-0.08606666326522827,-0.19828110933303833,0.15601086616516113,-1.164326786994934,0.6078052520751953,-0.3952757705931274,-2.2786394288094094,-2.0076278878378804
2.539185047149658,0.07520109415054321,-0.08355545997619629,-0.14613908529281616,0.09224919974803925,-1.2397363185882568,0.6466865539550781,-0.4008114069611526,-2.2920275994793906,-2.011102205059366
2.549159049987793,0.05579096078872681,-0.09727561473846436,-0.16986215114593506,0.13061466813087463,-1.3181535005569458,0.7054146528244019,-0.4065386532046947,-2.3064106716889783,-2.015165663914129
2.559237003326416,0.06088888645172119,-0.07336029410362244,-0.20107662677764893,0.27654311060905457,-1.398384928703308,0.7498239278793335,-0.41327125563250633,-2.3215186950342837,-2.018949656743988
2.5694289207458496,0.07819026708602905,-0.03666535019874573,-0.23342186212539673,0.4528469741344452,-1.4613929986953735,0.7976722717285156,-0.4213860809252656,-2.3370179108763325,-2.021871624200957
2.58050799369812,0.08441734313964844,-0.028696388006210327,-0.24324411153793335,0.6307607889175415,-1.5120253562927246,0.8715419173240662,-0.4311518926736656,-2.3527843697797746,-2.024013245553749
2.5891809463500977,0.0869409441947937,-0.043957412242889404,-0.2617763876914978,0.8110946416854858,-1.5681506395339966,0.9537733197212219,-0.44272428691815485,-2.368852229003082,-2.0255808967112663
2.5994150638580322,0.08981364965438843,-0.07665985822677612,-0.3138468265533447,0.9380533695220947,-1.6449981927871704,1.0257692337036133,-0.4559239676972208,-2.38543903903008,-2.0267521316668535
2.6093578338623047,0.09483188390731812,-0.0966247022151947,-0.31267672777175903,1.031237006187439,-1.7263296842575073,1.1328983306884766,-0.4705143093964705,-2.4029206124656,-2.0280954041156383
2.6194710731506348,0.09354466199874878,-0.09261053800582886,-0.2537020444869995,1.0204660892486572,-1.787412166595459,1.2267122268676758,-0.4861196191978745,-2.4215173822589198,-2.0302557693432375
2.6303210258483887,0.07315915822982788,-0.11866974830627441,-0.21944499015808105,0.8664141297340393,-1.8326166868209839,1.2915281057357788,-0.501591804866654,-2.441438433035746,-2.034071683490111
2.639224052429199,0.054179847240448,-0.16244477033615112,-0.18775993585586548,0.5875595808029175,-1.8969264030456543,1.3329070806503296,-0.5155650342932655,-2.4631551972162375,-2.0403357425250297
2.649263858795166,0.05217695236206055,-0.17588859796524048,-0.08585286140441895,0.3591192364692688,-1.9544169902801514,1.4227180480957031,-0.5277625919385134,-2.4870259440246607,-2.049508949129642
2.659446954727173,0.053144991397857666,-0.15616846084594727,-0.01374894380569458,0.18224221467971802,-1.9858458042144775,1.447151780128479,-0.5385640330673175,-2.512623012316917,-2.061041234001978
2.6696181297302246,0.043559879064559937,-0.14825516939163208,-0.05266690254211426,0.12646013498306274,-1.9943435192108154,1.4861348867416382,-0.5481434325104675,-2.5392789984294803,-2.074037746951949
2.681130886077881,0.03976711630821228,-0.11385416984558105,-0.06754761934280396,0.29990914463996887,-2.006443500518799,1.5885862112045288,-0.5583751558079911,-2.5665145355132877,-2.087764539431619
2.6892309188842773,0.058202505111694336,-0.07015597820281982,-0.14258170127868652,0.6274489760398865,-2.0328609943389893,1.677130937576294,-0.5709503299920128,-2.5939570640612097,-2.1012783516219034
2.6993680000305176,0.08317968249320984,-0.061263203620910645,-0.2582949995994568,1.0536426305770874,-2.0796735286712646,1.7636804580688477,-0.5869413816231458,-2.6214318954781155,-2.113891139398917
2.709238052368164,0.10663321614265442,-0.0699692964553833,-0.34911417961120605,1.345629096031189,-2.1142544746398926,1.778328537940979,-0.6062827607420456,-2.648992768803334,-2.1255561940387615
2.719388008117676,0.12531322240829468,-0.07410407066345215,-0.3176267743110657,1.337121844291687,-2.139303207397461,1.8334412574768066,-0.6265542443297732,-2.677186227988366,-2.1374620419322428
2.730666160583496,0.12477561831474304,-0.046927452087402344,-0.08276879787445068,1.2182929515838623,-2.145679235458374,1.9851176738739014,-0.6464767637141865,-2.707253101071199,-2.1519586892471008
2.739341974258423,0.12082082033157349,-0.07004421949386597,0.021836578845977783,0.9441961050033569,-2.1552159786224365,2.024245023727417,-0.6646284420478258,-2.739541336569913,-2.1695976763636238
2.7493319511413574,0.10829851031303406,-0.1797465682029724,-0.02238231897354126,0.6015920639038086,-2.174924850463867,1.9681698083877563,-0.6793191212012146,-2.7736166640882254,-2.1895497904954775
2.759286880493164,0.0991617739200592,-0.21587610244750977,-0.015056192874908447,0.37107282876968384,-2.2094566822052,2.0103065967559814,-0.6905454018569452,-2.8094685135837776,-2.2115095741893978
2.7696990966796875,0.1140366643667221,-0.12532836198806763,0.0471653938293457,0.3586474061012268,-2.24916672706604,2.0937066078186035,-0.7002807312805203,-2.8472034863651507,-2.2355778116984415
2.7805161476135254,0.12759725749492645,-0.04992353916168213,0.0065084099769592285,0.464199423789978,-2.30141282081604,2.118025064468384,-0.7098835693683521,-2.886335577653461,-2.2608048070588866
2.7893800735473633,0.12180569767951965,-0.05656158924102783,-0.10140407085418701,0.7114520072937012,-2.340325117111206,2.1523375511169434,-0.7205356911794902,-2.9264284935636367,-2.2865114186427906
2.799448013305664,0.1157522052526474,-0.09870678186416626,-0.2186005711555481,0.9793550968170166,-2.3971481323242188,2.215557336807251,-0.7331349423713207,-2.9677158563291575,-2.3130195292970184
2.809347152709961,0.12432905286550522,-0.12769156694412231,-0.31222081184387207,1.019023060798645,-2.478492021560669,2.2182085514068604,-0.7465960343035213,-3.010771998562946,-2.3407028996148287
2.819387912750244,0.13513371348381042,-0.12016195058822632,-0.31710290908813477,0.8292829394340515,-2.5672502517700195,2.2200090885162354,-0.7582915585008871,-3.055734149415167,-2.3694868156305224
2.831176996231079,0.13959962129592896,-0.12923550605773926,-0.19682234525680542,0.47889187932014465,-2.63077712059021,2.268056869506836,-0.7663433700382164,-3.102786349448677,-2.3999186270295447
2.839514970779419,0.1380898505449295,-0.1798303723335266,-0.05961763858795166,0.02746584266424179,-2.702883243560791,2.280951738357544,-0.7692019075712511,3.131756218665445,-2.4315151131518524
2.8493518829345703,0.13449445366859436,-0.20716649293899536,0.06502068042755127,-0.31273239850997925,-2.788780450820923,2.3045547008514404,-0.7668577148359422,3.082166955015787,-2.4633285200462227
2.8593311309814453,0.1366833746433258,-0.17416471242904663,0.13298219442367554,-0.41364169120788574,-2.882823944091797,2.3104312419891357,-0.761093276213768,3.0320175495993102,-2.49476123270069
2.869217872619629,0.15032628178596497,-0.09550756216049194,0.12887895107269287,-0.1955520510673523,-2.95157527923584,2.3452975749969482,-0.754771766896317,2.9813667278845437,-2.525949324338364
2.884505033493042,0.1583704948425293,-0.0003959536552429199,0.06905221939086914,0.2565578818321228,-3.0188491344451904,2.3972549438476562,-0.750543687714601,2.929586064562902,-2.5579680792506188
2.889638900756836,0.16553400456905365,0.08194541931152344,-0.03600066900253296,0.8112215995788574,-3.064176082611084,2.445507526397705,-0.7500157960908092,2.875951142614386,-2.591952925551812
2.8995540142059326,0.17420431971549988,0.10625076293945312,-0.13606351613998413,1.1572080850601196,-3.067643880844116,2.4145689010620117,-0.7525864195712567,2.820675077987856,-2.6278919548700617
2.9095540046691895,0.1838017702102661,0.08099693059921265,-0.16492092609405518,1.1892317533493042,-3.007450580596924,2.35127592086792,-0.7556644972519045,2.7653790205971323,-2.6641825238943424
2.919528007507324,0.1899557113647461,0.06532365083694458,-0.02237468957901001,0.9912241101264954,-2.899479389190674,2.380739450454712,-0.7565069500278443,2.7111796521468228,-2.7000612602751617
2.929932117462158,0.196516215801239,0.07919466495513916,0.17482620477676392,0.6387357711791992,-2.7937400341033936,2.3753273487091064,-0.7533840357883596,2.6591420477138055,-2.734399147694307
2.939401149749756,0.1999414563179016,0.08951449394226074,0.325589120388031,0.28631094098091125,-2.674168109893799,2.3474791049957275,-0.7458933995807064,2.6104415643686183,-2.765690070450019
2.9494080543518066,0.20213985443115234,0.10791075229644775,0.42917877435684204,0.12764441967010498,-2.5550522804260254,2.2958109378814697,-0.7352747220409225,2.565299340138183,-2.793823814454887
2.959691047668457,0.2050522267818451,0.17566782236099243,0.43955087661743164,0.2924232482910156,-2.4532456398010254,2.2531533241271973,-0.7240458966597622,2.5224749874786414,-2.8204853058390063
2.96950101852417,0.20303556323051453,0.27223336696624756,0.3631927967071533,0.7344978451728821,-2.338203191757202,2.2336647510528564,-0.7146235589920636,2.4800989909165994,-2.848401897944074
2.980821132659912,0.197075754404068,0.34904909133911133,0.24952656030654907,1.3860855102539062,-2.2447803020477295,2.23013973236084,-0.7086955774527984,2.43648480451652,-2.880070389169921
2.9894399642944336,0.19052201509475708,0.3611488342285156,0.13530343770980835,1.9477598667144775,-2.1188650131225586,2.192880630493164,-0.7065075680329488,2.390824121091044,-2.916660226194322
2.999495029449463,0.18394821882247925,0.30436915159225464,0.07408207654953003,2.1867449283599854,-1.9488428831100464,2.0942723751068115,-0.7064697047923364,2.344863237981263,-2.9560797491851782
3.009485960006714,0.1769181489944458,0.23631441593170166,0.11742746829986572,2.081489324569702,-1.7970494031906128,2.003547430038452,-0.7061899687827002,2.300756981815357,-2.9951690410816063
3.019620895385742,0.16716140508651733,0.18265312910079956,0.1936560869216919,1.7759654521942139,-1.656956434249878,1.9079194068908691,-0.7040008878866251,2.2600720666233367,-3.031255636622747
3.0300798416137695,0.16703057289123535,0.1480792760848999,0.27674031257629395,1.3749628067016602,-1.5229979753494263,1.8271117210388184,-0.6991630879634991,2.22388974016091,-3.0626518324623673
3.039536952972412,0.16252106428146362,0.14788824319839478,0.3433930277824402,1.024998426437378,-1.399204969406128,1.7266088724136353,-0.6919778973533631,2.192387960197261,-3.088982644835368
3.0495669841766357,0.15201133489608765,0.17427003383636475,0.34262344241142273,0.7758526802062988,-1.2882663011550903,1.6198192834854126,-0.6833494443254681,2.16506897065396,-3.110832145801791
3.0595831871032715,0.14702647924423218,0.20356059074401855,0.3051304519176483,0.6390051245689392,-1.1920747756958008,1.5261569023132324,-0.6740656565154284,2.1409440836940536,-3.1295151235989573
3.070142984390259,0.1524469256401062,0.22651267051696777,0.259211003780365,0.6211777329444885,-1.1084785461425781,1.4381211996078491,-0.6647999334270249,2.1190327647025047,3.1369201695524516
3.0804638862609863,0.14980167150497437,0.2344374656677246,0.2108161449432373,0.703025758266449,-1.0211492776870728,1.376920223236084,-0.6560788040930675,2.098355358320237,3.120610394708375
3.0897650718688965,0.1277562379837036,0.22707945108413696,0.16863030195236206,0.8247038125991821,-0.9274173974990845,1.3190139532089233,-0.6481156793187464,2.0784282118434536,3.1038588138605703
3.1002678871154785,0.0984376072883606,0.21585696935653687,0.1394142508506775,0.9848037362098694,-0.8454151749610901,1.274740219116211,-0.6410427241514348,2.0589323509588677,3.086166521487613
3.1097521781921387,0.0670466423034668,0.19128960371017456,0.1195717453956604,1.12178373336792,-0.7697230577468872,1.2398016452789307,-0.6347376220328835,2.039591756331912,3.067269544510223
3.11982798576355,0.042366087436676025,0.1480066180229187,0.1065514087677002,1.1926443576812744,-0.6874532103538513,1.195486068725586,-0.6289626713582093,2.0206931266121613,3.047638337105065
3.130763053894043,0.016081035137176514,0.10100311040878296,0.10015633702278137,1.1611387729644775,-0.6031933426856995,1.1463110446929932,-0.6234152588276026,2.00287094281194,3.0282488142802646
3.1398801803588867,-0.007443606853485107,0.06949025392532349,0.09905469417572021,1.0615203380584717,-0.5331048369407654,1.1046794652938843,-0.6177363720181133,1.9866180169263652,3.0100550196124187
3.1498830318450928,-0.019200384616851807,0.06820660829544067,0.09948751330375671,0.9431192278862,-0.48193255066871643,1.0646487474441528,-0.611761727936343,1.9719823229718172,2.993487548621135
3.159857988357544,-0.022527098655700684,0.07803845405578613,0.0898512601852417,0.8108474612236023,-0.4430690407752991,1.0100613832473755,-0.6055432465587837,1.9589251664777478,2.978727652444596
3.1699161529541016,-0.028242886066436768,0.09493750333786011,0.07328683137893677,0.6722221970558167,-0.4239215552806854,0.9550185203552246,-0.5991822806224253,1.9473378255673814,2.9659077697387572
3.1804919242858887,-0.03293687105178833,0.11245280504226685,0.057396382093429565,0.5469582676887512,-0.4200815260410309,0.8929247856140137,-0.5927682520344507,1.9369851119845094,2.9549913753840316
3.1898319721221924,-0.030714035034179688,0.11177164316177368,0.051253944635391235,0.4229345917701721,-0.4237944483757019,0.8217281103134155,-0.5864464917962362,1.9277025410914306,2.9458745780868782
3.199918031692505,-0.02651268243789673,0.10016888380050659,0.054534077644348145,0.3216812312602997,-0.4458901584148407,0.7496472597122192,-0.5803472892830467,1.9192857398156569,2.93846133204683
3.2098770141601562,-0.022663116455078125,0.09508180618286133,0.06687334179878235,0.2668581008911133,-0.46636804938316345,0.6824474930763245,-0.5745993741023813,1.9113503033234605,2.9322869624255072
3.2200241088867188,-0.02437293529510498,0.08994877338409424,0.08186778426170349,0.22567126154899597,-0.47605183720588684,0.6164104342460632,-0.5692712922158016,1.9037341264306358,2.9269680368283773
3.2311501502990723,-0.03814053535461426,0.08986532688140869,0.08950865268707275,0.19138216972351074,-0.4790368676185608,0.5518407821655273,-0.5644142764919539,1.8964890606582705,2.9223966622336293
3.2399768829345703,-0.05558598041534424,0.09192079305648804,0.09138068556785583,0.16908645629882812,-0.45399701595306396,0.4905584752559662,-0.5600369996666695,1.8896986732158252,2.9184311819008166
3.2500369548797607,-0.06537425518035889,0.08917278051376343,0.08695480227470398,0.14596876502037048,-0.4405800402164459,0.4419917166233063,-0.5560993474677187,1.8834088601770624,2.914976202619918
3.260128974914551,-0.058188796043395996,0.09162598848342896,0.0808417797088623,0.13938038051128387,-0.4466105103492737,0.40922418236732483,-0.5524784298026619,1.8773337819713465,2.9118610643143286
3.270382881164551,-0.04374420642852783,0.09983253479003906,0.07714405655860901,0.1425059288740158,-0.44050654768943787,0.38198310136795044,-0.549115082166222,1.8713263545050915,2.908896195523479
3.2807979583740234,-0.04061692953109741,0.10606342554092407,0.06724107265472412,0.14628814160823822,-0.4169764518737793,0.3638722896575928,-0.5459634363376108,1.8655214783271208,2.905991130329263
3.28997802734375,-0.046216726303100586,0.11181086301803589,0.054739803075790405,0.14511644840240479,-0.38763245940208435,0.3361350893974304,-0.5430260633337909,1.8600374085159752,2.903188155558058
3.3000340461730957,-0.04697597026824951,0.1112712025642395,0.046483516693115234,0.1605939418077469,-0.3537144362926483,0.3137586712837219,-0.5403436216554747,1.85488447093022,2.90040293446349
3.3099188804626465,-0.04334443807601929,0.1068880558013916,0.04703629016876221,0.17128853499889374,-0.32496947050094604,0.29075732827186584,-0.5378943954778022,1.8500324691178336,2.8975611357416153
3.3200368881225586,-0.03514343500137329,0.10380840301513672,0.046812281012535095,0.17508727312088013,-0.2940211296081543,0.2621248960494995,-0.5357072079559004,1.8454845748149913,2.894723201116131
3.3312368392944336,-0.030562162399291992,0.0999489426612854,0.0493105947971344,0.15897224843502045,-0.26354464888572693,0.23408909142017365,-0.5337554188923374,1.8413361773594608,2.8920703359290645
3.3402750492095947,-0.028194904327392578,0.10048222541809082,0.05339661240577698,0.14199112355709076,-0.2338578850030899,0.20190079510211945,-0.5320556517989369,1.8376465310391228,2.8897063457874257
3.3523640632629395,-0.025574922561645508,0.10315293073654175,0.05729520320892334,0.12851689755916595,-0.2057805359363556,0.169544979929924,-0.5306214595055672,1.8343822729818025,2.8876185701420254
3.3603200912475586,-0.025603890419006348,0.10224795341491699,0.06086583435535431,0.11674412339925766,-0.17264361679553986,0.1332082748413086,-0.5294772094923053,1.8315653848303945,2.885784894262485
3.370962142944336,-0.02624523639678955,0.09692168235778809,0.06474804878234863,0.09715552628040314,-0.14186666905879974,0.09199735522270203,-0.5286654028029838,1.829218772384191,2.884253428353845
3.3809990882873535,-0.026000022888183594,0.09666377305984497,0.06615057587623596,0.09338342398405075,-0.11224272847175598,0.05701727047562599,-0.5281866791303852,1.8273013018775117,2.882978252064808
3.3902249336242676,-0.025718212127685547,0.09699952602386475,0.06662347912788391,0.09751708060503006,-0.07499558478593826,0.023141007870435715,-0.5280453357400625,1.8257643422235577,2.8817914464181182
3.4003989696502686,-0.0271947979927063,0.09172767400741577,0.068115234375,0.11457063257694244,-0.03716537728905678,-0.004442681558430195,-0.5282306443634773,1.8245920153427226,2.880580051714646
3.410262107849121,-0.02662879228591919,0.08994728326797485,0.06505905091762543,0.13319364190101624,-0.0020659351721405983,-0.024651387706398964,-0.5286843289893417,1.8237168935584862,2.8792266495798584
3.4201769828796387,-0.02593863010406494,0.08863192796707153,0.059040650725364685,0.12335645407438278,0.02473851479589939,-0.052693940699100494,-0.52937720532207,1.8231536789702814,2.8778742940605038
3.4305920600891113,-0.02627253532409668,0.08096671104431152,0.05269534885883331,0.11036042124032974,0.048578955233097076,-0.07189511507749557,-0.5302851758114933,1.8229409934959342,2.8767432185705317
3.4401700496673584,-0.024989783763885498,0.06289160251617432,0.05019032955169678,0.08638051897287369,0.0782867819070816,-0.09210584312677383,-0.5313215851742678,1.8231374557431281,2.875879352650784
3.4502029418945312,-0.026534676551818848,0.04360145330429077,0.04515877366065979,0.07104131579399109,0.11338911205530167,-0.10999659448862076,-0.5325114303971237,1.8238072674053802,2.8752871099841766
