timestamp,accel_x,accel_y,accel_z,rotation_x,rotation_y,rotation_z, pitch,roll,yaw
0.0370481014251709,0.03248123452067375,-0.02387985587120056,0.009393095970153809,0.004113997798413038,0.014351610094308853,0.0010109338909387589,0.049382367750905945,-0.03890134630940028,0.0009608368399087813
0.04319000244140625,0.03318598493933678,-0.024615850299596786,0.007152438163757324,0.005488804541528225,0.010970771312713623,-0.0007609204621985555,0.0494399051951012,-0.038766710157301265,0.0009722425517600501
0.051490068435668945,0.0313367135822773,-0.025264203548431396,0.00651240348815918,0.007689108140766621,0.01073854323476553,0.004678053315728903,0.049508796455344506,-0.03865685343405047,0.0010032559725888315
0.05672287940979004,0.029229145497083664,-0.02355719730257988,0.005459904670715332,0.008066045120358467,0.01151343435049057,0.003751379670575261,0.04959848410139545,-0.03853285539944458,0.0010331617118778536
0.06672883033752441,0.026650048792362213,-0.02198675647377968,0.005415081977844238,0.006977078504860401,0.011949127539992332,0.003925550729036331,0.04967365463298801,-0.038410325517870034,0.0010730725579674602
0.07671904563903809,0.024911388754844666,-0.023306936025619507,0.0029602646827697754,0.0040350849740207195,0.013205340132117271,0.002457349793985486,0.049742108674344636,-0.03827370097983392,0.0011058192068830845
0.08673501014709473,0.023019202053546906,-0.022755317389965057,0.002947092056274414,0.006032455712556839,0.01254194788634777,0.004398528020828962,0.04980552513109898,-0.03813612652821994,0.0011512412017212748
0.0972898006439209,0.02229716256260872,-0.01973802223801613,0.004198789596557617,0.009742239490151405,0.010771122761070728,0.006199304014444351,0.04989324163668132,-0.03800909457208663,0.0012101838831705028
0.10673308372497559,0.023811928927898407,-0.019312866032123566,0.004716455936431885,0.007096655201166868,0.006044544745236635,0.00632607052102685,0.04998281030238052,-0.037921681661038015,0.001274440589334705
0.11741495132446289,0.02587992325425148,-0.017224807292222977,0.004287660121917725,0.002385190222412348,0.0005034827627241611,0.003843738231807947,0.05004152914105125,-0.03788400636522586,0.0013282244372731901
0.12687397003173828,0.027258675545454025,-0.016758132725954056,0.0031120777130126953,-0.0032681680750101805,-0.003607373218983412,-2.2905354853719473e-05,0.050050448049787984,-0.037889492705266176,0.0013493688481251167
0.13675999641418457,0.02640746906399727,-0.01952289044857025,0.007111072540283203,-0.008846408687531948,-0.004511915612965822,-0.0008264874340966344,0.05000169493554855,-0.03792327299677287,0.0013347879298978463
0.14744210243225098,0.02513205260038376,-0.018538594245910645,0.008471906185150146,-0.009498083963990211,-0.005233099218457937,-0.0035809949040412903,0.04991777187516801,-0.0379600233736891,0.0013107674719433228
0.15674901008605957,0.02387472242116928,-0.016953647136688232,0.010381460189819336,-0.005935973487794399,-0.001366899348795414,-0.003303120844066143,0.04985469085439273,-0.03798435887417575,0.0012730076256424452
0.16687989234924316,0.020897645503282547,-0.017427995800971985,0.009330034255981445,-0.0003654391039162874,0.003377255517989397,-0.001368866884149611,0.04983808730341687,-0.03796742248073732,0.0012446055101248221
0.17684388160705566,0.020017627626657486,-0.016078244894742966,0.008568763732910156,0.0013755024410784245,0.00960097461938858,-0.0031598429195582867,0.049860345258345345,-0.037896021939473765,0.0012175065359497949
0.1870419979095459,0.0215471088886261,-0.017090924084186554,0.009671390056610107,-0.0009403824806213379,0.012405549176037312,-0.003449594834819436,0.04987001601120868,-0.03777733710090015,0.0011843117104824222
0.19750285148620605,0.021511830389499664,-0.02112208679318428,0.010115742683410645,-0.0018952421378344297,0.012975243851542473,9.139761095866561e-05,0.05037134815181024,-0.037054944499556465,0.0011296844506726612
0.20677399635314941,0.022478539496660233,-0.020970411598682404,0.010331392288208008,0.004701940342783928,0.013458075001835823,-0.0011248680530115962,0.050859340144395006,-0.036327411736688686,0.0011002135599824472
0.217026948928833,0.02468917891383171,-0.01778009533882141,0.011362433433532715,0.009687327779829502,0.013392781838774681,-0.005591681692749262,0.05147172006160044,-0.03563866046760799,0.0010329617129564634
0.22712206840515137,0.026148207485675812,-0.01676061376929283,0.009172797203063965,0.006803656928241253,0.013922218233346939,-0.005986095871776342,0.05204947722058496,-0.035007054788771835,0.0009500843471128623
0.23710989952087402,0.026097770780324936,-0.015282843261957169,0.005277752876281738,-0.0010654677171260118,0.009749445132911205,-0.009671005420386791,0.05250553005796768,-0.0344375233581425,0.0008455038757184134
0.24742698669433594,0.026451222598552704,-0.019266102463006973,0.005518972873687744,-0.012201741337776184,0.0048769256100058556,-0.014922493137419224,0.052856252818247684,-0.033981995543341345,0.0007004623367405747
0.2569758892059326,0.02606562152504921,-0.024349242448806763,0.004085421562194824,-0.01727837696671486,-0.0015794197097420692,-0.0158386193215847,0.053068212381336674,-0.033626589162578505,0.0005274369604315334
0.2670938968658447,0.026732221245765686,-0.020711533725261688,0.003962576389312744,-0.014086844399571419,-0.0038633467629551888,-0.017139308154582977,0.05328825761660012,-0.033301115269169644,0.00033839043026014147
0.27744507789611816,0.023894838988780975,-0.018770422786474228,0.0032819509506225586,-0.008246531710028648,-0.0036391085013747215,-0.01596219092607498,0.0536582441072638,-0.0329814598281759,0.0001508054072160143
0.28723883628845215,0.022328663617372513,-0.019148945808410645,0.0014695525169372559,0.000712608452886343,-0.003853759728372097,-0.015500398352742195,0.05408906150089916,-0.032636058792565335,-2.817284513444441e-05
0.2973630428314209,0.020867783576250076,-0.017034359276294708,0.004481494426727295,0.0022820094600319862,-0.0026236451230943203,-0.011839084327220917,0.05449526590355837,-0.032243224171326114,-0.0001934514472983756
0.3070690631866455,0.02005946636199951,-0.016790319234132767,0.0038639307022094727,0.0034740399569272995,-0.0015983283519744873,-0.009759954176843166,0.0548772032246274,-0.03181618945553091,-0.00032430925930969405
0.3171420097351074,0.019405074417591095,-0.017907120287418365,0.00455927848815918,0.006850129459053278,-0.00019164662808179855,-0.010525080375373363,0.05524105251549697,-0.03139045168621939,-0.000454371514621624
0.327495813369751,0.02036970481276512,-0.018767934292554855,0.005660057067871094,0.008057789877057076,-0.0005261837504804134,-0.010621167719364166,0.05572376014969389,-0.03095122255162049,-0.00058446610961224
0.3370931148529053,0.021169714629650116,-0.01707453653216362,0.0034114718437194824,0.011347009800374508,0.0008564847521483898,-0.010454880073666573,0.05633473703390189,-0.030515429597670653,-0.0007126100083831356
0.3481628894805908,0.022636709734797478,-0.015845734626054764,0.004859745502471924,0.011353667825460434,0.002001643879339099,-0.010182438418269157,0.05686248446157716,-0.030075075163037455,-0.0008317271762021656
0.35841894149780273,0.022624365985393524,-0.01599757745862007,0.003608882427215576,0.00833788700401783,-0.0004214332439005375,-0.010504575446248055,0.05732174144053179,-0.02969651896797614,-0.0009563362802457806
0.36764001846313477,0.022411728277802467,-0.017136041074991226,0.003975331783294678,0.00852271169424057,0.00022651394829154015,-0.011756260879337788,0.05775564469087069,-0.029361844718729366,-0.0010823179652413876
0.37715888023376465,0.022632012143731117,-0.01591765135526657,0.0035491585731506348,0.011041328310966492,0.0025797721464186907,-0.01465644221752882,0.058166011465022316,-0.02903281578746834,-0.0012263306591149975
0.38736510276794434,0.022591350600123405,-0.013357169926166534,0.003945887088775635,0.014228599146008492,0.0025499446783214808,-0.01462714746594429,0.058590990691529954,-0.028702252827115003,-0.0013835166736025026
0.3979990482330322,0.023080499842762947,-0.011919882148504257,0.0038977861404418945,0.010863463394343853,0.0013616422656923532,-0.016526194289326668,0.05903722656310429,-0.028398043411637052,-0.0015510435942999907
0.4073209762573242,0.02548641338944435,-0.011882532387971878,0.006186723709106445,0.003828989341855049,-0.00044824229553341866,-0.021447982639074326,0.05944149126405412,-0.028087900505406632,-0.0017681660881836083
0.4173600673675537,0.025326017290353775,-0.015703976154327393,0.0057656168937683105,-0.002639911836013198,0.0005235010758042336,-0.02385622449219227,0.05974045786346243,-0.027774737009833864,-0.0020105188289230315
0.42720794677734375,0.02546623721718788,-0.016651056706905365,0.005973398685455322,0.0005100751295685768,0.0009016701951622963,-0.025024820119142532,0.0599992809229063,-0.02742634626822511,-0.0022702247508311763
0.43785595893859863,0.023861147463321686,-0.015685558319091797,0.007122635841369629,0.011999551206827164,0.004914254881441593,-0.022258754819631577,0.06033978730054486,-0.027056971544214,-0.002523650511960605
0.4481489658355713,0.021378381177783012,-0.012678749859333038,0.007105350494384766,0.020141633227467537,0.006493775639683008,-0.019366296008229256,0.060799221860746384,-0.026664546080674093,-0.0027389068139616183
0.4573979377746582,0.02137165702879429,-0.011341284960508347,0.006644546985626221,0.020202286541461945,0.005121182184666395,-0.01414900366216898,0.06126780328325636,-0.02627624710118556,-0.0029201348764871815
0.4674060344696045,0.021848438307642937,-0.014108467847108841,0.009055495262145996,0.017732204869389534,0.007417626213282347,-0.009518831968307495,0.06167522141321898,-0.02589834887085236,-0.003062824871740315
0.4773838520050049,0.022866928949952126,-0.01827886328101158,0.011685609817504883,0.006891557946801186,0.005603435914963484,-0.004294029902666807,0.061991517408109105,-0.025512669368725503,-0.003157977116170297
0.4874298572540283,0.021937867626547813,-0.01937539502978325,0.009954333305358887,0.008108090609312057,0.00031812675297260284,-0.0004992915201000869,0.06225351920375272,-0.025147774661691432,-0.0032069283920315764
0.497661828994751,0.024217523634433746,-0.016406923532485962,0.010321617126464844,0.012879825197160244,-0.0015080473385751247,0.003322877222672105,0.06261343506819803,-0.02481799116586059,-0.0032057674025840694
0.5074870586395264,0.023498520255088806,-0.012457959353923798,0.007786452770233154,0.014156279154121876,3.4189317375421524e-05,0.007960505783557892,0.0630231699060398,-0.02448032563099066,-0.003172512490131032
0.5175049304962158,0.020214799791574478,-0.009519077837467194,0.00584721565246582,0.010969007387757301,-0.0016716541722416878,0.01037753839045763,0.06339933143123268,-0.024187234317339632,-0.0030933320165193374
0.5274851322174072,0.02000925876200199,-0.008968845009803772,0.00559157133102417,0.004484210163354874,-0.0013723145239055157,0.006567619275301695,0.0636754649127518,-0.023935757269714326,-0.0030292129368580454
0.5377171039581299,0.01971741020679474,-0.009286001324653625,0.0077522993087768555,0.0016812833491712809,-0.0028772219084203243,0.006219437811523676,0.06386222337551403,-0.02368939807540507,-0.0029796508635553873
0.547501802444458,0.01665637642145157,-0.00905688852071762,0.009513258934020996,0.001943338429555297,-0.005802171770483255,0.0026987390592694283,0.06409180746353056,-0.02345103295815937,-0.0029524447689091645
0.5575339794158936,0.01644713617861271,-0.006639488041400909,0.009938955307006836,0.004622328095138073,-0.006799659226089716,-0.002999840071424842,0.06443471667027238,-0.0232265232389414,-0.002970725777931785
0.5676920413970947,0.018092846497893333,-0.004519283771514893,0.009554088115692139,0.0038406907115131617,-0.007144006434828043,-0.004169766791164875,0.06480093201549963,-0.023010699943834867,-0.0030211824429711345
0.5776660442352295,0.01631268486380577,-0.005003944039344788,0.010228097438812256,-0.0010379706509411335,-0.009067030623555183,-0.004124706145375967,0.06507979621890315,-0.022771523673780335,-0.003088066147616033
0.5876448154449463,0.015018226578831673,-0.008751638233661652,0.010129988193511963,-0.003779694903641939,-0.009796736761927605,-0.0031257541850209236,0.06525398159099673,-0.02256019456697472,-0.0031450968559310053
0.5975279808044434,0.01337951049208641,-0.008640281856060028,0.008356630802154541,-0.0031126895919442177,-0.005895960610359907,-0.003459927858784795,0.06536556752331914,-0.022386068121009923,-0.0031959112152460255
0.6075799465179443,0.012887261807918549,-0.007966645061969757,0.00943833589553833,-0.0017195900436490774,-0.004314574878662825,0.00030737993074581027,0.06545957902724947,-0.022183392716105636,-0.0032310685160738288
0.6176321506500244,0.012509489431977272,-0.008821442723274231,0.007281482219696045,0.003670315258204937,-0.0031924964860081673,0.000517450098413974,0.06561219002558069,-0.021973184678103833,-0.003244974171270121
0.6276090145111084,0.012659410014748573,-0.006373986601829529,0.006891310214996338,0.004827458877116442,-0.0015370757319033146,0.0030013802461326122,0.06580175209072414,-0.021802533731148845,-0.0032354851148305988
0.6375401020050049,0.01207960769534111,-0.005691073834896088,0.006396174430847168,0.006219342816621065,0.0001375642605125904,-0.0007813736447133124,0.06596622777637486,-0.021619254671935526,-0.003235748372111291
0.6476490497589111,0.011992296203970909,-0.007781617343425751,0.0049585700035095215,0.005252083297818899,0.000270722433924675,-0.002199240494519472,0.0660884701243756,-0.021394244965031884,-0.0032659335900981673
0.6576240062713623,0.013940704986453056,-0.007051333785057068,0.006634116172790527,0.0008415884803980589,-0.0022568837739527225,-0.002871741773560643,0.06619337309655231,-0.021206116881919916,-0.003296862528211545
0.6677610874176025,0.01315065287053585,-0.0056348517537117004,0.00850588083267212,-0.0066594709642231464,-0.006892648059874773,-0.005712002981454134,0.0663131220984655,-0.021072037387110557,-0.00335479635576147
0.6777629852294922,0.014017870649695396,-0.008363403379917145,0.007268369197845459,-0.010658523067831993,-0.008536484092473984,-0.00785552803426981,0.06636176633675092,-0.020993085263939622,-0.0034430970375668333
0.687716007232666,0.013374025002121925,-0.006172306835651398,0.0057106614112854,-0.006811853498220444,-0.009798290207982063,-0.008092016912996769,0.06640147693847072,-0.020928975130410452,-0.003540959888449477
0.6976919174194336,0.013764707371592522,-0.004318565130233765,0.005202651023864746,-0.0044393762946128845,-0.009631309658288956,-0.007647854741662741,0.06648537008405257,-0.020877140815243566,-0.003626586448111848
0.7076170444488525,0.01217559352517128,-0.005952425301074982,0.0062372684478759766,-0.0025096500758081675,-0.01025369018316269,-0.01015894953161478,0.06654536451632088,-0.020829130573860818,-0.003716808247634619
0.7177069187164307,0.01116623729467392,-0.007752157747745514,0.006750881671905518,0.002528501208871603,-0.00888078659772873,-0.006797987036406994,0.06663793276792336,-0.02078109280993339,-0.0038069241368398864
0.7277770042419434,0.012400608509778976,-0.008037962019443512,0.004347085952758789,0.0018571186810731888,-0.007957201451063156,-0.006747919600456953,0.06677969351901658,-0.0207185105120765,-0.0038797291450118343
0.7379710674285889,0.013090930879116058,-0.007486626505851746,0.0036386847496032715,0.00012556440196931362,-0.007810195442289114,-0.007412857376039028,0.06690406463293495,-0.020630589797230887,-0.003960981235448139
0.7485358715057373,0.013085892423987389,-0.008687756955623627,0.005922794342041016,0.0003101215697824955,-0.006772362161427736,-0.009873352013528347,0.06700013141451837,-0.02054918845598415,-0.004052027224513669
0.7577099800109863,0.012720014899969101,-0.010044626891613007,0.007977664470672607,-0.003808856476098299,-0.005249123089015484,-0.011954186484217644,0.06710835690254707,-0.020442597186806813,-0.00417173519256655
0.7678759098052979,0.011687515303492546,-0.011925525963306427,0.009622812271118164,0.00023009348660707474,-0.007138901390135288,-0.007249446120113134,0.06718074367830063,-0.02034073252591637,-0.004279435821577255
0.7778170108795166,0.014137033373117447,-0.008291266858577728,0.009924352169036865,0.0027424029540270567,-0.0076742409728467464,-0.0053420900367200375,0.06725989057168909,-0.020257194717551247,-0.004352455846341216
0.7880079746246338,0.014185355976223946,-0.008387558162212372,0.006988227367401123,0.004434308968484402,-0.005472073797136545,-0.003505307948216796,0.06737748673962154,-0.02018342557165251,-0.004413584246485035
0.7993929386138916,0.013978369534015656,-0.010175839066505432,0.00455164909362793,0.007046204525977373,-0.002736563328653574,0.0007050432614050806,0.06755799678987287,-0.02009854157210367,-0.004430053897029417
0.8077290058135986,0.013681726530194283,-0.009016543626785278,0.0032905936241149902,0.003702339716255665,-0.0011996529065072536,0.004327475093305111,0.0677411573564586,-0.01996967560033463,-0.004418579354886195
0.8179190158843994,0.012983504682779312,-0.009159967303276062,0.007055342197418213,-0.004387361463159323,0.0003500846214592457,0.005649414844810963,0.06784210455061677,-0.019835831321277957,-0.004375344974360885
0.8277900218963623,0.013778403401374817,-0.01096007227897644,0.00998532772064209,-0.01211558934301138,-0.004824171308428049,0.009491290897130966,0.06787312580792663,-0.019714941815414295,-0.004312657664594553
0.8377668857574463,0.01321113109588623,-0.011496752500534058,0.010779023170471191,-0.011181002482771873,-0.00024180300533771515,0.0036879966501146555,0.06790108256684436,-0.01960519734342105,-0.0042531902087273666
0.8482179641723633,0.011141816154122353,-0.00797116756439209,0.007479429244995117,-0.0078211585059762,0.0018189512193202972,0.0007779604638926685,0.0679936522890736,-0.019473541557651783,-0.004233472439239111
0.8579361438751221,0.011264514178037643,-0.006053723394870758,0.006364047527313232,-0.0006672919262200594,0.01245033461600542,-0.004358531441539526,0.06808024121703286,-0.019244830823334797,-0.004263429516968925
0.8680408000946045,0.008867815136909485,-0.006138555705547333,0.0026068687438964844,0.004249968566000462,0.008698473684489727,-0.005543105769902468,0.06820933142182581,-0.01896857878043972,-0.004326312677773185
0.8778488636016846,0.009125621989369392,-0.0039578452706336975,0.0010245442390441895,0.010254980996251106,0.014406826347112656,-0.009044043719768524,0.06843745660719222,-0.018707225156578976,-0.004420622630044413
0.8880178928375244,0.009203648194670677,-0.00624239444732666,0.0069658756256103516,0.0037283720448613167,0.01069571077823639,-0.01211733091622591,0.06865585727692608,-0.018418590080101004,-0.004535180472174643
0.8984060287475586,0.009890217334032059,-0.00792337954044342,0.003682732582092285,-0.012313362210988998,0.0012703847605735064,-0.014487971551716328,0.06874510864257555,-0.018219758910294228,-0.0046685646997258025
0.9079229831695557,0.013105034828186035,-0.006949089467525482,0.004922211170196533,-0.02032335102558136,-0.0040356977842748165,-0.008805052377283573,0.06872752642361725,-0.018092559362060445,-0.004802552190375944
0.9181787967681885,0.012110702693462372,-0.00879700481891632,0.0013874173164367676,-0.022264396771788597,-0.0014083115383982658,-0.009012085385620594,0.06868003825155915,-0.017982901883611943,-0.004912738048764586
0.9280369281768799,0.008771460503339767,-0.009274512529373169,0.0009691119194030762,-0.023503566160798073,-0.004250437021255493,0.0008799594943411648,0.0685684827198594,-0.017908716345352526,-0.004968441266267059
0.938154935836792,0.008282732218503952,-0.005237914621829987,0.005484104156494141,-0.032153744250535965,0.0015502828173339367,0.002884627552703023,0.0683932360630832,-0.01781627116818959,-0.004953104027447005
0.9486410617828369,0.007921699434518814,-0.007427923381328583,0.006531476974487305,-0.05361109972000122,-0.0014763996005058289,0.015586839988827705,0.06804874454007331,-0.01772926293503792,-0.004887805592745423
0.9581170082092285,0.009910039603710175,-0.010324090719223022,0.009501874446868896,-0.0800284743309021,0.0064592426642775536,0.0192201379686594,0.06747058010171544,-0.017641499119810455,-0.00472628059794601
0.9681949615478516,0.01190180703997612,-0.009603530168533325,0.013742446899414062,-0.11916788667440414,0.0037803691811859608,0.026003209874033928,0.06661757572874523,-0.017495683995441512,-0.0045149007560302355
0.9780869483947754,0.010959135368466377,-0.011107712984085083,0.008373916149139404,-0.18297478556632996,0.015929488465189934,0.027413245290517807,0.06523245285496145,-0.017329233748643216,-0.004278642155442837
0.9882569313049316,0.012285582721233368,-0.01799992471933365,0.01515418291091919,-0.18501369655132294,0.02458076737821102,0.04446519911289215,0.06355527262308126,-0.017081618971913112,-0.0040028909476957425
0.999014139175415,0.002948625013232231,-0.014680769294500351,0.037579476833343506,-0.20394615828990936,0.001621610950678587,0.07121463119983673,0.06177449479203251,-0.01676004170987724,-0.003400305149529946
1.008180856704712,0.018184026703238487,0.015557408332824707,0.0211755633354187,-0.25247588753700256,-0.029770666733384132,0.04092570021748543,0.059736571257982325,-0.016902700098722395,-0.0029036790205130636
1.0182950496673584,0.039280571043491364,-0.01672428473830223,0.038426876068115234,-0.3013683259487152,-0.06722798943519592,0.08754002302885056,0.057113493431315145,-0.017306457404789245,-0.002317122560223659
1.02823805809021,0.03313704580068588,-0.01552831381559372,0.0692366361618042,-0.347520112991333,-0.0979107990860939,0.11534582078456879,0.054062802973325476,-0.018134603236008764,-0.0013779994809519143
1.0400187969207764,0.03877414017915726,0.016828324645757675,0.059331417083740234,-0.4180108308792114,-0.15504540503025055,0.11632857471704483,0.050434270280153175,-0.019406086986281993,-0.00025849076115275584
1.0506970882415771,0.04976518452167511,-0.0084453783929348,0.03991436958312988,-0.4900232255458832,-0.21490713953971863,0.13518962264060974,0.04599891277190875,-0.021301141399396758,0.0008662338541250745
1.0580999851226807,0.05329108610749245,-0.01811448484659195,0.012834429740905762,-0.5673562288284302,-0.24041640758514404,0.17791081964969635,0.04085680765416319,-0.02357353603836957,0.0023261237949477437
1.068147897720337,0.05424942821264267,-0.0026769638061523438,-0.033535003662109375,-0.622137188911438,-0.2655782401561737,0.1797334849834442,0.03515678160855151,-0.026070224738740964,0.003982911725955452
1.0780630111694336,0.05062161386013031,-0.014665978029370308,-0.04981511831283569,-0.6772747039794922,-0.30677488446235657,0.19339986145496368,0.028871330461230887,-0.02890914705311168,0.00564084420230564
1.0881478786468506,0.052059393376111984,-0.03381539136171341,-0.046482622623443604,-0.6505538821220398,-0.37042707204818726,0.2221689224243164,0.022109845078597055,-0.03234329885863761,0.007530094135872888
1.0986459255218506,0.06566482037305832,-0.016448162496089935,-0.025367259979248047,-0.5856238603591919,-0.41596534848213196,0.2448907047510147,0.01584006877623357,-0.03633469554441135,0.009627594938822962
1.1082608699798584,0.07013916969299316,0.0013903528451919556,-0.01076596975326538,-0.5478658676147461,-0.4436608850955963,0.2771573066711426,0.010133784165115137,-0.040672457967151326,0.012035632730654196
1.1192758083343506,0.06823708862066269,-0.012919846922159195,-0.01841580867767334,-0.5845556855201721,-0.48867490887641907,0.2921143174171448,0.004322572637951497,-0.04531903504536912,0.014657355119585434
1.1282830238342285,0.07410053163766861,-0.03664020448923111,-0.03174871206283569,-0.646959125995636,-0.5483555793762207,0.30142447352409363,-0.002002780574983496,-0.05050146840213778,0.017310229879981376
1.1382248401641846,0.08087089657783508,-0.05797026306390762,-0.03575599193572998,-0.641038715839386,-0.6196591854095459,0.33659112453460693,-0.00865398779340062,-0.05630554663970341,0.02016832202884489
1.148500919342041,0.09034503996372223,-0.05517049878835678,-0.040735840797424316,-0.6344820261001587,-0.6768830418586731,0.3537282943725586,-0.015223598883999353,-0.06277508810754494,0.023228725251691125
1.1581799983978271,0.0931554064154625,-0.06298770755529404,-0.05741673707962036,-0.6048823595046997,-0.7402650713920593,0.40584853291511536,-0.021653361933301644,-0.06979086369382227,0.02661607099864142
1.1682918071746826,0.08246590942144394,-0.10870134085416794,-0.08887869119644165,-0.603378176689148,-0.7966184020042419,0.4788772165775299,-0.028047082730234103,-0.07737020441440007,0.0305614628179967
1.178222894668579,0.07362069189548492,-0.16512322425842285,-0.12297254800796509,-0.5164153575897217,-0.8904246687889099,0.5984364151954651,-0.03411789763890075,-0.08563112665444025,0.03546013474279308
1.1882588863372803,0.08664324134588242,-0.20186258852481842,-0.14525306224822998,-0.3118419647216797,-1.0471205711364746,0.718518078327179,-0.03890855381508345,-0.09506741332246882,0.04164005512621612
1.1987409591674805,0.10029367357492447,-0.23302847146987915,-0.14905136823654175,-0.07706863433122635,-1.2181823253631592,0.8262575268745422,-0.041619000437074054,-0.10613875165273856,0.04914173105538655
1.2083699703216553,0.09500893205404282,-0.27669641375541687,-0.15998876094818115,0.11799938976764679,-1.3300036191940308,0.9758023023605347,-0.0423951587528244,-0.11849401320757807,0.05807872247079693
1.2183558940887451,0.0781586617231369,-0.3295665383338928,-0.19510239362716675,0.27631300687789917,-1.4754739999771118,1.1872961521148682,-0.0417826895601947,-0.1320474409666552,0.0690541423935361
1.2284209728240967,0.07152831554412842,-0.38867834210395813,-0.21169966459274292,0.4108237028121948,-1.6830594539642334,1.38979971408844,-0.040163152027340915,-0.1472977227137882,0.08234681605354577
1.2388408184051514,0.07422628998756409,-0.4409426748752594,-0.19677329063415527,0.5343378782272339,-1.8809207677841187,1.5835769176483154,-0.0377992332427065,-0.16448516338242214,0.09781340689006306
1.2498199939727783,0.07192915678024292,-0.4690682590007782,-0.18631869554519653,0.6380962133407593,-2.0132200717926025,1.8042398691177368,-0.03488650010345183,-0.18334070281707024,0.11547191874399945
1.2585418224334717,0.058349609375,-0.49618130922317505,-0.1948750615119934,0.7518578767776489,-2.159270763397217,2.0258116722106934,-0.03166331371651591,-0.20363902812830167,0.13568542837960287
1.2685599327087402,0.05312325060367584,-0.5105960369110107,-0.21089231967926025,0.8059973120689392,-2.2363688945770264,2.189480781555176,-0.028452666056710107,-0.2249514663110592,0.15796191226462
1.2783291339874268,0.04553230106830597,-0.48488113284111023,-0.21947771310806274,0.7936466336250305,-2.343773603439331,2.3992905616760254,-0.025945467644005932,-0.24720616791813882,0.18218279894048722
1.2884199619293213,0.027417153120040894,-0.47154077887535095,-0.20814502239227295,0.6795985698699951,-2.4412002563476562,2.578371524810791,-0.02508652908520069,-0.27050359649671046,0.20821120972233853
1.2989108562469482,0.011878907680511475,-0.4754495620727539,-0.1702595353126526,0.4639829397201538,-2.540294647216797,2.7134461402893066,-0.02698176685727255,-0.2947527214334069,0.23529237583088405
1.308527946472168,-0.008996933698654175,-0.4483969211578369,-0.15767335891723633,0.31795355677604675,-2.52165150642395,2.8450162410736084,-0.03166945161963479,-0.31937725957325297,0.26299671603206487
1.3188409805297852,-0.02324250340461731,-0.3950980603694916,-0.18706244230270386,0.31009766459465027,-2.415428876876831,2.8953680992126465,-0.03818902449166436,-0.343083988691495,0.2912253760041902
1.3284950256347656,-0.05422085523605347,-0.30907970666885376,-0.2548496127128601,0.475277841091156,-2.378767490386963,2.8982150554656982,-0.04462920433168832,-0.3658805513926284,0.3198116448171053
1.3384859561920166,-0.08018887042999268,-0.2742082476615906,-0.323373019695282,0.8076788783073425,-2.333350658416748,2.816169261932373,-0.049328957506125724,-0.38813448998943123,0.34883113074410627
1.3486199378967285,-0.06743791699409485,-0.2649344205856323,-0.3505864143371582,1.4878292083740234,-2.078366756439209,2.7128567695617676,-0.049836657161707286,-0.40922647903282244,0.3785911890818639
1.358508825302124,-0.0624178946018219,-0.23351843655109406,-0.3420838713645935,1.7576709985733032,-2.0685558319091797,2.495744228363037,-0.04516405565651898,-0.4282394657586032,0.4091890367234169
1.3692190647125244,-0.021360158920288086,-0.08248863369226456,-0.26975828409194946,2.309051752090454,-1.6552221775054932,2.525559186935425,-0.0372396770808144,-0.44593410868146066,0.44060908489903183
1.3784990310668945,-0.10404369235038757,0.052402958273887634,-0.039907991886138916,2.1675519943237305,-1.2228983640670776,2.3863487243652344,-0.027571855047264462,-0.4588566298999221,0.4725182769792442
1.388563871383667,-0.21992573142051697,-0.04753431677818298,0.27729332447052,1.8187015056610107,-0.9120087623596191,2.266481637954712,-0.020069849878709283,-0.46899996214370937,0.5024125217104114
1.3988211154937744,-0.1671753227710724,-0.21670562028884888,0.5450921058654785,1.5089317560195923,-0.5216428637504578,2.114565134048462,-0.015290208628601847,-0.47562413100074497,0.5294728824952942
1.4085838794708252,-0.2010810673236847,-0.21317318081855774,0.6409482359886169,1.4781323671340942,-0.0950116291642189,2.146461248397827,-0.011910046773581815,-0.47853703094674976,0.5552579347429579
1.4186608791351318,-0.20372959971427917,-0.1407068520784378,0.6068007946014404,1.558029294013977,0.32455962896347046,2.0114924907684326,-0.008001257779720586,-0.4771151300489026,0.5806908315649046
1.428596019744873,-0.15675929188728333,-0.14497949182987213,0.5965367555618286,1.7328194379806519,0.7609564065933228,2.0277647972106934,-0.0025844928809770204,-0.47154711150880546,0.6061764245302131
1.4389331340789795,-0.14748215675354004,-0.12129753082990646,0.5720046162605286,1.7953685522079468,1.173500657081604,2.0412583351135254,0.004267046081429199,-0.46193010872852763,0.6324282818985484
1.4488880634307861,-0.14726608991622925,-0.08168522268533707,0.5622173547744751,1.7321701049804688,1.5039914846420288,2.101986885070801,0.011073176281025979,-0.44875667192605034,0.6588050043693124
1.4585869312286377,-0.14740702509880066,-0.139619842171669,0.6095684766769409,1.5988547801971436,1.8256067037582397,2.135920286178589,0.017378702211192202,-0.4325301336366005,0.6851799539172269
1.4686570167541504,-0.11236211657524109,-0.13581040501594543,0.572813093662262,1.3411921262741089,2.042137861251831,2.224168539047241,0.021982484310245416,-0.4135854635501498,0.7110962539007133
1.4786078929901123,-0.057136088609695435,-0.09297792613506317,0.5005710124969482,0.9656011462211609,2.2506680488586426,2.4025025367736816,0.023616672132512125,-0.39278131304575764,0.7369560849248352
1.489022970199585,-0.02147608995437622,-0.1309794783592224,0.4755699038505554,0.4827289879322052,2.4030678272247314,2.482248306274414,0.021259058919096487,-0.3699683114366578,0.7624558829103335
1.4988880157470703,-0.018234550952911377,-0.2309204638004303,0.4668484330177307,0.20288661122322083,2.4277448654174805,2.555126905441284,0.015463812175556476,-0.34624188545458906,0.7871228778842888
1.5087101459503174,0.033588796854019165,-0.2648981511592865,0.47004783153533936,0.18007290363311768,2.474238634109497,2.6894657611846924,0.00855470168726361,-0.32206787295369055,0.8125236173060598
1.5188019275665283,0.13508397340774536,-0.14742788672447205,0.3493371605873108,0.3172277808189392,2.501253366470337,2.8288581371307373,0.0025049682931154124,-0.2972811985456329,0.8395730014457673
1.5288441181182861,0.21606314182281494,-0.07939682900905609,0.13881731033325195,0.42190679907798767,2.5125367641448975,2.9291558265686035,-0.0019737416635356693,-0.27222406352273865,0.8683202376993845
1.5392389297485352,0.3423141837120056,-0.0022617708891630173,0.004150688648223877,0.34835830330848694,2.543222188949585,3.0229508876800537,-0.005725547819039923,-0.24680903000835813,0.8981696270680174
1.5488369464874268,0.38105979561805725,0.05790151655673981,-0.01926356554031372,0.04240185022354126,2.528542995452881,3.0489487648010254,-0.010778502513495916,-0.2211269961212346,0.9282305416214338
1.5587208271026611,0.3798106908798218,0.06501401215791702,0.024577975273132324,-0.3785589039325714,2.4914610385894775,3.067258358001709,-0.01875783811887943,-0.19554170676490024,0.9578830997949587
1.568828821182251,0.43616968393325806,0.08738848567008972,0.06988996267318726,-0.6898044347763062,2.403099536895752,3.082038164138794,-0.029711830389950254,-0.17031246220288007,0.9871568846126995
1.5786631107330322,0.5013453960418701,0.14409099519252777,0.05906623601913452,-0.9213609099388123,2.279935359954834,3.0637664794921875,-0.04258262715447835,-0.14579178872023363,1.0163311296595974
1.5887689590454102,0.5826070308685303,0.22319838404655457,-0.01162862777709961,-1.0058643817901611,2.1432783603668213,3.033350944519043,-0.05632661656448534,-0.12222798622031925,1.0453192875855792
1.5989458560943604,0.6325514912605286,0.2550521790981293,-0.07322943210601807,-0.993834912776947,2.0051050186157227,2.9681313037872314,-0.06972658818883148,-0.09958660141516518,1.0741724250358489
1.608820915222168,0.6206644773483276,0.2647295594215393,-0.1119227409362793,-0.8512540459632874,1.8663206100463867,2.8821797370910645,-0.08153689683366838,-0.0781259661512234,1.102561487318122
1.6190907955169678,0.6058389544487,0.2849254608154297,-0.11894369125366211,-0.7370736598968506,1.7724813222885132,2.7307608127593994,-0.09133059943096117,-0.05752629368565663,1.1302041541718952
1.628925085067749,0.6095924973487854,0.3482629656791687,-0.1450803279876709,-0.6569298505783081,1.6812713146209717,2.58461594581604,-0.09956377308087586,-0.03773627798828757,1.1565446340725196
1.638951063156128,0.5544824004173279,0.3474538028240204,-0.14484459161758423,-0.6222985982894897,1.5919735431671143,2.4101665019989014,-0.10660539938996144,-0.018777694797881554,1.1815390581952083
1.649158000946045,0.5148494243621826,0.34479132294654846,-0.10912537574768066,-0.5968443751335144,1.4933936595916748,2.220463991165161,-0.11295297058642571,-0.0007857701265242783,1.2048048748933873
1.658803939819336,0.4524494409561157,0.3221408426761627,-0.05311727523803711,-0.5086466670036316,1.3801769018173218,2.022258996963501,-0.11838203317114009,0.016078106431093586,1.2262037199745182
1.6688830852508545,0.39185982942581177,0.28571367263793945,-0.014494776725769043,-0.3237660229206085,1.2781400680541992,1.8367561101913452,-0.1221367197660422,0.03172163657610923,1.2457665203633366
1.6788508892059326,0.3544856011867523,0.26675349473953247,-0.024451375007629395,-0.08437242358922958,1.1879496574401855,1.664530873298645,-0.12348313966703027,0.04621220464790743,1.2634714261760518
1.6891670227050781,0.328011155128479,0.2479875385761261,-0.05965161323547363,0.12120071053504944,1.1011165380477905,1.510921835899353,-0.12245066924768715,0.05963170064192267,1.279446818861206
1.6997079849243164,0.27997228503227234,0.21482577919960022,-0.059860169887542725,0.31490546464920044,1.0551910400390625,1.3522746562957764,-0.11930405102459879,0.07211916676642773,1.2937034009173174
1.7090981006622314,0.21734079718589783,0.16483382880687714,-0.016377806663513184,0.477491170167923,1.034172773361206,1.211026906967163,-0.11429973968792072,0.08402591076288679,1.306260051496617
1.719674825668335,0.17434367537498474,0.1490265429019928,0.01604318618774414,0.5637588500976562,1.0329868793487549,1.1040823459625244,-0.10805000262121035,0.09558447343368402,1.317370576450897
1.7290198802947998,0.14427751302719116,0.12237627059221268,0.02876526117324829,0.6479842066764832,1.0590157508850098,1.0104063749313354,-0.1009088862073807,0.10708106522260498,1.3273346079700028
1.739858865737915,0.12324843555688858,0.08432218432426453,0.05699121952056885,0.680397629737854,1.0686686038970947,0.9459959268569946,-0.09319606252108852,0.1186321258568004,1.336332762469554
1.7494518756866455,0.10197198390960693,0.05281352251768112,0.06252551078796387,0.7675541043281555,1.0638504028320312,0.9163944125175476,-0.08487683129636972,0.13004702785767397,1.3447313335460858
1.759078025817871,0.09392231702804565,0.024752013385295868,0.05561220645904541,0.7700470089912415,1.032112717628479,0.8642948865890503,-0.07593738464543123,0.14122044654764823,1.3525265795349246
1.7691738605499268,0.08487533032894135,0.032563403248786926,0.03362005949020386,0.6584211587905884,0.9705606698989868,0.8007944822311401,-0.06761626048518812,0.1518008505922861,1.359793957037024
1.7789528369903564,0.08665984869003296,0.02610362321138382,0.017066001892089844,0.48493120074272156,0.8482773900032043,0.7031565308570862,-0.06072566576892678,0.1613601511558274,1.3663370284207281
1.7890198230743408,0.08487705886363983,0.04805057495832443,-0.02259296178817749,0.27903422713279724,0.6795807480812073,0.5841550230979919,-0.055906129998615474,0.16936869252893189,1.3721060417556916
1.799118995666504,0.09015786647796631,0.09619271755218506,-0.06319797039031982,0.052351370453834534,0.49326252937316895,0.43076908588409424,-0.05336872913630757,0.17551690041958268,1.3768399216170915
1.8089299201965332,0.07282659411430359,0.11254749447107315,-0.0728272795677185,-0.11324798315763474,0.32112085819244385,0.30953240394592285,-0.05311160310362669,0.17974993420830188,1.380553137361779
1.8190679550170898,0.0534532368183136,0.0934697836637497,-0.06020635366439819,-0.14596837759017944,0.22503454983234406,0.21221543848514557,-0.054017397875042485,0.18261187828227002,1.3833445190976215
1.8289248943328857,0.028276115655899048,0.06054229289293289,-0.05026066303253174,-0.07521325349807739,0.18228602409362793,0.1568658947944641,-0.0548263347286209,0.1847340143401896,1.3853372900888672
1.8390448093414307,0.01431053876876831,0.04251905530691147,-0.07836729288101196,0.03892770782113075,0.17494288086891174,0.14280040562152863,-0.05476781978696767,0.18657203845992446,1.3868561486739148
1.8491239547729492,0.014417663216590881,0.01131509244441986,-0.10026824474334717,0.14791357517242432,0.19888843595981598,0.138940691947937,-0.05354506646873992,0.1885033772494578,1.3880329408897991
1.8590660095214844,0.0039072781801223755,-0.005178898572921753,-0.08052527904510498,0.2213185429573059,0.22966578602790833,0.15220509469509125,-0.05146624147209031,0.19070432205854917,1.389102322850137
1.8700659275054932,-0.00217476487159729,-0.013148583471775055,-0.04537397623062134,0.25845658779144287,0.2520637512207031,0.15300802886486053,-0.0487513670363108,0.19319285828025784,1.3901473872568093
1.8789150714874268,0.002934202551841736,-0.013446416705846786,-0.03401297330856323,0.22366905212402344,0.25278493762016296,0.15381497144699097,-0.04607072477087611,0.19577069952744067,1.3912049385456324
1.8889479637145996,0.01679283380508423,-0.0025725141167640686,-0.048729002475738525,0.14860813319683075,0.22675788402557373,0.13439705967903137,-0.04392267522527499,0.1982397633501914,1.3922667240392566
1.899806022644043,0.023242458701133728,0.0007366463541984558,-0.05534029006958008,0.03856291621923447,0.16797064244747162,0.11084651947021484,-0.042733372062289214,0.20029103526830203,1.3932790209264232
1.9092538356781006,0.023671090602874756,0.005207661539316177,-0.06553566455841064,-0.0650596097111702,0.09048835933208466,0.08690017461776733,-0.04268735702757399,0.20161406284844618,1.3942905962850394
1.9194438457489014,0.024813160300254822,-0.003754962235689163,-0.05734109878540039,-0.10720638930797577,0.040751926600933075,0.06779545545578003,-0.04342618356124119,0.20229331198250264,1.3952138822921458
1.9321229457855225,0.015932977199554443,-0.0018612593412399292,-0.04088312387466431,-0.0715746209025383,0.036609381437301636,0.06343772262334824,-0.044203515727107234,0.20268968736430998,1.396033388458135
1.9393870830535889,0.01036188006401062,0.011850003153085709,-0.057625532150268555,-0.009068483486771584,0.05386661738157272,0.06236499547958374,-0.044484837869935276,0.20317732622280993,1.3967242059546985
1.9492928981781006,0.0028269141912460327,0.00825788825750351,-0.07495886087417603,0.07964220643043518,0.0829150453209877,0.06453121453523636,-0.044048206726669314,0.203872207529104,1.3972767271388211
1.9593470096588135,-0.0012585371732711792,-0.0036888979375362396,-0.06598353385925293,0.19150376319885254,0.12194696068763733,0.05027882754802704,-0.042581140723535894,0.20491568864114107,1.3975741134762578
1.9693138599395752,-0.013085409998893738,-0.002039611339569092,-0.04894739389419556,0.3047035336494446,0.1332281082868576,0.04600951448082924,-0.040044680745523455,0.2062055894997428,1.397525355258522
1.9793360233306885,-0.016919806599617004,-0.002865176647901535,-0.06158930063247681,0.40222612023353577,0.1200348511338234,0.04561488702893257,-0.03645782125492717,0.2074919279142903,1.397224076277386
1.9892818927764893,-0.004148513078689575,-0.00214405357837677,-0.07164889574050903,0.39070048928260803,0.08603454381227493,0.029034579172730446,-0.03242315612700134,0.20853961810688665,1.3967700304830777
1.9993419647216797,-0.004180148243904114,-0.003427645191550255,-0.058393239974975586,0.28318727016448975,0.013804906979203224,0.013704304583370686,-0.02905121890148782,0.20904935447526307,1.3962680483250465
2.0093250274658203,-0.003063872456550598,-0.019333774223923683,-0.03440481424331665,0.17166872322559357,-0.05541064962744713,-0.009155204519629478,-0.026859572225510858,0.20881547847719864,1.3957967918352698
2.019315004348755,0.009369149804115295,-0.01624148339033127,-0.014523923397064209,0.07298407703638077,-0.0989178717136383,-0.012303859926760197,-0.025750537132806756,0.20800095168678912,1.3954326790858296
2.02947998046875,0.01380854845046997,-0.0014270376414060593,-0.0004444122314453125,-0.002631855895742774,-0.09762730449438095,-0.017849626019597054,-0.025508153939038863,0.2069399134898971,1.3952253042689817
2.0393619537353516,0.012025371193885803,-0.008035417646169662,0.023594915866851807,-0.07178449630737305,-0.07441261410713196,-0.01056209858506918,-0.02593686904202275,0.206035546242528,1.3951411255299455
2.0493810176849365,0.01008787751197815,-0.018135707825422287,0.02463632822036743,-0.09370577335357666,-0.057354267686605453,-0.0034589157439768314,-0.02682115500480188,0.20530716561898557,1.3952430460351921
2.059480905532837,0.02110716700553894,-0.017818419262766838,0.008552968502044678,-0.0741758793592453,-0.049826398491859436,-0.006841236725449562,-0.027694375150302816,0.20467041394499091,1.3953709643035472
2.069530963897705,0.020520150661468506,-0.0053303297609090805,0.014433026313781738,-0.058012887835502625,-0.052229635417461395,-0.018118925392627716,-0.028344361129114617,0.20410472215751843,1.3953807424713296
2.0817348957061768,0.014375820755958557,-0.0010355710983276367,0.019900202751159668,-0.04866870492696762,-0.07522190362215042,-0.04207959771156311,-0.028902122953652767,0.2034015116782682,1.3952010896401035
2.0895450115203857,0.0177994966506958,-0.004298795014619827,0.020253479480743408,-0.04968203976750374,-0.11193464696407318,-0.08538898825645447,-0.029357924391022736,0.2024165462466366,1.3946802329882257
2.099271059036255,0.023764073848724365,-0.00045290030539035797,0.016146838665008545,-0.040726326406002045,-0.1526237428188324,-0.1305236518383026,-0.029906798250664557,0.20112824601179838,1.3937216564304253
2.109419107437134,0.027034282684326172,0.01699257828295231,0.0026845932006835938,-0.006122278049588203,-0.18111291527748108,-0.17309987545013428,-0.03042114955258271,0.19953760095305312,1.3922822239570896
2.1194119453430176,0.023062005639076233,0.029736943542957306,0.005447030067443848,0.041080936789512634,-0.18744072318077087,-0.20950326323509216,-0.030540001035449064,0.19781490833159546,1.390378600650275
2.1310250759124756,0.013342931866645813,0.015776367858052254,0.02497178316116333,0.07126706838607788,-0.19775141775608063,-0.23850668966770172,-0.030233466268658568,0.19602208991800962,1.3880748388278257
2.139425039291382,0.022852078080177307,0.0036619585007429123,0.017120301723480225,0.07537096738815308,-0.2246527075767517,-0.27292829751968384,-0.029789690515060533,0.19416472364586362,1.3854398155962009
2.149432897567749,0.03960828483104706,0.014778044074773788,0.0036026835441589355,0.06950961798429489,-0.2638712525367737,-0.3200579881668091,-0.02958355472974541,0.1922792873686398,1.3824175618977799
2.1593899726867676,0.04249890148639679,0.03164073824882507,0.004634082317352295,0.05900755524635315,-0.32178187370300293,-0.37009695172309875,-0.02962762068119998,0.1898937987184019,1.378918518777222
2.1696150302886963,0.041334375739097595,0.033549483865499496,0.0016629695892333984,0.03643966093659401,-0.39764469861984253,-0.4277794361114502,-0.029855201462065616,0.18690070683856203,1.3749377941912932
2.1814749240875244,0.04735623300075531,0.02464933879673481,-0.019523262977600098,-0.013826786540448666,-0.4799969792366028,-0.5060702562332153,-0.030638027954007156,0.18324528866633952,1.3703500933976591
2.189573049545288,0.05804245173931122,0.02982281893491745,-0.04508405923843384,-0.08818890154361725,-0.5710195302963257,-0.6034830808639526,-0.03211810950385808,0.1778171227243107,1.3649947380914431
2.1996660232543945,0.07075652480125427,0.04745015129446983,-0.05390244722366333,-0.18707256019115448,-0.6785933375358582,-0.7298938632011414,-0.03460324499112684,0.1713634476876013,1.3586682156979033
2.2095930576324463,0.09056250751018524,0.0747239962220192,-0.055596768856048584,-0.2981833815574646,-0.8006441593170166,-0.8811440467834473,-0.03835301858212413,0.1636900773775318,1.3511320984880162
2.2196171283721924,0.12073391675949097,0.09350600838661194,-0.05663275718688965,-0.3583517074584961,-0.9281505942344666,-1.0493131875991821,-0.04316508593400122,0.15465300821523703,1.3421093884025246
2.2314798831939697,0.15228112041950226,0.09797857701778412,-0.044953882694244385,-0.362580269575119,-1.0433835983276367,-1.2302781343460083,-0.04844843581803314,0.14428616767287963,1.3313605048316923
2.2397921085357666,0.1757250726222992,0.10923174768686295,-0.03512454032897949,-0.3468819856643677,-1.1462385654449463,-1.4211034774780273,-0.053803834300545306,0.13267077620230147,1.318692035625762
2.2499380111694336,0.20042642951011658,0.12303440272808075,-0.028551816940307617,-0.33448126912117004,-1.2335923910140991,-1.627647876739502,-0.059098367159166956,0.1199090369524086,1.3039718858253897
2.259722948074341,0.22141212224960327,0.14124248921871185,-0.02442765235900879,-0.3436668813228607,-1.3008882999420166,-1.8585649728775024,-0.06439891704584988,0.10613986358314006,1.2870023941152346
2.2697110176086426,0.24291816353797913,0.17052994668483734,-0.03344088792800903,-0.3170882761478424,-1.3652538061141968,-2.0638022422790527,-0.06968450096768243,0.09150721580848693,1.267694170394843
2.280888795852661,0.2694343328475952,0.1745724380016327,-0.0639992356300354,-0.2717045247554779,-1.4195752143859863,-2.2355778217315674,-0.07444342265880972,0.07601830023428545,1.2464416618129883
2.2900288105010986,0.30596622824668884,0.17364150285720825,-0.09724819660186768,-0.21990789473056793,-1.4739006757736206,-2.388375759124756,-0.07843777573384762,0.059792713490385736,1.2234218082737889
2.3001677989959717,0.336844265460968,0.18034908175468445,-0.10696005821228027,-0.14344681799411774,-1.5320442914962769,-2.516847848892212,-0.08158218566026616,0.04278186990649069,1.1988870341546978
2.309851884841919,0.3878559470176697,0.1804647445678711,-0.12586963176727295,-0.03856433928012848,-1.5881227254867554,-2.632354736328125,-0.08334936393112741,0.02504489841826581,1.1730706471737236
2.320668935775757,0.4375005066394806,0.18378132581710815,-0.13187813758850098,0.016698116436600685,-1.641517996788025,-2.763829231262207,-0.08386452624082469,0.0066299253797519565,1.1459678266112245
2.3328230381011963,0.457276314496994,0.18157024681568146,-0.08014112710952759,0.05619412660598755,-1.6791317462921143,-2.8882884979248047,-0.08346496467080361,-0.01235806442354634,1.1175674911077287
2.340420961380005,0.44937095046043396,0.175216943025589,-0.03614199161529541,0.12115790694952011,-1.6794981956481934,-2.9909703731536865,-0.08197014397930955,-0.031574435585659325,1.0880605396463572
2.3502628803253174,0.4272584915161133,0.18637147545814514,-0.01599520444869995,0.21209660172462463,-1.6226154565811157,-3.09568452835083,-0.07909181071238,-0.0505304987592552,1.057614946267634
2.3598639965057373,0.3984639048576355,0.21245455741882324,-0.011550307273864746,0.2881365120410919,-1.5301443338394165,-3.2056262493133545,-0.07477023272824225,-0.06863122335966924,1.0261654060396324
2.370854139328003,0.38997018337249756,0.24120010435581207,-0.024824559688568115,0.3695264458656311,-1.4207630157470703,-3.272299289703369,-0.06908125444528253,-0.08563705634204023,0.9939837708706815
2.3818700313568115,0.39035332202911377,0.23211820423603058,-0.016532182693481445,0.43521228432655334,-1.2729791402816772,-3.32222056388855,-0.06201943552996596,-0.1011691578705805,0.9614368139493081
2.3899481296539307,0.378734290599823,0.2152271419763565,-0.002222716808319092,0.43399468064308167,-1.1508833169937134,-3.3765645027160645,-0.054132169215859026,-0.11505697273611498,0.9285074410212454
2.4002068042755127,0.36751049757003784,0.20928052067756653,0.008563637733459473,0.40040522813796997,-1.087733268737793,-3.3886513710021973,-0.045923604931466695,-0.1277730751024904,0.8953584934227908
2.4097530841827393,0.37741944193840027,0.16817522048950195,0.01197671890258789,0.2978801727294922,-1.0341382026672363,-3.403770923614502,-0.03799541570952418,-0.13967710248173176,0.862103057621889
2.419832944869995,0.3660591244697571,0.10849794745445251,0.012723326683044434,0.21364648640155792,-0.9795346260070801,-3.411316156387329,-0.030621216240154216,-0.15080381688707561,0.8287049229199467
2.4314911365509033,0.3256204128265381,0.06603308767080307,0.04035782814025879,0.18774297833442688,-0.9439420104026794,-3.418549060821533,-0.02346186670618471,-0.1612625253252102,0.7952090080079947
2.4398958683013916,0.29194557666778564,0.051473114639520645,0.06548595428466797,0.24252600967884064,-0.8828158974647522,-3.3985841274261475,-0.01583406947183212,-0.17103434571590823,0.7618473188792039
2.4499471187591553,0.2552291750907898,0.04960149899125099,0.10994935035705566,0.3040444850921631,-0.8122852444648743,-3.398555278778076,-0.007069707442601146,-0.17990858994839412,0.7288976432026414
2.4599359035491943,0.19763252139091492,0.08972880989313126,0.18366676568984985,0.2684651017189026,-0.6747793555259705,-3.387152671813965,0.0018839522991516836,-0.18737477155639756,0.69596618398005
2.469871997833252,0.14359351992607117,0.16988472640514374,0.2618100643157959,0.15454334020614624,-0.5580112338066101,-3.3306496143341064,0.01043056224895686,-0.1933755859839923,0.6633658095871232
2.4819538593292236,0.1105072945356369,0.10334163904190063,0.2768628001213074,-0.16180144250392914,-0.4167376458644867,-3.2715463638305664,0.01690138986538142,-0.19775929318260732,0.6309554551894568
2.4900009632110596,0.10886251926422119,0.022233285009860992,0.2606067657470703,-0.42851778864860535,-0.3831671476364136,-3.210555076599121,0.020327326008029487,-0.20109183974977315,0.5985335180780529
2.499901056289673,0.1378425657749176,-0.05440376698970795,0.2751814126968384,-0.6472036242485046,-0.32239341735839844,-3.159672975540161,0.021464563134307,-0.20399840502329136,0.5662357659698705
2.509874105453491,0.1414143145084381,-0.14292439818382263,0.25896066427230835,-0.9305764436721802,-0.1717599779367447,-3.118774890899658,0.020117098804976478,-0.20578645814990235,0.533843172646571
2.519940137863159,0.10644891858100891,-0.13700057566165924,0.21827369928359985,-1.0585412979125977,-0.06672513484954834,-3.0455923080444336,0.016549355123219398,-0.2063575635265784,0.5015469785344688
2.5310781002044678,0.08584190905094147,-0.12180516123771667,0.1870734691619873,-1.0142465829849243,0.006866795476526022,-2.9225144386291504,0.012350408974736351,-0.20618115294923497,0.4700944756182315
2.5399389266967773,0.09093844890594482,-0.12398532778024673,0.1464279294013977,-0.7445890307426453,0.05800295248627663,-2.7664449214935303,0.009529205130553199,-0.2054888978899364,0.4404526750061163
2.549988031387329,0.09012813866138458,-0.1530779004096985,0.09065139293670654,-0.5585821270942688,0.11152583360671997,-2.6881744861602783,0.008756908040888852,-0.20442596823607725,0.41242009324615847
2.5599539279937744,0.04019021987915039,-0.19645941257476807,0.06806778907775879,-0.43428659439086914,0.21076804399490356,-2.612647771835327,0.009305469291584675,-0.20259265514795505,0.3854382695635348
2.570173978805542,-0.029067128896713257,-0.19437867403030396,0.0932430624961853,-0.5061765313148499,0.32102715969085693,-2.549147605895996,0.009951921652345345,-0.19966843938702178,0.35918803905893704
2.5817110538482666,-0.0638408362865448,-0.17968951165676117,0.13170909881591797,-0.642471969127655,0.4058542847633362,-2.474564790725708,0.009260196875793351,-0.19574641705712398,0.33340845869400254
2.590265989303589,-0.05802364647388458,-0.17635634541511536,0.22175347805023193,-0.8683594465255737,0.46969956159591675,-2.4133403301239014,0.00661181404116011,-0.19115890623075063,0.3079210622408261
2.600005865097046,-0.0423232764005661,-0.18510377407073975,0.2853836417198181,-1.117593765258789,0.4636801481246948,-2.3770453929901123,0.00126706632339314,-0.18638471582893593,0.2825810766217142
2.6099441051483154,-0.02089013159275055,-0.14064940810203552,0.29417985677719116,-1.2350926399230957,0.5118511319160461,-2.31646466255188,-0.0061432386521730505,-0.1814934708745172,0.2572898532002382
2.620076894760132,-0.013608098030090332,-0.149112269282341,0.2614966630935669,-1.2063101530075073,0.5605766177177429,-2.2262871265411377,-0.01413350815888312,-0.17640985724956348,0.23271831976567683
2.6308629512786865,-0.01617872714996338,-0.17444562911987305,0.16138815879821777,-1.0853853225708008,0.6180657148361206,-2.1473374366760254,-0.021737398915989078,-0.17092598944102833,0.20916051565502222
2.640014886856079,-0.019506394863128662,-0.18336644768714905,0.07797282934188843,-0.8948702216148376,0.6848675608634949,-2.085214614868164,-0.027898279402979974,-0.16497484217301775,0.1866506355061043
2.650068998336792,-0.021889984607696533,-0.18471936881542206,0.021637797355651855,-0.7977215647697449,0.7710362672805786,-2.029787063598633,-0.03299196983280997,-0.15833033172455346,0.16491301336121253
2.660022020339966,-0.027068331837654114,-0.13944512605667114,0.0008448362350463867,-0.701626718044281,0.8485711812973022,-1.9639862775802612,-0.03726566371507747,-0.15099257660971713,0.14400888139466667
2.6703670024871826,-0.04035745561122894,-0.10946296155452728,0.04012352228164673,-0.683921754360199,0.9402579665184021,-1.8667020797729492,-0.04131372195073009,-0.14280498738370648,0.12397312037567113
2.682554006576538,-0.05083581805229187,-0.1049165278673172,0.11130392551422119,-0.7065703272819519,0.9867984056472778,-1.7266333103179932,-0.04568255580229784,-0.13392276685206228,0.10517173382801025
2.6903200149536133,-0.04518254101276398,-0.12442950904369354,0.18424761295318604,-0.7283768653869629,0.9731011986732483,-1.5515975952148438,-0.05075136509221305,-0.12488837794950462,0.08794096834778536
2.7002129554748535,-0.01207008957862854,-0.1530279815196991,0.1702178716659546,-0.7558094263076782,0.9066845774650574,-1.409703016281128,-0.056286474703892204,-0.11627459101005914,0.07235323269019492
2.7101190090179443,0.04053783416748047,-0.21108996868133545,0.07354646921157837,-0.6974079012870789,0.7528536915779114,-1.2864160537719727,-0.062143151990522394,-0.10877175946558636,0.058059805770639954
2.720209836959839,0.07518705725669861,-0.2789168357849121,-0.04998636245727539,-0.589770495891571,0.5940115451812744,-1.1549738645553589,-0.06725183057027131,-0.10288331151522813,0.04520643316630726
2.731117010116577,0.09284980595111847,-0.32296475768089294,-0.19820475578308105,-0.4222707152366638,0.4644724726676941,-1.034164309501648,-0.0712397479065631,-0.09841525873451863,0.03376961312001054
2.740173101425171,0.077608123421669,-0.31963008642196655,-0.2857000231742859,-0.2981488108634949,0.42859527468681335,-0.9201236963272095,-0.07386288195328299,-0.09471588786827737,0.02363115283064944
2.7502830028533936,0.03399842232465744,-0.31981807947158813,-0.3129968047142029,-0.17143267393112183,0.40605586767196655,-0.7724878787994385,-0.07538263669379604,-0.09117644800812079,0.014943644264030201
2.760260820388794,-0.005858629941940308,-0.3240586221218109,-0.2744016647338867,-0.1493111252784729,0.33921897411346436,-0.6129454374313354,-0.07628409730457102,-0.08795498898581683,0.007880051676150237
2.770397901535034,-0.012544304132461548,-0.29271745681762695,-0.18862688541412354,-0.20384681224822998,0.23217080533504486,-0.4640771448612213,-0.07757002152087177,-0.08551873523094616,0.0023392529836537843
2.7816009521484375,0.003163345158100128,-0.24354487657546997,-0.09041225910186768,-0.3036726117134094,0.10302941501140594,-0.3174838423728943,-0.07970407659405548,-0.08415691719580806,-0.0017765456055333054
2.7903189659118652,0.016219697892665863,-0.2531602680683136,-0.022383451461791992,-0.5337337851524353,-0.005796401761472225,-0.20137082040309906,-0.08362575743809073,-0.08393292955416871,-0.004712455721720031
2.8003628253936768,0.018115773797035217,-0.26409777998924255,-0.005802035331726074,-0.7876549959182739,-0.05486505478620529,-0.10684991627931595,-0.09007096565056141,-0.0844454291207704,-0.006813731931430817
2.810331106185913,0.00786495953798294,-0.26735129952430725,-0.026521801948547363,-1.01023530960083,-0.08491989970207214,-0.027742045000195503,-0.09904085017692632,-0.0852746665439543,-0.008232736183709262
2.8205199241638184,0.0009425729513168335,-0.25820523500442505,-0.0707135796546936,-1.1187163591384888,-0.12204950302839279,0.006708074361085892,-0.10974376410977775,-0.08640806694022547,-0.009239318813140189
2.8322408199310303,0.005542926490306854,-0.23317092657089233,-0.12489402294158936,-1.094192624092102,-0.1403004229068756,0.003471801057457924,-0.12087044163493237,-0.08785425093509655,-0.010152755347324375
2.8403189182281494,0.008107133209705353,-0.1947626918554306,-0.16696035861968994,-0.9075286388397217,-0.1221214160323143,-0.0011040421668440104,-0.13094284751694416,-0.08929616576503328,-0.011030594755178052
2.850619077682495,0.003001682460308075,-0.13536778092384338,-0.18874210119247437,-0.662880539894104,-0.08528643101453781,-0.018980510532855988,-0.13878839858882877,-0.09043430967427235,-0.011842843165193831
2.8602089881896973,-0.00844978541135788,-0.08268661797046661,-0.1898224949836731,-0.4097052812576294,-0.06970854103565216,-0.04096117615699768,-0.14408246214558842,-0.09130029856844847,-0.012630868450968039
2.870239019393921,-0.015120714902877808,-0.06214459240436554,-0.15681171417236328,-0.2003568708896637,-0.07196930050849915,-0.05907439813017845,-0.147008880898526,-0.09212669639266081,-0.013420929224094472
2.8811161518096924,-0.019363783299922943,-0.06457273662090302,-0.10702186822891235,-0.09918604046106339,-0.05543319880962372,-0.04945452883839607,-0.14841472782720888,-0.09287312962942884,-0.014129245278653163
2.890281915664673,-0.0219748392701149,-0.05614648759365082,-0.07435429096221924,-0.10448519885540009,-0.01826026290655136,-0.03462578356266022,-0.14927534432729603,-0.0933327521587482,-0.014630447532361965
2.9003989696502686,-0.02126394957304001,-0.07076478004455566,-0.05222445726394653,-0.19519390165805817,0.007200445048511028,-0.03382241353392601,-0.15072632225234645,-0.09342441634614705,-0.015099021966506688
2.910309076309204,-0.020209789276123047,-0.12152928113937378,-0.03062194585800171,-0.3193110525608063,-0.0039131916128098965,-0.056471534073352814,-0.1532410128986644,-0.09349285663066073,-0.015785722221939486
2.920501947402954,-0.014336615800857544,-0.16940297186374664,-0.004156053066253662,-0.4378626346588135,0.00027973297983407974,-0.08280620723962784,-0.15693911948826825,-0.09370076469764657,-0.016849046072807985
2.9321699142456055,-0.012762926518917084,-0.17824971675872803,0.010244250297546387,-0.5199958682060242,0.03358256071805954,-0.09030885994434357,-0.16166480197374114,-0.09375868948122222,-0.018196185745167518
2.9404449462890625,-0.020592115819454193,-0.16774098575115204,0.010933876037597656,-0.5301885008811951,0.06850259006023407,-0.08165416866540909,-0.16688182417188116,-0.0934500447798515,-0.019576657790028977
2.9504940509796143,-0.029276207089424133,-0.1690656542778015,0.0060904622077941895,-0.4806683361530304,0.08814473450183868,-0.07216852158308029,-0.17187908344169464,-0.09285945661129665,-0.02083159597308239
2.960426092147827,-0.03142791986465454,-0.16053739190101624,0.0012519359588623047,-0.3874805271625519,0.09816678613424301,-0.05805142596364021,-0.1761720241885232,-0.09212014482330655,-0.02191345347405575
2.9705488681793213,-0.029822491109371185,-0.123503178358078,-0.0015864968299865723,-0.2725451588630676,0.1153939813375473,-0.024845270439982414,-0.17942653193215433,-0.09118083101252644,-0.022657003118940595
2.9811909198760986,-0.03275474160909653,-0.08820450305938721,-0.011780083179473877,-0.16994580626487732,0.12719734013080597,0.012541729025542736,-0.18163940473120513,-0.09000007716907782,-0.022932963320180303
2.9906270503997803,-0.03678957372903824,-0.0733371376991272,-0.02537989616394043,-0.0874575823545456,0.13287705183029175,0.04551246389746666,-0.1829062941642229,-0.08865904515133494,-0.022744562857108006
3.0005879402160645,-0.03594455122947693,-0.06897802650928497,-0.03416329622268677,-0.05099126324057579,0.1261465847492218,0.05832333117723465,-0.18362515226088102,-0.08725903392516417,-0.022270756451160625
3.0104877948760986,-0.031184189021587372,-0.06649118661880493,-0.038899242877960205,-0.014514481648802757,0.11362732946872711,0.06117131561040878,-0.18401351887635548,-0.08595631356088546,-0.021682948411503755
3.020561933517456,-0.03298467397689819,-0.07089067995548248,-0.03573828935623169,0.02647058665752411,0.1141006201505661,0.059248194098472595,-0.18398752537085422,-0.08470975168273327,-0.021061429782011042
3.0311810970306396,-0.036879293620586395,-0.060271233320236206,-0.04750734567642212,0.08347342163324356,0.11836114525794983,0.05321693420410156,-0.18350707580089337,-0.08342138155561114,-0.020435186681131288
3.0405328273773193,-0.03125434368848801,-0.031747788190841675,-0.05662965774536133,0.11381024867296219,0.10979747772216797,0.03098374605178833,-0.18254011103242312,-0.0821707271746819,-0.019923131129740184
3.050532102584839,-0.019944489002227783,-0.018317237496376038,-0.06068629026412964,0.1436096876859665,0.06726893037557602,0.00036085612373426557,-0.18126503709550645,-0.081205115587971,-0.019653996354194826
3.060532808303833,-0.0054058656096458435,-0.019786149263381958,-0.05493372678756714,0.14730487763881683,0.027663864195346832,-0.032060518860816956,-0.1797646333543912,-0.08074410301569515,-0.019696286420858005
3.0706419944763184,0.0035200342535972595,-0.02170179784297943,-0.054936349391937256,0.1050567552447319,0.005519147031009197,-0.05639728531241417,-0.17845499077284066,-0.08063108203011385,-0.020043576671431588
3.082036018371582,0.007462851703166962,-0.013358205556869507,-0.05394190549850464,0.03563079610466957,-0.0199324619024992,-0.0723891407251358,-0.1776672818903029,-0.08081242458974094,-0.020649197219861193
3.09070086479187,0.005935013294219971,-0.021056339144706726,-0.03907656669616699,-0.041488755494356155,-0.042663343250751495,-0.07632369548082352,-0.1774115712015931,-0.08133553121732778,-0.021430979284797307
3.1018688678741455,0.0034506097435951233,-0.02914676070213318,-0.023774921894073486,-0.10652802884578705,-0.06398899853229523,-0.07687550038099289,-0.17775595155071214,-0.08213670446724985,-0.022284512387987343
3.1105988025665283,0.006658606231212616,-0.027925759553909302,-0.015419542789459229,-0.15285052359104156,-0.07799456268548965,-0.07645871490240097,-0.17860836791010895,-0.08317993122103129,-0.02319477473564694
3.120680093765259,0.009031891822814941,-0.02479018270969391,-0.013602674007415771,-0.1500212699174881,-0.07778684049844742,-0.07750044018030167,-0.1798102858855105,-0.08428030010632738,-0.02412522839113823
3.13146710395813,0.0075180307030677795,-0.029491394758224487,-0.014666557312011719,-0.11701938509941101,-0.06888522207736969,-0.07400477677583694,-0.18088202723483976,-0.08522756627237725,-0.025031190391932266
3.140704870223999,0.008023582398891449,-0.019237935543060303,-0.02474510669708252,-0.07841422408819199,-0.060014013200998306,-0.06842156499624252,-0.18159607204827288,-0.0859726346486458,-0.025829712837997905
3.150667905807495,0.015437662601470947,0.0005532056093215942,-0.024640202522277832,-0.022361600771546364,-0.05732768028974533,-0.0581609345972538,-0.18182828452202038,-0.08658190816486934,-0.02650026972655525
3.1606109142303467,0.01669216901063919,-0.0008422881364822388,-0.015171706676483154,0.029507355764508247,-0.04880227893590927,-0.04767591133713722,-0.18154057559554976,-0.08709455568249481,-0.02701956368537787
3.1707379817962646,0.01554618775844574,-0.007505521178245544,-0.012220025062561035,0.07356642186641693,-0.03538341075181961,-0.03472176566720009,-0.18072899958045158,-0.08746924654968162,-0.027371958916388574
3.1817049980163574,0.017599493265151978,0.005208373069763184,-0.011643946170806885,0.08663587272167206,-0.03174193948507309,-0.02537342719733715,-0.17959340654028413,-0.08774013973921473,-0.027584938716641604
3.190798044204712,0.021304592490196228,0.010521158576011658,-0.005496084690093994,0.08179318159818649,-0.04143424704670906,-0.007951561361551285,-0.1784431324295639,-0.08799915776729746,-0.027652748341997435
3.200895071029663,0.023678146302700043,-0.0005363523960113525,0.011854231357574463,0.060755036771297455,-0.04806889221072197,-0.0003388094191905111,-0.17743018600997384,-0.0882873861306907,-0.027605858403984516
3.2107889652252197,0.023571640253067017,-0.01061578094959259,0.02694880962371826,0.047826189547777176,-0.04943429306149483,0.010350852273404598,-0.1764004129839668,-0.08856704297914786,-0.02746608433823755
3.2207889556884766,0.024240486323833466,-0.004128217697143555,0.028910279273986816,0.020586365833878517,-0.0472099743783474,0.018472854048013687,-0.17565390231283717,-0.08873935578984497,-0.027235137048736955
3.231458902359009,0.026299484074115753,0.004858240485191345,0.030725955963134766,-0.0012190656270831823,-0.052192218601703644,0.02136984094977379,-0.17560839602134296,-0.08883103338652935,-0.026961428668396528
3.24064302444458,0.02454274147748947,-0.004050984978675842,0.035195231437683105,-0.018917519599199295,-0.04771389067173004,0.01583201065659523,-0.1757459078724744,-0.08892455185197716,-0.02671128338807686
3.250805139541626,0.020545125007629395,-0.011367306113243103,0.03451192378997803,-0.03363388031721115,-0.028072014451026917,0.02089148387312889,-0.1759083764959426,-0.08891175452622226,-0.026491262808521276
3.2609360218048096,0.01823851466178894,-0.0031924694776535034,0.023558497428894043,-0.06143338605761528,-0.02013002336025238,0.028789566829800606,-0.17651675271110717,-0.08871653103818207,-0.026207050124715605
3.2711470127105713,0.020026318728923798,-0.0015902072191238403,0.01719576120376587,-0.09822814911603928,-0.03276032954454422,0.029807960614562035,-0.17758626435350464,-0.08848712034393401,-0.025906369182443913
3.2817418575286865,0.020664438605308533,-0.014783516526222229,0.021018028259277344,-0.12493868172168732,-0.03861675411462784,0.03680834546685219,-0.1787434443070231,-0.0883315617611525,-0.025580540881878586
3.2909669876098633,0.015749424695968628,-0.024464324116706848,0.028709769248962402,-0.13644646108150482,-0.027695132419466972,0.043164245784282684,-0.17989781866875446,-0.08823939083166789,-0.025222037434746884
3.3010928630828857,0.008391797542572021,-0.01613427698612213,0.029134631156921387,-0.14224910736083984,-0.013893522322177887,0.05216173827648163,-0.18126406973211573,-0.08808719412175472,-0.024812446380900577
3.3110389709472656,0.004606433212757111,-0.00856664776802063,0.02752608060836792,-0.13367372751235962,-0.010286003351211548,0.06018877029418945,-0.18275426528775424,-0.08787655719521388,-0.024315910535430182
3.321605920791626,0.0021920353174209595,-0.011354193091392517,0.03151220083236694,-0.11699218302965164,-0.006857449654489756,0.06903158873319626,-0.18400638624434965,-0.08767529221365251,-0.023739268059199833
3.332350015640259,0.0007545799016952515,-0.00822940468788147,0.030289292335510254,-0.08642894774675369,0.007278076373040676,0.07656779885292053,-0.1849720885744173,-0.08742302642919945,-0.023069788230349088
3.3409879207611084,0.0020926818251609802,0.006458446383476257,0.023227989673614502,-0.04516629874706268,0.021485241129994392,0.07844383269548416,-0.18563061438297748,-0.08703946856414252,-0.022328183961687727
3.351062059402466,0.0019966065883636475,0.01336294412612915,0.01316976547241211,-0.022005055099725723,0.036540091037750244,0.077848881483078,-0.18598004447239253,-0.08649509677657015,-0.021537829971582097
3.3609731197357178,0.000591665506362915,0.016545593738555908,0.004347562789916992,0.010880607180297375,0.043156225234270096,0.08108974248170853,-0.1859710750028343,-0.08582367422631361,-0.02071058330436778
3.371256113052368,0.00269867479801178,0.019161134958267212,0.0018364787101745605,0.028280101716518402,0.05419369786977768,0.07788649201393127,-0.18560757949959472,-0.08508674127652396,-0.01985787607987092
3.3816978931427,-0.00022665411233901978,0.018146604299545288,-0.004056870937347412,0.032271116971969604,0.05842972174286842,0.06788605451583862,-0.18521148653979524,-0.08435257886147808,-0.01907882835026066
3.3910069465637207,-0.0018716305494308472,0.01724933087825775,-0.004503488540649414,0.012232694774866104,0.05672396719455719,0.055429913103580475,-0.18496007987593613,-0.08366619637748289,-0.018438059899676933
3.4010097980499268,-0.005216836929321289,0.014024123549461365,-0.002826869487762451,-0.010516810230910778,0.05264999717473984,0.047833673655986786,-0.18490366096380262,-0.0830697544033673,-0.017918396417316206
