timestamp,accel_x,accel_y,accel_z,rotation_x,rotation_y,rotation_z, pitch,roll,yaw
0.04545021057128906,0.0010895729064941406,0.02202446758747101,0.01112377643585205,0.014564059674739838,-0.00926615484058857,-0.011622177436947823,0.16668571568698065,0.15215614826980312,-0.012734979610450914
0.05333518981933594,0.0007578730583190918,0.023068800568580627,0.009374916553497314,0.013443583622574806,-0.007363281678408384,-0.012955249287188053,0.1668008586705199,0.1520923778689554,-0.012879134569088877
0.06526017189025879,0.0011475831270217896,0.02449887990951538,0.006387889385223389,0.013622548431158066,-0.006562469061464071,-0.013665781356394291,0.16690487711571364,0.1520553181569683,-0.013034389960116605
0.07333517074584961,0.0020916908979415894,0.021901726722717285,0.006033957004547119,0.016638178378343582,-0.00263448478654027,-0.013459545560181141,0.1670254708909996,0.1520447680373377,-0.013198732701639751
0.07531619071960449,0.001617535948753357,0.022034719586372375,0.004602372646331787,0.017873352393507957,0.00184149038977921,-0.009670133702456951,0.16717580154783598,0.152065454213283,-0.013342078283652413
0.08127617835998535,0.002393484115600586,0.022472694516181946,0.004286825656890869,0.016642339527606964,-0.003928159363567829,-0.01074163056910038,0.1673259495426785,0.15207164511991433,-0.013472064337813916
0.0895700454711914,0.0056214481592178345,0.020367681980133057,0.005985736846923828,0.008984420448541641,-0.009387905709445477,-0.00848247017711401,0.16743499172645265,0.15201892015800963,-0.013581306804664997
0.09946203231811523,0.0050400495529174805,0.019948139786720276,0.007018148899078369,-0.004689364228397608,-0.008521534502506256,-0.006270981393754482,0.16744281337265352,0.15194246708476933,-0.013666552478743122
0.10951423645019531,0.004639074206352234,0.01785929501056671,0.006253719329833984,-0.012410134077072144,-0.007302606012672186,-0.0020647847559303045,0.1673361142258452,0.1518657979694213,-0.013697650133794516
0.11961698532104492,0.002782389521598816,0.017064034938812256,0.0060152411460876465,-0.013032814487814903,-0.010472655296325684,-0.0013717769179493189,0.16719501107149531,0.151778855428784,-0.013696599870669016
0.12949323654174805,0.0046190619468688965,0.021798133850097656,0.005699038505554199,-0.0039607565850019455,-0.011362152174115181,0.0003707293653860688,0.16709063372924277,0.15166081786001437,-0.013684005680290797
0.1396012306213379,0.004054844379425049,0.02440042793750763,0.000834047794342041,2.9807211831212044e-05,-0.008286777883768082,-0.0005724024376831949,0.1670680884909215,0.1515659451096164,-0.01368575840060627
0.14966416358947754,0.0020266175270080566,0.024195611476898193,-8.636713027954102e-05,0.0024783173575997353,-0.009091850370168686,-0.0007252678624354303,0.1670770294636551,0.15148669399927947,-0.013689312293795214
0.15951204299926758,0.0024102330207824707,0.02084524929523468,0.004392683506011963,0.003931837622076273,-0.008860067464411259,-0.000846708077006042,0.16709916370006528,0.15140679933302756,-0.013707391484964386
0.16980314254760742,0.0009162425994873047,0.02242755889892578,0.0055474042892456055,-0.0017604029271751642,-0.005674127489328384,-0.00797945261001587,0.16709448666122245,0.15134265960315302,-0.013759138091126019
0.17975330352783203,0.00032570958137512207,0.02142953872680664,0.005017220973968506,-0.0071842968463897705,-0.007680908311158419,-0.009832799434661865,0.16702631010624333,0.1512892674691146,-0.013836229613881895
0.18978500366210938,0.0012960284948349,0.018933653831481934,0.007329225540161133,-0.006717710755765438,-0.009633271023631096,-0.013334057293832302,0.16656873634434896,0.15133086059234285,-0.013954320665401834
0.1999061107635498,0.0013665854930877686,0.021713972091674805,0.005722105503082275,0.0013764677569270134,-0.005466311704367399,-0.011116176843643188,0.16620068269379526,0.15135864264422083,-0.01409250931634776
0.21012115478515625,3.142654895782471e-05,0.02214565873146057,0.004707694053649902,0.005758166778832674,-0.003804233390837908,-0.010870633646845818,0.16580292774706004,0.15143455891251842,-0.014211092866294382
0.21978330612182617,0.00033083558082580566,0.016860708594322205,0.003791511058807373,0.007315034046769142,-0.002850333694368601,-0.009325040504336357,0.16537973722557697,0.1514922679340692,-0.014332337950357469
0.2297220230102539,0.00031384825706481934,0.014266729354858398,0.006747722625732422,0.007958720438182354,0.0003973911516368389,-0.00865152757614851,0.16499301019193766,0.15153115616617233,-0.014445344900708867
0.23975515365600586,-0.0032565146684646606,0.013928577303886414,0.0075893402099609375,0.006127281114459038,0.006182798184454441,-0.0069252136163413525,0.16469663984356528,0.15163297077002338,-0.014548384391507903
0.24965214729309082,-0.003928825259208679,0.012269556522369385,0.004668116569519043,0.004095555283129215,0.0035246971528977156,-0.003218359313905239,0.16437603977633367,0.15171965892155803,-0.014613139136177077
0.25974011421203613,-0.0015132129192352295,0.013255506753921509,0.00492250919342041,0.006312054581940174,0.0007725423201918602,-0.0009625555831007659,0.16409169293699719,0.15175454606044633,-0.014657310193304138
0.26964616775512695,-0.0006133466958999634,0.014437705278396606,0.004253208637237549,0.0016070478595793247,0.0001301877200603485,-0.00037586118560284376,0.16385161649875682,0.15179582285628554,-0.014677393217421128
0.27976417541503906,-0.0016583353281021118,0.013298705220222473,0.002201974391937256,-0.006895177066326141,-0.000707332044839859,0.0008628814248368144,0.16348591642890514,0.15182545547136567,-0.0146811236714739
0.28978729248046875,-0.0005839318037033081,0.011024177074432373,0.0028261542320251465,-0.014933928847312927,-0.003319093957543373,-0.0009472690289840102,0.16303645803363626,0.15180767217452426,-0.014663728872903263
0.29975318908691406,-0.0008254796266555786,0.013668864965438843,0.002466738224029541,-0.015239875763654709,-0.004693685099482536,-0.00023359525948762894,0.16263941156218142,0.15177940041965676,-0.014651434039224753
0.3096652030944824,-0.0014535635709762573,0.016393616795539856,0.003470897674560547,-0.0074469344690442085,-0.011000051163136959,0.0006191489519551396,0.1623389705463001,0.15171183550123973,-0.014632450083402013
0.3198552131652832,-0.0011006444692611694,0.01735953986644745,0.0035166144371032715,-0.006996410898864269,-0.013519532978534698,-0.0032432335428893566,0.16209625607881956,0.15156297443072927,-0.014630404743914138
0.3300461769104004,-0.0007744580507278442,0.017771393060684204,0.005730092525482178,-0.0077045452781021595,-0.010394580662250519,-0.0060608577914536,0.16186419087427684,0.15139489153581998,-0.014654568681331859
0.3400402069091797,-0.0029779672622680664,0.017941445112228394,0.0032219290733337402,-0.007262560073286295,-0.008087927475571632,-0.00343908229842782,0.16161904777940758,0.1512856973370137,-0.014685956656838025
0.35003018379211426,-0.00213545560836792,0.01649335026741028,0.0046958327293396,-0.006886255461722612,-0.009066373109817505,-0.009344642050564289,0.16134227284361896,0.1512129073690662,-0.014740176354480838
0.36000919342041016,-0.0025851428508758545,0.01594012975692749,0.007397115230560303,-0.001859838841482997,-0.0071991425938904285,-0.004246552474796772,0.16112189554736425,0.15113663339740352,-0.01480391287370021
0.36994504928588867,-0.00029480457305908203,0.017098277807235718,0.0050539374351501465,-0.001491257338784635,-0.012333717197179794,-0.006744598038494587,0.16096578783061707,0.1510530313638243,-0.014849236721457697
0.3800630569458008,0.004246070981025696,0.016449347138404846,0.0048354268074035645,-0.0017964887665584683,-0.01705310493707657,-0.0039858827367424965,0.1607566472682979,0.15089790402820552,-0.014906438831418864
0.39053916931152344,0.0019282549619674683,0.012377172708511353,0.006500899791717529,-0.008425363339483738,-0.013645324856042862,-0.004072435200214386,0.1604958115485113,0.1507492116527417,-0.014940194986499213
0.4000692367553711,3.56137752532959e-06,0.008904591202735901,0.007336258888244629,-0.016456840559840202,-0.00816875509917736,-0.008728493005037308,0.16013136111036685,0.15064859448411944,-0.014989834533508661
0.41008615493774414,-0.0011688023805618286,0.007756829261779785,0.007726848125457764,-0.013760657049715519,-0.007010812405496836,-0.007171343080699444,0.15974154877933974,0.15058951472717447,-0.015052246985089454
0.42000317573547363,-0.0003966093063354492,0.012194499373435974,0.006033003330230713,-0.004193266853690147,-0.003973610233515501,-0.011848811991512775,0.15941432082199758,0.15052515389989818,-0.015129101029952133
0.4300670623779297,-0.001385524868965149,0.013705745339393616,0.004694759845733643,0.004952027928084135,-0.00014771288260817528,-0.01013373676687479,0.15919859563342217,0.15051692763397614,-0.015240206582499126
0.4398770332336426,0.0017414391040802002,0.014696195721626282,0.004801571369171143,0.00991369690746069,0.004643402062356472,-0.010742587968707085,0.15907357125692012,0.15054626778531097,-0.015348845429952377
0.45020103454589844,0.0033979415893554688,0.014038056135177612,0.004867672920227051,0.012013865634799004,0.0064040180295705795,-0.007982222363352776,0.1589633651157,0.15062860603826264,-0.015455513411445933
0.4615020751953125,0.0017475485801696777,0.010897591710090637,0.0018830299377441406,0.012196125462651253,0.008288026787340641,-0.005445773713290691,0.15887353263079818,0.15078522071780273,-0.015546732353004538
0.47022008895874023,0.00083160400390625,0.01159718632698059,0.0016665458679199219,0.01398683525621891,0.009600965306162834,-0.006465764716267586,0.15885572934321396,0.1509258937503952,-0.01562306182224579
0.4804191589355469,0.0019497871398925781,0.010385140776634216,-4.410743713378906e-05,0.0023753363639116287,0.005018686410039663,-0.007037012837827206,0.1588644887188134,0.15103110994869506,-0.01570221853026806
0.49042820930480957,0.00311964750289917,0.009526506066322327,0.0005965232849121094,-0.005601895973086357,-0.001009644940495491,-0.007946748286485672,0.15873666356312854,0.15106445912382,-0.015782770781825013
0.5002391338348389,0.0039491355419158936,0.002989053726196289,0.0006026029586791992,-0.009169316850602627,-0.0027760760858654976,-0.015360936522483826,0.1584981220026278,0.15106864313438262,-0.01589070388668764
0.5103161334991455,0.0024637430906295776,0.004671081900596619,0.001099705696105957,-0.007088056765496731,-0.014840994030237198,-0.011781115084886551,0.15822357993909825,0.15098923953197024,-0.016018646076794832
0.5203421115875244,0.002271220088005066,0.008336231112480164,0.0020303726196289062,-0.010022194124758244,-0.016775604337453842,-0.010729006491601467,0.157948536024285,0.15086717806157568,-0.016120480408284732
0.5306251049041748,-0.0003138333559036255,0.0017185062170028687,0.0037065744400024414,-0.009088223800063133,-0.016373999416828156,-0.004558728542178869,0.1576750741530379,0.1507576358166339,-0.01618704655212827
0.5402812957763672,-0.0030971169471740723,0.002067193388938904,0.004791438579559326,0.0017773071303963661,-0.016122151166200638,0.0024865043815225363,0.1575028061782832,0.15061915341620682,-0.01619040184442437
0.5501523017883301,-0.00369107723236084,0.0056786686182022095,0.007307767868041992,0.011670684441924095,-0.014969002455472946,0.009301532991230488,0.15745155076479728,0.15047611657398885,-0.01613896957795147
0.5602641105651855,-0.0035563111305236816,0.005879640579223633,0.010173916816711426,0.013745052739977837,-0.011775963008403778,0.011592917144298553,0.1574850908170772,0.15035455997951014,-0.016051886334033774
0.5702221393585205,-0.004574909806251526,0.00590023398399353,0.012606441974639893,0.009832603856921196,-0.008585761301219463,0.017783967778086662,0.15752139150093294,0.15027347280869882,-0.015934123989253812
0.5802931785583496,-0.005615338683128357,0.007911726832389832,0.013486266136169434,0.0016304836608469486,-0.0015712175518274307,0.017683619633316994,0.15758049783129918,0.15024653497958462,-0.015782664477010776
0.5903739929199219,-0.004575356841087341,0.009022176265716553,0.013751626014709473,-0.006581906229257584,0.002204079646617174,0.01652194932103157,0.15753065318570258,0.15025852109642945,-0.015616748532257432
0.6002411842346191,-0.001998305320739746,0.011843428015708923,0.01642894744873047,-0.013801602646708488,0.003085053525865078,0.014113705605268478,0.15735906196436422,0.15028737852969587,-0.015450432614846679
0.6103031635284424,0.00041490793228149414,0.015829607844352722,0.016662120819091797,-0.01603998988866806,0.002281577792018652,0.010978099890053272,0.1572236892694357,0.1502973547867503,-0.01530043636810941
0.6203231811523438,0.0022611021995544434,0.017785832285881042,0.01421654224395752,-0.018377745524048805,0.0038346447981894016,0.006993265822529793,0.15705689303896048,0.15029349287760063,-0.015185084250030262
0.6303262710571289,0.0019161701202392578,0.018768370151519775,0.012064099311828613,-0.014863970689475536,0.006661057472229004,0.004009193275123835,0.15684665300533107,0.15031352426737904,-0.015106026528218306
0.6403481960296631,-0.0004394799470901489,0.021396368741989136,0.010444939136505127,-0.005988337565213442,0.007870709523558617,0.00291463453322649,0.15671116910371327,0.1503630961861952,-0.01505852537109106
0.6503353118896484,-0.0011809319257736206,0.02530469000339508,0.01191091537475586,-0.001799717778339982,0.008647553622722626,0.0019753375090658665,0.1566514781713991,0.15041779744439054,-0.015027964934786064
0.6604011058807373,-1.5050172805786133e-05,0.02225227653980255,0.01146763563156128,-0.0024488300550729036,0.011809525080025196,-0.006209515500813723,0.15658902386851373,0.15048806306422752,-0.015040197862261892
0.6703281402587891,-0.0007105767726898193,0.018040642142295837,0.009252309799194336,-0.007090187165886164,0.01607804000377655,-0.006651333998888731,0.15648065964039704,0.15061955482563757,-0.015102625580271948
0.6804261207580566,-0.00111311674118042,0.017252981662750244,0.008308231830596924,-0.013134763576090336,0.01631692424416542,-0.00852247141301632,0.15630114887855914,0.15079305844453286,-0.015165349815372178
0.6903290748596191,-0.0013981908559799194,0.015712961554527283,0.01004648208618164,-0.01577235758304596,0.013027122244238853,-0.012004554271697998,0.15603969718056002,0.15096934693731576,-0.015248932093455776
0.7003982067108154,0.0008096098899841309,0.011635065078735352,0.011625707149505615,-0.020552366971969604,0.012745626270771027,-0.013411874882876873,0.1557269473863902,0.1511385645168362,-0.01535619791744616
0.7104501724243164,0.002846062183380127,0.011454477906227112,0.011392354965209961,-0.017619160935282707,0.015275629237294197,-0.012455000542104244,0.15538968843849035,0.15131078902455516,-0.01545855538369886
0.7204670906066895,0.0024923086166381836,0.009719908237457275,0.004989802837371826,-0.006807742640376091,0.011443296447396278,-0.011935045942664146,0.15510123962141348,0.15146299826473775,-0.015555780958811298
0.7305803298950195,0.004059687256813049,0.0071908533573150635,0.0007665157318115234,-0.002909673610702157,0.011898962780833244,-0.006336814723908901,0.15485807936453078,0.15158655596838227,-0.015642983736439263
0.740476131439209,0.006197631359100342,0.00582258403301239,0.0011039376258850098,-0.005106797907501459,0.008223489858210087,-0.00269824406132102,0.15463151081426588,0.15170436750168492,-0.01569167162034279
0.7504062652587891,0.005632564425468445,0.0029944181442260742,0.004102110862731934,-0.011816365644335747,0.007312688510864973,0.0018877192633226514,0.15440997644551926,0.1517777349134509,-0.015678425104573845
0.7604861259460449,0.003986760973930359,-0.0016706734895706177,0.006093621253967285,-0.022306840866804123,0.0077304053120315075,0.0063262502662837505,0.1541052688960775,0.15183076453652905,-0.01560694802286772
0.7706151008605957,0.002921581268310547,-0.005587413907051086,0.0046002864837646484,-0.02631942555308342,0.008006840944290161,0.010049082338809967,0.1537394974420412,0.15188155703637207,-0.01547895612412093
0.7838993072509766,0.0029590576887130737,-0.00356842577457428,0.002716541290283203,-0.025200415402650833,0.0061241197399795055,0.013641474768519402,0.15342010983022017,0.1519449606229061,-0.01531805927835982
0.7939190864562988,0.0007638931274414062,-0.00024293363094329834,-1.1265277862548828e-05,-0.021313797682523727,0.008641073480248451,0.022306067869067192,0.15312585348016838,0.1520139547760084,-0.015111407939702271
0.8005812168121338,-0.0009595900774002075,-0.00020296871662139893,0.00015926361083984375,-0.012767713516950607,0.011705661192536354,0.025027606636285782,0.15291924807560014,0.15210201428787343,-0.014862917114250623
0.8104763031005859,-0.004568770527839661,0.0018727779388427734,0.0013155341148376465,-0.005697819869965315,0.014322750270366669,0.024581527337431908,0.15281173710140625,0.15223273048723854,-0.014608699034668209
0.8206191062927246,-0.0051971375942230225,0.003981530666351318,0.0017913579940795898,-0.003911904059350491,0.011812454089522362,0.021734608337283134,0.15275305766191397,0.15237473971640075,-0.014371858932841979
0.8306372165679932,-0.003017127513885498,0.0036740750074386597,0.0006458759307861328,-0.00539741525426507,0.009709089994430542,0.01658565178513527,0.15273531313507777,0.15250132095087732,-0.014174399278704687
0.8415842056274414,-0.0046128928661346436,0.004272401332855225,0.0022978782653808594,-0.011086460202932358,0.006420618388801813,0.014713183045387268,0.1527231504601152,0.15258818861531281,-0.014009855276854954
0.850548267364502,-0.0046603381633758545,0.0038446635007858276,0.003847062587738037,-0.009891499765217304,0.005849103908985853,0.012029516510665417,0.15270720594382872,0.15265200801091097,-0.013867372056051272
0.860593318939209,-0.003757581114768982,0.0035751163959503174,0.0028783082962036133,-0.004539078567177057,0.001802430720999837,0.013406903482973576,0.1527123878377322,0.1526964431923859,-0.013728184023145436
0.8704910278320312,-0.0046454668045043945,0.00620386004447937,0.0020298361778259277,-0.004364108666777611,-0.0030740834772586823,0.017630942165851593,0.15270121236841033,0.15266786914486316,-0.013568486352369638
0.8806252479553223,-0.0008698403835296631,0.006571829319000244,-0.00018072128295898438,-0.009520987048745155,-0.005866318475455046,0.01864613965153694,0.1526721202172977,0.1525822157073808,-0.013368905634501294
0.8906481266021729,-0.0024453848600387573,0.004059121012687683,-0.002674996852874756,-0.018551766872406006,-0.007963292300701141,0.01965707540512085,0.15255366555701144,0.15244282981432805,-0.013159385155963692
0.9006221294403076,-0.004853174090385437,0.0014199763536453247,8.52346420288086e-05,-0.030187299475073814,-0.007817128673195839,0.023138146847486496,0.15230730417428634,0.15229328113159823,-0.01289851870657572
0.9106659889221191,-0.007373839616775513,0.004649817943572998,0.0024299025535583496,-0.03449736163020134,-0.01335650309920311,0.024634042754769325,0.15199348261631643,0.15213275094743473,-0.012610763477371343
0.9206709861755371,-0.0044734179973602295,0.007192060351371765,0.003957033157348633,-0.040130529552698135,-0.021842533722519875,0.02461652085185051,0.15163238971727291,0.15187314016187978,-0.012297655105287469
0.9307050704956055,-0.005063638091087341,0.007169947028160095,0.005491733551025391,-0.04010789096355438,-0.023185566067695618,0.02046811394393444,0.15125499239176066,0.1515782675732151,-0.012011927207034399
0.940669059753418,-0.007439717650413513,0.009758666157722473,0.004070281982421875,-0.04488295689225197,-0.02808866836130619,0.020552856847643852,0.15086382109600371,0.15126816118707434,-0.011734782008402707
0.9506421089172363,-0.006118312478065491,0.010478079319000244,0.0014508366584777832,-0.05702989920973778,-0.032509513199329376,0.017995156347751617,0.1503567916432505,0.15091924119240127,-0.011454959765471022
0.9605941772460938,-0.0028705447912216187,0.00859205424785614,0.0027674436569213867,-0.07853269577026367,-0.04012003168463707,0.01636306382715702,0.1496838948274269,0.1505315886822438,-0.011187643447202075
0.9724969863891602,-0.003269687294960022,0.0060415565967559814,0.011727094650268555,-0.13122308254241943,-0.04070273041725159,0.004576446954160929,0.1486169271878245,0.1500259964962316,-0.01091577230252402
0.9808831214904785,-0.003975018858909607,-0.005624756217002869,0.010358989238739014,-0.1990000158548355,-0.0486944317817688,0.01584657095372677,0.14706552796782868,0.1495577690377468,-0.01055567890058619
0.9909811019897461,0.0005817711353302002,-0.012260466814041138,0.0073282718658447266,-0.2758990526199341,-0.06252609193325043,-0.004845124669373035,0.14473858647508783,0.14888823936616835,-0.01013574772827982
1.0008351802825928,0.003510698676109314,-0.019124165177345276,0.009364485740661621,-0.39205726981163025,-0.08619555830955505,-0.020259393379092216,0.14150392288643845,0.1481022419088698,-0.0097708155038827
1.0108811855316162,0.003887876868247986,-0.013691961765289307,0.010789215564727783,-0.5091788172721863,-0.08417528122663498,-0.03267824649810791,0.13708188391363849,0.14720437360233013,-0.009359445074628315
1.0239310264587402,-0.0010190308094024658,-0.03470426797866821,0.01524418592453003,-0.6989761590957642,-0.07822716236114502,-0.06506281346082687,0.1311376600093482,0.14631661467509888,-0.008966282047638996
1.030839204788208,-0.002727791666984558,-0.04703514277935028,0.008595168590545654,-0.9105270504951477,-0.0692022368311882,-0.08834310621023178,0.12315209492567893,0.14551330901951215,-0.00854895867279352
1.0408351421356201,-0.00013341009616851807,-0.04502967745065689,0.005783975124359131,-1.0609852075576782,-0.07799999415874481,-0.10341329872608185,0.11340115886184532,0.1447534463487587,-0.008073779227153629
1.050779104232788,0.004637584090232849,-0.044031865894794464,0.004876852035522461,-1.148982286453247,-0.09835772216320038,-0.12334812432527542,0.1022491928536491,0.14382317581420434,-0.007586083809250737
1.060906171798706,0.01057077944278717,-0.021157406270503998,-0.0002797842025756836,-1.1808983087539673,-0.1255003958940506,-0.14263436198234558,0.09047730008416467,0.1426857615337164,-0.007254229676070327
1.072251319885254,0.013480588793754578,-0.002360016107559204,-0.0061043500900268555,-1.1532182693481445,-0.1634475141763687,-0.14380934834480286,0.07866906690874484,0.14121702489370264,-0.007016235975748098
1.0808663368225098,0.01692160964012146,0.005997449159622192,-0.013526380062103271,-1.07839035987854,-0.1846981644630432,-0.1550162434577942,0.06737356778430263,0.13945451685610166,-0.0069282206051962305
1.0909790992736816,0.012938201427459717,0.009990938007831573,-0.027745187282562256,-1.001959204673767,-0.20765167474746704,-0.14450767636299133,0.0568661496822796,0.13748108500529685,-0.006979718592745897
1.1011431217193604,0.009496524930000305,0.011304419487714767,-0.0329211950302124,-0.9279592037200928,-0.2155962884426117,-0.1382044106721878,0.04708850923945454,0.13536855362753408,-0.007065213631779067
1.1109421253204346,0.00442853569984436,-0.00024249404668807983,-0.028219997882843018,-0.9208126068115234,-0.20651571452617645,-0.14582876861095428,0.03782203197585385,0.13325231047544317,-0.007245478846536901
1.1229891777038574,-0.005968958139419556,-0.020583413541316986,-0.022808432579040527,-1.0379352569580078,-0.16665129363536835,-0.17108720541000366,0.02794325736653096,0.13133636755597924,-0.00754992746121626
1.1309771537780762,-0.011621952056884766,-0.0542144775390625,-0.021782398223876953,-1.1914294958114624,-0.1176973283290863,-0.17549899220466614,0.016678715844210303,0.12994058628671462,-0.007822312233216661
1.140918254852295,-0.012033507227897644,-0.07541389763355255,-0.02254045009613037,-1.3648072481155396,-0.09376581013202667,-0.19783759117126465,0.003748796270463367,0.12890730499858702,-0.008004245584903643
1.1509060859680176,-0.011390581727027893,-0.07675545662641525,-0.00829249620437622,-1.579960823059082,-0.08328893780708313,-0.24821127951145172,-0.011127542419171523,0.12803531451219688,-0.008316531195048485
1.1613082885742188,-0.011084020137786865,-0.09396974742412567,0.016333281993865967,-1.7560986280441284,-0.0688224732875824,-0.281202495098114,-0.028070637830745128,0.1272610209932658,-0.00883142836264432
1.1723802089691162,-0.011645808815956116,-0.12347790598869324,0.040769875049591064,-1.9416475296020508,-0.10165658593177795,-0.3220181167125702,-0.04680423115074798,0.12640866370057438,-0.009439758015787888
1.1810262203216553,-0.014695867896080017,-0.14127501845359802,0.06135684251785278,-2.1092381477355957,-0.0646720603108406,-0.3862333595752716,-0.06738181104993057,0.1254928202660669,-0.010449168832995534
1.1911101341247559,-0.007114395499229431,-0.0914323702454567,0.046700894832611084,-2.1926684379577637,-0.10761740058660507,-0.35160136222839355,-0.08933854611147192,0.12460096474057697,-0.011430415279156034
1.2011191844940186,0.019583001732826233,0.007716819643974304,0.041941046714782715,-2.0926167964935303,-0.22323311865329742,-0.30778104066848755,-0.11108747724002604,0.12291579461807417,-0.01207079262170011
1.2129302024841309,0.04036789387464523,0.03509637713432312,0.05185866355895996,-1.9640257358551025,-0.333152711391449,-0.23460349440574646,-0.13160388479372687,0.12005950265938381,-0.012319746824450433
1.2229242324829102,0.041046082973480225,0.025113537907600403,0.04510533809661865,-1.8963987827301025,-0.3986060619354248,-0.21712708473205566,-0.15096574166682178,0.11642174941660438,-0.012232572791211843
1.2312183380126953,0.02634081244468689,-0.0007363259792327881,0.035255253314971924,-1.9680207967758179,-0.4647890627384186,-0.2293773591518402,-0.17032071843758562,0.11207825181579537,-0.012274402487259618
1.2412452697753906,0.012044914066791534,-0.024932533502578735,0.031164467334747314,-2.2137327194213867,-0.4717555344104767,-0.20146812498569489,-0.1913662487262499,0.1073347684479718,-0.012176384528045635
1.2510461807250977,0.012758925557136536,-0.047405093908309937,-0.006667196750640869,-2.374661684036255,-0.30669280886650085,-0.1334424614906311,-0.21457514182452958,0.10355087912388575,-0.011407756938597064
1.2611312866210938,-0.02050430327653885,-0.06008826196193695,-0.035999953746795654,-2.631132125854492,-0.2683234214782715,-0.1894100159406662,-0.23962079000657044,0.10090034315701839,-0.010358587776238222
1.2739181518554688,-0.041475243866443634,-0.06515225768089294,0.036749303340911865,-2.7586429119110107,-0.2668943703174591,-0.21599608659744263,-0.26680798122758514,0.09839349711436671,-0.009722884377866073
1.2811260223388672,-0.012021571397781372,-0.061998605728149414,0.07005596160888672,-2.7462263107299805,-0.294838011264801,-0.20498962700366974,-0.294477055677353,0.09583114817689245,-0.009086241547558226
1.2912662029266357,0.0019451379776000977,0.01352989673614502,0.08588272333145142,-2.687695264816284,-0.3848089277744293,-0.24695837497711182,-0.32184696633441223,0.09245019654191747,-0.008775331780235486
1.301161289215088,0.015354089438915253,0.051152557134628296,0.07281112670898438,-2.594696044921875,-0.4339035451412201,-0.23342733085155487,-0.348368116749374,0.08840763983781655,-0.008826444280498493
1.3111181259155273,0.03819769620895386,0.0746857225894928,7.748603820800781e-05,-2.5419704914093018,-0.47995492815971375,-0.22152166068553925,-0.37420238813616297,0.083747173092584,-0.008867126159698558
1.322688102722168,0.04595983028411865,0.06335043907165527,-0.029002845287322998,-2.4187731742858887,-0.4326953589916229,-0.20983560383319855,-0.39916086767054765,0.07909307777455402,-0.009013829941628778
1.3311901092529297,0.025863736867904663,0.023121535778045654,-0.02745920419692993,-2.2435975074768066,-0.39374127984046936,-0.2066802978515625,-0.42262036187737584,0.07489015762755633,-0.00930311092426771
1.3412301540374756,-0.00752006471157074,0.03886544704437256,-0.002605617046356201,-2.065969944000244,-0.38216206431388855,-0.19557219743728638,-0.4442126912578473,0.07084574844191434,-0.009782087936517955
1.3511781692504883,-0.007748834788799286,0.03545162081718445,0.011884212493896484,-2.0241360664367676,-0.37026864290237427,-0.22859592735767365,-0.4646722524935237,0.06669947009821069,-0.010549322047731239
1.361299991607666,-0.0025533922016620636,0.008077800273895264,0.01565074920654297,-2.095311403274536,-0.3308543562889099,-0.2586769461631775,-0.48534801912552833,0.06265104507709193,-0.011828590635665756
1.372347116470337,-0.0015757307410240173,0.012849092483520508,0.020201146602630615,-2.2881805896759033,-0.39581096172332764,-0.2559259235858917,-0.507269883448474,0.05832703699883206,-0.013278359432056028
1.3813631534576416,-0.003947298973798752,0.021574974060058594,0.05301201343536377,-2.208401679992676,-0.41654378175735474,-0.1804725080728531,-0.5298482881912294,0.05377831951981003,-0.01424922214402561
1.3915481567382812,-0.019732896238565445,-0.03415477275848389,0.022146105766296387,-2.155860185623169,-0.3910445272922516,-0.228691965341568,-0.5519794495278529,0.0492863548058052,-0.015375583326995228
1.4012601375579834,-0.024760015308856964,-0.016924262046813965,-0.006387829780578613,-2.001396894454956,-0.4137708842754364,-0.21625983715057373,-0.5728810360925081,0.04442276753650819,-0.016833270707438494
1.4113740921020508,-0.016658656299114227,0.010034322738647461,-0.022946536540985107,-1.853934407234192,-0.4086102247238159,-0.20145879685878754,-0.5922734363953533,0.039454960738500085,-0.018368062880517143
1.422220230102539,-0.0032319389283657074,-0.0015187263488769531,-0.057860732078552246,-1.6701077222824097,-0.3842991888523102,-0.1506601721048355,-0.6099456651062608,0.03475880281159999,-0.019771342771681244
1.431307315826416,-0.0006588175892829895,0.03432554006576538,-0.051867008209228516,-1.605599045753479,-0.4317207634449005,-0.11851368844509125,-0.626232886012192,0.03013982475924686,-0.02068210804839398
1.4412901401519775,-0.005580544471740723,0.021473288536071777,-0.0263974666595459,-1.7913919687271118,-0.43364304304122925,-0.17338551580905914,-0.6431029399084062,0.025033514705506018,-0.021883237930259213
1.4512841701507568,-0.010465478524565697,-0.11004066467285156,0.003874480724334717,-2.094463586807251,-0.32553282380104065,-0.2142980545759201,-0.6625984563453758,0.02008851114640049,-0.023782858357290354
1.46128511428833,-0.028997574001550674,-0.0975237488746643,0.020115792751312256,-2.266467809677124,-0.29062119126319885,-0.21271145343780518,-0.6845360722138639,0.015686416842487786,-0.026046540088962244
1.472884178161621,-0.019327757880091667,0.016361117362976074,0.0430530309677124,-2.3086659908294678,-0.3527734875679016,-0.1715075671672821,-0.7075713860434578,0.011117260433590964,-0.028178037067191086
1.4816112518310547,0.0029658498242497444,0.04562896490097046,0.0383031964302063,-2.2849509716033936,-0.3738277554512024,-0.17038646340370178,-0.7306080146463134,0.006159453978319477,-0.030123345323631697
1.4923341274261475,0.003624789882451296,-0.009468793869018555,-0.017784833908081055,-2.1574511528015137,-0.3673970103263855,-0.1972191482782364,-0.7529165381275748,0.0008040515386157567,-0.03253962342453794
1.5014920234680176,-0.006980868522077799,-0.00029289722442626953,-0.06951940059661865,-1.823369026184082,-0.3655892312526703,-0.2061460167169571,-0.7729430340463734,-0.004806576467580913,-0.03535550699617028
1.5115511417388916,-0.00532281631603837,0.03813713788986206,-0.0816546082496643,-1.5246214866638184,-0.385860413312912,-0.2294372171163559,-0.7896516058594653,-0.010882794048890882,-0.038673454959634805
1.5238800048828125,0.001927417702972889,0.09002983570098877,-0.03275781869888306,-1.401790738105774,-0.40271997451782227,-0.18755847215652466,-0.8041074699225305,-0.017163366003845326,-0.04195120069348188
1.5315442085266113,0.007014529779553413,0.07785296440124512,0.009418308734893799,-1.5576176643371582,-0.3876030743122101,-0.22256839275360107,-0.8186913761525351,-0.02360358241879223,-0.0452830960661471
1.5414543151855469,-0.01288595236837864,-0.04337817430496216,0.02861475944519043,-1.8995860815048218,-0.3548159599304199,-0.3151809275150299,-0.8358692407507851,-0.03073711425955237,-0.04995456321436378
1.5515022277832031,-0.026551028713583946,-0.0855855941772461,0.04247468709945679,-2.174752712249756,-0.3154427409172058,-0.31637322902679443,-0.856241956383144,-0.03852311194054643,-0.055892617824288955
1.561617136001587,0.002231340855360031,-0.01902824640274048,-0.003600776195526123,-2.1698834896087646,-0.30385446548461914,-0.3006075322628021,-0.8779880402362887,-0.0462976384490512,-0.06205199443402406
1.5729122161865234,0.021498005837202072,0.015935897827148438,-0.05244886875152588,-1.9405351877212524,-0.27120012044906616,-0.2863425612449646,-0.8985654869530048,-0.05410163052179023,-0.06841129633443623
1.581531047821045,0.015148911625146866,0.06552869081497192,-0.06122255325317383,-1.583666443824768,-0.29824718832969666,-0.2576071321964264,-0.9160297095583415,-0.06172323334296196,-0.07448703351959599
1.59157133102417,0.010599855333566666,0.09405845403671265,-0.00234144926071167,-1.3783823251724243,-0.3072071373462677,-0.26178884506225586,-0.9305059546836112,-0.06949279942713918,-0.08038637246360583
1.6015551090240479,0.0026138536632061005,0.04437357187271118,0.0590282678604126,-1.3838077783584595,-0.321701318025589,-0.2502461075782776,-0.9439379347792224,-0.07741903022697899,-0.0863426424620504
1.6116480827331543,-0.005378641188144684,-0.004575788974761963,0.10614091157913208,-1.6853423118591309,-0.3538755178451538,-0.31316009163856506,-0.9588923373375858,-0.08645227608070813,-0.09327389252702888
1.6219983100891113,0.004497211426496506,-0.10690635442733765,0.0966407060623169,-2.1052253246307373,-0.38184720277786255,-0.4222474694252014,-0.9774773031357279,-0.09798714938033061,-0.10280348481742611
1.6315603256225586,0.0031352564692497253,-0.13212722539901733,0.07348418235778809,-2.4099860191345215,-0.3988642692565918,-0.4727436602115631,-0.9995608280855693,-0.11240354199718168,-0.11541322682230154
1.6415932178497314,0.004457987844944,-0.07675826549530029,0.040067195892333984,-2.4892942905426025,-0.4122699797153473,-0.4813522398471832,-1.0235283073471704,-0.1287391752047284,-0.1298709625646363
1.6516389846801758,0.01812858134508133,-0.01880735158920288,-0.031128227710723877,-2.336864471435547,-0.40451061725616455,-0.46613597869873047,-1.046914188626606,-0.14648039054164866,-0.14576026104989753
1.661675214767456,0.029771551489830017,0.05973762273788452,-0.08028510212898254,-2.1021833419799805,-0.4327469766139984,-0.379047691822052,-1.0681539742699413,-0.16408209128272805,-0.16113080240972413
1.6735873222351074,0.03273899108171463,0.05680972337722778,-0.06120264530181885,-2.01579213142395,-0.42922040820121765,-0.41661104559898376,-1.087693155810858,-0.18228113094082865,-0.1768666821701259
1.68162202835083,0.006223030388355255,-0.03656870126724243,-0.034622520208358765,-2.1076409816741943,-0.41779598593711853,-0.42551925778388977,-1.1070933756272805,-0.20231422421981574,-0.19461497003128903
1.6915593147277832,-0.011399194598197937,-0.08839952945709229,-0.001481086015701294,-2.2989912033081055,-0.4280236065387726,-0.4693351686000824,-1.1276734603886633,-0.22502861093888096,-0.21518986600019155
1.7015700340270996,-0.012081660330295563,-0.13356685638427734,0.03232431411743164,-2.548511266708374,-0.4490191638469696,-0.5363467335700989,-1.150057449026655,-0.25250318925220416,-0.24059259227740465
1.7116081714630127,-0.011482715606689453,-0.16160207986831665,0.04941606521606445,-2.738464593887329,-0.4411410093307495,-0.565701961517334,-1.1742625515446123,-0.2856973127329088,-0.271850539447229
1.7223811149597168,-0.0028119459748268127,-0.1272450089454651,0.00906449556350708,-2.849116086959839,-0.40834149718284607,-0.5914861559867859,-1.1992852339980067,-0.32455609541807434,-0.3091751043181937
1.7318062782287598,-0.000385187566280365,-0.08355534076690674,-0.0374065637588501,-2.8499412536621094,-0.38761839270591736,-0.5942952632904053,-1.2241559360189578,-0.3692443067221452,-0.3526904417463781
1.7417271137237549,0.003677874803543091,-0.03795546293258667,-0.02867680788040161,-2.7114109992980957,-0.39095452427864075,-0.5498771667480469,-1.247771182749784,-0.41927204290500836,-0.4015293383902505
1.752209186553955,0.022971391677856445,0.010050773620605469,-0.021350622177124023,-2.516545534133911,-0.4109242856502533,-0.5504259467124939,-1.2689622201277264,-0.4734753705386263,-0.4542799836128615
1.7622311115264893,0.03056459128856659,0.02155327796936035,-0.04342031478881836,-2.3484396934509277,-0.4016704261302948,-0.5335462689399719,-1.2876526504658061,-0.5323558049792756,-0.5115172092483257
1.7738690376281738,0.021740347146987915,0.02764230966567993,-0.042993903160095215,-2.298668384552002,-0.39287081360816956,-0.5311214327812195,-1.3044091742136144,-0.5962432031022123,-0.5737554727241679
1.7817721366882324,0.017303943634033203,-0.005498111248016357,-0.015839457511901855,-2.3287477493286133,-0.3745422661304474,-0.5538854002952576,-1.3199143492030745,-0.6684853575450987,-0.6445027223240571
1.7917811870574951,0.00954572856426239,-0.03287792205810547,0.019129455089569092,-2.232119083404541,-0.35255521535873413,-0.5388073921203613,-1.3337722714268667,-0.748947372842902,-0.7236721574212139
1.8018302917480469,0.0077197253704071045,0.010310053825378418,0.03232695162296295,-2.025286912918091,-0.3336612284183502,-0.4892933666706085,-1.3451273951492866,-0.8323009658890483,-0.8057877031118451
1.8118171691894531,0.02302287518978119,0.05314826965332031,0.004900336265563965,-1.8518238067626953,-0.33616432547569275,-0.43677422404289246,-1.353997531387709,-0.9146516893287315,-0.8867349241311565
1.8228092193603516,0.025100454688072205,0.03025531768798828,0.004130363464355469,-1.8731729984283447,-0.28917422890663147,-0.4259714186191559,-1.3611590249543564,-0.9991419772264006,-0.9699670056541884
1.8319320678710938,0.01280444860458374,-0.04109501838684082,0.005054764449596405,-1.909308910369873,-0.23319245874881744,-0.40701770782470703,-1.3671096552081858,-1.0900643948283648,-1.0601920020334468
1.8420331478118896,0.006460949778556824,-0.053281188011169434,0.002156071364879608,-1.8361815214157104,-0.2110096961259842,-0.4167041480541229,-1.3712730600207357,-1.1841326523185556,-1.1539338751498283
1.8517990112304688,0.004262611269950867,-0.04656016826629639,0.0008752346038818359,-1.6916311979293823,-0.17464104294776917,-0.4032413363456726,-1.3733253594875097,-1.2758633922715539,-1.2455500653711777
1.8619980812072754,0.007511734962463379,-0.023374974727630615,0.0031185708940029144,-1.5760563611984253,-0.14489726722240448,-0.3710545301437378,-1.3736008744800645,-1.3613697805042502,-1.3310804955555544
1.873061180114746,0.01790456473827362,-0.003527522087097168,-0.013911543413996696,-1.5887244939804077,-0.13216708600521088,-0.3558289706707001,-1.3726890907691587,-1.4431233820876328,-1.4130769292530543
1.8819870948791504,0.03241044282913208,-0.03638070821762085,-0.024439692497253418,-1.6774777173995972,-0.08469343930482864,-0.35719379782676697,-1.3705348890078277,-1.5266506865919351,-1.4971401602691319
1.8925743103027344,0.03334061801433563,-0.08387517929077148,-0.02890181541442871,-1.1740680932998657,0.0626043975353241,-0.22512097656726837,-1.3674595443491526,-1.601486584306742,-1.5732233896547623
1.9019203186035156,0.04776334762573242,-0.20604079961776733,-0.09369182586669922,-3.6047868728637695,-0.06282494217157364,-1.0521974563598633,-1.3647750201759252,-1.6368707391161956,-1.6118553882312596
1.9120051860809326,-0.0329415500164032,-0.3421778678894043,-0.020233161747455597,-1.951667308807373,-0.031009754166007042,-0.298641175031662,-1.3539325871329904,-1.7415390488829017,-1.7196789688340928
1.9225611686706543,0.03081245720386505,0.6189969778060913,0.018097389489412308,-1.392430067062378,-0.2862494885921478,-0.014790860004723072,-1.3503764184837523,-1.8115858874719186,-1.7900645416896892
1.9320192337036133,0.1471751630306244,0.180860698223114,-0.00048029422760009766,-1.2138582468032837,-0.18324264883995056,-0.3064911365509033,-1.3448411786385845,-1.8671972069349698,-1.8448139235023928
1.9419422149658203,-0.045108675956726074,-0.1616639494895935,-0.0731813907623291,-0.7916468381881714,-0.12329387664794922,-0.06070098653435707,-1.3399016184028325,-1.9070804907445327,-1.8843839109407565
1.9519143104553223,0.001435503363609314,0.15883684158325195,-0.13728821277618408,-0.6273175477981567,-0.19706636667251587,-0.06765689700841904,-1.337095599490669,-1.9352294235183596,-1.9116563938603033
1.9619722366333008,0.03945156931877136,-0.01611262559890747,-0.03740561008453369,-0.4938335418701172,-0.18221378326416016,-0.09499866515398026,-1.3341151554231545,-1.9582759296828565,-1.933382518695662
1.9725041389465332,-0.002193540334701538,-0.07431221008300781,-0.022670507431030273,-0.12110389024019241,-0.17402589321136475,-0.022977203130722046,-1.3324398338665817,-1.971083230120198,-1.9447571241061867
1.982060194015503,-0.004658684134483337,0.052186429500579834,-0.032023072242736816,0.14590275287628174,-0.19337601959705353,0.00975235365331173,-1.3324907786127622,-1.972008839800987,-1.943799865847411
1.992372989654541,0.015114009380340576,0.02112358808517456,-0.016940712928771973,0.26171430945396423,-0.18130284547805786,0.05295202136039734,-1.3336397828379292,-1.966451892219898,-1.9361147027190402
2.002157211303711,0.01291365921497345,-0.017309844493865967,-0.022694818675518036,0.17982260882854462,-0.15870212018489838,0.0659027099609375,-1.3351239671261208,-1.9601246158169605,-1.9278607321567065
2.012263298034668,0.002530038356781006,-0.05385011434555054,0.003641478717327118,0.012506583705544472,-0.1500100940465927,0.0893009752035141,-1.3361514370917602,-1.9594086071196186,-1.9255267657420168
2.0243911743164062,0.012317672371864319,-0.06812608242034912,0.027058109641075134,-0.06501756608486176,-0.15556561946868896,0.0907140001654625,-1.336912770952375,-1.9636641499655567,-1.928315563416369
2.0323071479797363,0.01298472285270691,-0.05691128969192505,0.02336716651916504,-0.12001876533031464,-0.13067305088043213,0.08120331913232803,-1.3373107653448535,-1.9701398073697178,-1.9334949525843332
2.0421180725097656,-0.0006102919578552246,-0.041281163692474365,0.025698058307170868,-0.15348714590072632,-0.13042697310447693,0.09479635208845139,-1.3376184238801399,-1.9780283464876511,-1.9402848622594433
2.052046298980713,0.007748141884803772,-0.01816272735595703,0.02168595790863037,-0.2643241584300995,-0.12617897987365723,0.08723457157611847,-1.3376125958146812,-1.9888257353717023,-1.950060174624203
2.062112331390381,0.006964594125747681,-0.03779757022857666,0.030861034989356995,-0.31306618452072144,-0.11336508393287659,0.07354167103767395,-1.3371373649958285,-2.0027423631666834,-1.963133702201383
2.072585105895996,-0.0046651363372802734,-0.022393226623535156,0.042732372879981995,-0.2999458611011505,-0.11196426302194595,0.06917914748191833,-1.336443913311327,-2.016861274898149,-1.9764954445681224
2.0821633338928223,-0.0037735402584075928,0.015065312385559082,0.035886406898498535,-0.2266748696565628,-0.10537098348140717,0.07365431636571884,-1.3359262504349283,-2.029212534650029,-1.988072564503759
2.092164993286133,-0.007407963275909424,0.0439874529838562,0.037144891917705536,-0.2043413370847702,-0.09557401388883591,0.08598235249519348,-1.3357001488927738,-2.039623809598557,-1.9977378707860896
2.102173328399658,-0.016144007444381714,0.04040026664733887,0.041232459247112274,-0.30460840463638306,-0.06987987458705902,0.07210781425237656,-1.3352479502709902,-2.0512453201968563,-2.008830790219042
2.112208127975464,-0.019181862473487854,0.0045160651206970215,0.04952870309352875,-0.3433358073234558,-0.05735556408762932,0.07002256065607071,-1.3343150455385104,-2.0655352829566813,-2.022869433554011
2.122558116912842,-0.024088189005851746,0.016144514083862305,0.056374311447143555,-0.3498326241970062,-0.05658409371972084,0.05312417075037956,-1.3332056003923831,-2.0797916584669265,-2.0369669236829613
2.1322412490844727,-0.028279826045036316,0.027234673500061035,0.057742588222026825,-0.466034859418869,-0.056070368736982346,0.02801029197871685,-1.3316024506080408,-2.095540803000842,-2.0525827640502783
2.142341136932373,-0.029391080141067505,-0.007704257965087891,0.05249343812465668,-0.6007534861564636,-0.0473034642636776,-0.0002661389298737049,-1.3289605639945257,-2.115219960680408,-2.0723201928387414
2.152285099029541,-0.0380895733833313,-0.023947298526763916,0.04639515280723572,-0.5960149168968201,-0.05532224103808403,-0.022082220762968063,-1.3256377496692695,-2.136317707778207,-2.093523599747655
2.16243314743042,-0.03543490171432495,0.010435700416564941,0.025779128074645996,-0.47342827916145325,-0.07262115925550461,-0.01666838862001896,-1.3225564192159618,-2.154529522493151,-2.111633565326745
2.172502040863037,-0.030907750129699707,0.0418773889541626,0.00325167179107666,-0.39947736263275146,-0.07754294574260712,-0.033545639365911484,-1.3199267520801101,-2.16883688328354,-2.125627092467854
2.18227219581604,-0.03777419030666351,0.021154582500457764,0.009326696395874023,-0.3264748752117157,-0.07702012360095978,-0.0387224517762661,-1.3175462531422815,-2.180512494972071,-2.1368733413725107
2.1922881603240967,-0.03677062690258026,0.015159666538238525,0.015792250633239746,-0.2109469324350357,-0.07593648135662079,-0.04180878773331642,-1.3156578897123608,-2.1888476844357587,-2.1447080687915943
2.202261209487915,-0.03353343904018402,0.03219860792160034,0.015986070036888123,-0.13056816160678864,-0.06262072175741196,-0.031897567212581635,-1.3144113402389779,-2.193840688507928,-2.1491479595205343
2.2124900817871094,-0.03433200716972351,0.023857951164245605,0.02657794952392578,-0.16745907068252563,-0.05609624460339546,-0.034670453518629074,-1.3133076219627124,-2.19805468262096,-2.1528797453626787
2.223379135131836,-0.033722057938575745,-0.010228216648101807,0.03379368782043457,-0.30389168858528137,-0.035700734704732895,-0.06050433963537216,-1.3115680316082368,-2.2046444214776995,-2.159219734003228
2.232365131378174,-0.03627727925777435,-0.04549521207809448,0.03758522868156433,-0.3492740988731384,-0.009510677307844162,-0.06286469846963882,-1.309035083882907,-2.213715378029267,-2.1683768504255454
2.2423720359802246,-0.030601367354393005,-0.022988319396972656,0.026169538497924805,-0.21555207669734955,0.004482192452996969,-0.05607400834560394,-1.3068036713056803,-2.2210019567594794,-2.17591042380414
2.2523202896118164,-0.019358724355697632,0.03303492069244385,0.017040610313415527,-0.022265711799263954,-0.011949244886636734,-0.02338264323771,-1.3057800338716383,-2.2235714701467075,-2.1785555991447922
2.26242733001709,-0.008865848183631897,0.047951459884643555,0.030251845717430115,0.04890645295381546,-0.022619333118200302,-0.019917497411370277,-1.3057466654361276,-2.2226124536842904,-2.1773510129882543
2.274409294128418,-0.011546075344085693,0.0017140507698059082,0.029321789741516113,0.08933191001415253,0.005089792422950268,-0.004267165903002024,-1.3060507638662782,-2.2205311745807665,-2.1750838855507846
2.2823262214660645,-0.019529908895492554,-0.01725071668624878,0.016999945044517517,0.23691819608211517,0.01942039467394352,0.023949984461069107,-1.307036438413492,-2.2159279449208165,-2.170466941950218
2.2923502922058105,-0.01126350462436676,0.022519171237945557,0.005125895142555237,0.3555753231048584,0.02032054401934147,0.07204960286617279,-1.3093082175149444,-2.2075774227218705,-2.162026688851754
2.302365303039551,-0.003829360008239746,0.02179485559463501,0.009000420570373535,0.21396328508853912,0.04471531882882118,0.05750459060072899,-1.3116475850284246,-2.199690034559086,-2.154176934035735
2.3131532669067383,-0.013201028108596802,-0.06335145235061646,0.03194676339626312,0.017996173352003098,0.07996811717748642,0.02440629154443741,-1.3123119397821223,-2.1969584328547502,-2.1519861826662194
2.3228020668029785,-0.01711234450340271,-0.07803815603256226,0.04861809313297272,0.013776145875453949,0.09666280448436737,0.021517187356948853,-1.312342941693779,-2.1966305645865676,-2.1525614627606373
2.332442283630371,-0.0016107559204101562,0.003881692886352539,0.0336533784866333,0.15140989422798157,0.10387943685054779,0.03798777237534523,-1.3129582304988212,-2.1940176654857875,-2.150880260570728
2.3424510955810547,0.006108507513999939,0.06582140922546387,0.01737236976623535,0.26516348123550415,0.10982991755008698,0.052123405039310455,-1.3145017188045516,-2.1876641037584847,-2.1453925945281953
2.352353096008301,0.005608260631561279,0.061730384826660156,0.021765485405921936,0.2755761742591858,0.11747771501541138,0.05288959667086601,-1.316442096507372,-2.1793804294508474,-2.137985088571462
2.362579107284546,0.0025022178888320923,0.025113284587860107,0.033648982644081116,0.21084323525428772,0.1223703920841217,0.04400976747274399,-1.3181296482982616,-2.1716203862781276,-2.1311975099372233
2.372770309448242,-0.0017098188400268555,-0.009076714515686035,0.04161359369754791,0.14434756338596344,0.13331732153892517,0.03146068751811981,-1.3193947225485925,-2.1657150285925275,-2.126413030660625
2.3825082778930664,-0.00029227137565612793,-0.01490718126296997,0.02628566324710846,0.11169177293777466,0.147851824760437,0.03314732015132904,-1.3203229312677631,-2.1610070152979564,-2.122998892228835
2.3927130699157715,-0.0023856163024902344,-0.0019459128379821777,0.019810929894447327,0.03457994759082794,0.1479325145483017,0.03721236810088158,-1.3209129606147227,-2.158348420643256,-2.1217564611855355
2.4025471210479736,0.0007668882608413696,-0.02044612169265747,0.028907552361488342,-0.08454704284667969,0.16015438735485077,-0.0064677894115448,-1.320692728161553,-2.158576880255633,-2.12354352529709
2.4125421047210693,-0.008199721574783325,-0.05184882879257202,0.04488445818424225,-0.13605336844921112,0.1592331975698471,-0.016684740781784058,-1.319831599321639,-2.1609137499799815,-2.1276043418258124
2.4226081371307373,-0.003264293074607849,-0.015407145023345947,0.03920698165893555,-0.07641589641571045,0.13414627313613892,-0.006559082306921482,-1.3191410992769175,-2.1631060563110442,-2.1313781775574543
2.4325780868530273,0.010410785675048828,0.01969820261001587,0.01721380650997162,0.006799895316362381,0.12183820456266403,-0.005181162618100643,-1.3189163319799053,-2.16306214505596,-2.1326359060974944
2.442671298980713,0.007384732365608215,0.018246173858642578,0.007500648498535156,0.05603187158703804,0.11535202711820602,-0.014126294292509556,-1.318987734899705,-2.1609282709889786,-2.131622573353999
2.4525392055511475,0.008854210376739502,0.011658191680908203,0.007740020751953125,0.04918275400996208,0.10410043597221375,-0.030810732394456863,-1.3190338363687464,-2.1579783905044474,-2.1296803762468457
2.4626340866088867,0.014309749007225037,0.0034658312797546387,0.008445590734481812,0.0558147057890892,0.10026650875806808,-0.03909822180867195,-1.3189652276081074,-2.1549926968566946,-2.127628476280789
2.4728403091430664,0.016241267323493958,0.007733047008514404,0.005800724029541016,0.144228994846344,0.09869950264692307,-0.056082531809806824,-1.3190481677854655,-2.150095931720602,-2.123578592422599
2.4826912879943848,0.017210930585861206,0.027708470821380615,-0.007831469178199768,0.2312013953924179,0.10345640033483505,-0.05609041452407837,-1.3195316507462354,-2.1422844917317554,-2.116522827772504
2.4928271770477295,0.02395719289779663,0.04035288095474243,-0.02724599838256836,0.20580363273620605,0.10932440310716629,-0.06909409910440445,-1.319982840579928,-2.1334516339506404,-2.108445261165983
2.5028252601623535,0.024463459849357605,0.018569886684417725,-0.01744067668914795,0.1216161921620369,0.11102017015218735,-0.09725069254636765,-1.3199564379366098,-2.1265267449929675,-2.1023491120678592
2.512944221496582,0.024752840399742126,-0.012119174003601074,-0.010537266731262207,0.13416367769241333,0.11572384834289551,-0.13452962040901184,-1.319602458172173,-2.119872467257267,-2.096613796972642
2.5236451625823975,0.020406663417816162,0.005683243274688721,0.00789596140384674,0.15384028851985931,0.09550588577985764,-0.07354658097028732,-1.319437252938112,-2.1125150789872533,-2.090047938232247
2.5328361988067627,0.01967667043209076,0.04213261604309082,0.02214549481868744,0.15035714209079742,0.0685989037156105,-0.07350344210863113,-1.319697506447033,-2.106126285755961,-2.084243276845437
2.5428390502929688,0.016044437885284424,-0.01049572229385376,-0.0066683292388916016,0.22270068526268005,0.07942181080579758,-0.10672552138566971,-1.319823806121176,-2.0983872378302393,-2.0769425825347216
2.552659034729004,0.009486570954322815,0.002331078052520752,-0.043351903557777405,0.42008885741233826,0.08862436562776566,-0.0728096291422844,-1.3206469173444002,-2.0858357762705855,-2.0647980280904363
2.5628511905670166,0.014714345335960388,0.060877084732055664,-0.06045447289943695,0.7604629993438721,0.1304260492324829,-0.03235989436507225,-1.3230713647956187,-2.0639915152392367,-2.0433415693987707
2.5737102031707764,-0.00021027028560638428,0.07641607522964478,-0.040000200271606445,1.2519885301589966,0.1843731701374054,0.03664021193981171,-1.327758899617576,-2.0270338451322845,-2.0068645297991905
2.5827760696411133,-0.014293089509010315,0.10587459802627563,-0.004748478531837463,1.8553895950317383,0.231368288397789,0.15314055979251862,-1.3350562534110781,-1.968632060046498,-1.9489086824417963
2.5927863121032715,-0.016163483262062073,0.14350444078445435,0.0145944282412529,2.5321106910705566,0.30800023674964905,0.2383531928062439,-1.3445125585056932,-1.88166178471926,-1.8622563581550629
2.6028192043304443,-0.03380885720252991,0.1574375033378601,0.039281006902456284,3.1249921321868896,0.4028044641017914,0.3484293222427368,-1.3543738551723579,-1.7586882690498125,-1.7399126585313425
2.612812042236328,-0.04676058888435364,0.1579819917678833,0.0868978500366211,3.553574562072754,0.43152666091918945,0.43495994806289673,-1.3619894638826802,-1.6020893981120254,-1.584000909069066
2.6230661869049072,-0.039610445499420166,0.09963208436965942,0.12532126903533936,3.903447151184082,0.49870336055755615,0.4909856617450714,-1.364359986187382,-1.4187147935385036,-1.4013416767277798
2.632894992828369,-0.04583212733268738,0.06803292036056519,0.11089581251144409,4.167438507080078,0.5793002247810364,0.5656425952911377,-1.3594215363086035,-1.222118027932065,-1.2059531399062016
2.6429800987243652,-0.049467042088508606,0.06781136989593506,0.10670387744903564,4.392266273498535,0.6331512331962585,0.6476632356643677,-1.3463992173765431,-1.0290901988162677,-1.014509644346023
2.652830123901367,-0.04048562049865723,0.029738903045654297,0.12371359765529633,4.607104301452637,0.6760691404342651,0.6977223753929138,-1.3252381009620269,-0.8535810232135629,-0.840784598049353
2.6627392768859863,-0.040658339858055115,0.015865564346313477,0.13852852582931519,4.80933141708374,0.7289851903915405,0.7622186541557312,-1.2966818003122644,-0.7023482332023601,-0.6916126663050033
2.6729869842529297,-0.03935791552066803,0.04117107391357422,0.15179532766342163,5.110929489135742,0.7529017329216003,0.8678723573684692,-1.2617318287248,-0.5747534017461119,-0.5662111765007282
2.682894229888916,-0.030436456203460693,0.0470200777053833,0.15944886207580566,5.914797782897949,0.8067110776901245,0.9809377193450928,-1.2182136777594537,-0.4630740092184522,-0.45649212460071814
2.6928021907806396,-0.01891350746154785,-0.09288257360458374,0.13215777277946472,5.997823715209961,0.8694993853569031,0.8409934043884277,-1.1673812640306176,-0.3727628367365164,-0.36826333390901916
2.7029123306274414,-0.038597702980041504,-0.10046601295471191,0.16709160804748535,6.198816776275635,0.9573619961738586,0.7876651883125305,-1.112395069910574,-0.3030035020103475,-0.3015833304428737
2.713024139404297,-0.039203494787216187,0.032242536544799805,0.13063225150108337,6.270877838134766,1.0387256145477295,0.8165410757064819,-1.054355840032664,-0.24631945231020458,-0.2488348297328634
2.723842144012451,-0.01550651341676712,0.07765346765518188,0.13572418689727783,5.998779296875,1.0259073972702026,0.7744925022125244,-0.9959251591352835,-0.2004994859619385,-0.20740398990315806
2.7329392433166504,0.0010626763105392456,0.01441645622253418,0.19251173734664917,5.205177307128906,0.9719474911689758,0.652347981929779,-0.9418150362829604,-0.16533362047669803,-0.17686721248450962
2.7436881065368652,0.016004160046577454,-0.0997578501701355,0.21134912967681885,4.131107807159424,0.9783323407173157,0.5538482666015625,-0.8963902528148784,-0.13850318393773223,-0.15533948141470108
2.75311017036438,0.01428067684173584,-0.20695006847381592,0.1803557276725769,3.0065383911132812,1.0280450582504272,0.4629136025905609,-0.8616551012019079,-0.11686313925825542,-0.1402816387619947
2.7630021572113037,-0.0053178369998931885,-0.2502819895744324,0.15636372566223145,2.0598034858703613,1.069219946861267,0.34787625074386597,-0.8370453359410771,-0.09865153678961922,-0.13004067470896857
2.7742931842803955,-0.01208067312836647,-0.22401517629623413,0.1282346248626709,1.3577539920806885,1.0416806936264038,0.26856356859207153,-0.8204179132861397,-0.08305078035283153,-0.12328499474354113
2.7830121517181396,0.012002851814031601,-0.14217108488082886,0.1040157675743103,0.9780097603797913,0.9280067682266235,0.22277924418449402,-0.80914697047668,-0.06965150090190515,-0.11845709720524851
2.793076992034912,0.03999520465731621,-0.06417816877365112,0.07607036828994751,0.8476768136024475,0.8151087164878845,0.1955990344285965,-0.8003356318610787,-0.05818162106983701,-0.11465423274472414
2.8030641078948975,0.050874385982751846,0.013438820838928223,0.032254695892333984,1.0333242416381836,0.703289270401001,0.20457154512405396,-0.7911834670731829,-0.048075760568151264,-0.11112886670080796
2.813055992126465,0.04835290089249611,0.10045194625854492,-0.006527066230773926,1.4181207418441772,0.5889201164245605,0.25509437918663025,-0.7791344045081698,-0.03877956541441998,-0.10715886152975877
2.8231801986694336,0.04250650107860565,0.1694866418838501,-0.03496658802032471,1.9465205669403076,0.47312766313552856,0.3194126486778259,-0.7624312832732255,-0.030129311310523946,-0.10235479273923376
2.833090305328369,0.034868024289608,0.1682138442993164,-0.05030578374862671,2.481051206588745,0.3821210563182831,0.37994709610939026,-0.7403470972099259,-0.02205809322093069,-0.09675388719353423
2.843080997467041,0.016583390533924103,0.14070981740951538,-0.047188639640808105,2.95595121383667,0.3297048509120941,0.43555042147636414,-0.7131400963582645,-0.01444202714596878,-0.09062728832693809
2.8530383110046387,-0.00047083524987101555,0.11978602409362793,-0.03976333141326904,3.293877124786377,0.2883544862270355,0.49856722354888916,-0.6818089645202436,-0.00715622411299747,-0.08407913631380172
2.863103151321411,-0.007916713133454323,0.09104907512664795,-0.017697572708129883,3.438969850540161,0.2601361870765686,0.5431322455406189,-0.6479794882767623,-0.00021367234063542664,-0.077261305393167
2.8731842041015625,-0.013409711420536041,0.04945951700210571,0.0242576003074646,3.3929483890533447,0.2504500150680542,0.5566642880439758,-0.613656654138277,0.006286560933714077,-0.07054565080178064
2.883155107498169,-0.022964902222156525,-0.0005829334259033203,0.05756884813308716,3.231818675994873,0.26831191778182983,0.5524593591690063,-0.5803994831844399,0.012427012062050616,-0.06419879370832937
2.893064022064209,-0.03156588226556778,-0.028985261917114258,0.0722929835319519,3.0348641872406006,0.2983507812023163,0.5531398057937622,-0.5489397641835574,0.018472812643866614,-0.05821652877124335
2.9031500816345215,-0.02727525681257248,-0.023909956216812134,0.07956939935684204,2.8458473682403564,0.31145620346069336,0.5429030656814575,-0.51940967977267,0.02440835483608361,-0.052557198901554456
2.913220167160034,-0.020181141793727875,-0.013129204511642456,0.08914756774902344,2.676772117614746,0.31894636154174805,0.5332584381103516,-0.4916174803093151,0.0301319329047004,-0.04727832723271179
2.9236083030700684,-0.01800352707505226,0.0004436075687408447,0.08960926532745361,2.530000925064087,0.32264837622642517,0.5407103300094604,-0.46542827616430227,0.03567542584618137,-0.04219819950978042
2.9332311153411865,-0.01748839020729065,0.021990954875946045,0.0847928524017334,2.4511828422546387,0.3363918960094452,0.5472118854522705,-0.44034451471677405,0.041154545134522325,-0.037198568187900474
2.943279266357422,-0.02037486806511879,0.029659122228622437,0.07482212781906128,2.3812224864959717,0.33400988578796387,0.5234030485153198,-0.41589723969971,0.046494205251209904,-0.032464701745265834
2.9534730911254883,-0.019442759454250336,0.031364232301712036,0.07084238529205322,2.2916030883789062,0.3189893960952759,0.5017030835151672,-0.3923186457792837,0.05146533206731814,-0.028151083393254422
2.963229179382324,-0.007315587252378464,0.041800111532211304,0.06840664148330688,2.203413486480713,0.3039056062698364,0.4872569143772125,-0.3695704634183638,0.05608197795065607,-0.024123217554771103
2.9736342430114746,-0.0014908723533153534,0.04640069603919983,0.06406879425048828,2.06240177154541,0.28440460562705994,0.46912211179733276,-0.3479366332027938,0.06034783557144757,-0.02033938348143755
2.9831771850585938,-0.007297486066818237,0.03748178482055664,0.0728493332862854,1.8542524576187134,0.277654767036438,0.4293392300605774,-0.3280345799006464,0.06429573814739835,-0.016879668831323646
2.9933152198791504,-0.01743096113204956,0.003835916519165039,0.08003389835357666,1.584394931793213,0.29468193650245667,0.38642293214797974,-0.31056531348097627,0.06811843959946215,-0.013788412479838127
3.003396987915039,-0.026355594396591187,-0.016514688730239868,0.07724207639694214,1.3116718530654907,0.321950227022171,0.3490077555179596,-0.29585130615895483,0.07204085259945983,-0.011005857140668646
3.013519287109375,-0.031327277421951294,-0.018399298191070557,0.06930780410766602,1.063881516456604,0.3296014964580536,0.3145941197872162,-0.28377393425200254,0.07603405860176052,-0.008473023658336272
3.023902177810669,-0.02836516499519348,-0.012242347002029419,0.06124037504196167,0.8803438544273376,0.3315107524394989,0.28568902611732483,-0.2738936235785639,0.07998210228315304,-0.006137270610401922
3.0334463119506836,-0.022908993065357208,-0.007169127464294434,0.04711359739303589,0.7855569124221802,0.34237855672836304,0.25015419721603394,-0.2654165466965779,0.08391045806926366,-0.004057632786214801
3.043527126312256,-0.0212131068110466,0.010502487421035767,0.0256384015083313,0.7532645463943481,0.3347626030445099,0.2210860550403595,-0.257564041216037,0.08777022256507765,-0.002313507388963139
3.0533080101013184,-0.01681850105524063,0.03559224307537079,0.012186288833618164,0.7544293999671936,0.3090039789676666,0.20460401475429535,-0.24988273298961064,0.0913739079955238,-0.0008230862306725378
3.063446044921875,-0.01148863136768341,0.04159785807132721,0.00743943452835083,0.774990975856781,0.2824140191078186,0.17733687162399292,-0.242070286789052,0.09463080555815492,0.0004078196177662005
3.073585033416748,-0.011412307620048523,0.03432050347328186,-0.0002964138984680176,0.7984435558319092,0.26129356026649475,0.1540970653295517,-0.23407701649258,0.09756716726179904,0.0013208421802389024
3.0835981369018555,-0.010913021862506866,0.043378084897994995,-0.008023858070373535,0.8037951588630676,0.22669416666030884,0.14884068071842194,-0.22593410765941968,0.10018565011020526,0.002059437245790327
3.0936832427978516,-0.00705353170633316,0.053747087717056274,-0.0067345499992370605,0.7928953766822815,0.20185832679271698,0.13986583054065704,-0.21783853970139072,0.10245377203796842,0.0027074993244517605
3.103445053100586,-0.008889943361282349,0.04662048816680908,-0.009977638721466064,0.7789206504821777,0.19389708340168,0.1441614031791687,-0.20986029297880085,0.10455560732150779,0.0033066924369911286
3.1134371757507324,-0.015386991202831268,0.034493207931518555,-0.01654583215713501,0.7512152791023254,0.18938489258289337,0.15026244521141052,-0.2020937715051375,0.10662196774072866,0.003989615580956165
3.1253180503845215,-0.018762297928333282,0.02573472261428833,-0.012660324573516846,0.7214260697364807,0.17213177680969238,0.14611850678920746,-0.1946074098100595,0.10857599598487797,0.004683574839880076
3.1340081691741943,-0.021199651062488556,0.011336565017700195,-0.006486952304840088,0.7184641361236572,0.164371058344841,0.14431901276111603,-0.1873122931025014,0.11037120760518661,0.0053536929423324674
3.1439480781555176,-0.022960297763347626,0.005845174193382263,-0.008793175220489502,0.7249230146408081,0.16143053770065308,0.14213760197162628,-0.17996963636478994,0.11211448296653671,0.005980768136886053
3.153553009033203,-0.024438239634037018,0.012595906853675842,-0.010647237300872803,0.7289372086524963,0.14093750715255737,0.14683516323566437,-0.1725856592256688,0.11374132508010167,0.006602678188708385
3.1634931564331055,-0.016725994646549225,0.01302078366279602,-0.004639327526092529,0.7523362636566162,0.12835247814655304,0.15492111444473267,-0.16504984930537467,0.1151917986288344,0.007262160466024977
3.174208164215088,-0.012459740042686462,0.009800136089324951,-0.007122039794921875,0.7801953554153442,0.12331057339906693,0.16859324276447296,-0.1572440546275781,0.11656009242494174,0.00798804496506611
3.183624267578125,-0.012250222265720367,0.015325009822845459,-0.01280122995376587,0.7945689558982849,0.11877907067537308,0.1755063831806183,-0.14919876440766092,0.11789487836865473,0.00879005129191552
3.193556308746338,-0.009504839777946472,0.011862635612487793,-0.014302730560302734,0.7650198340415955,0.11247803270816803,0.17498040199279785,-0.1411938028121599,0.1191699287580112,0.009612778514675934
3.203571319580078,-0.006236828863620758,0.00043889880180358887,-0.014762938022613525,0.6650264859199524,0.11263880133628845,0.17723727226257324,-0.13384085812450852,0.12042566031697667,0.010516716274622277
3.2147891521453857,-0.007715508341789246,-0.00797949731349945,-0.008311331272125244,0.5100947022438049,0.11128218472003937,0.16485969722270966,-0.12775719666921412,0.12167569197450802,0.011525686655979365
3.223816156387329,-0.00799085944890976,-0.030957847833633423,0.003951847553253174,0.3103601932525635,0.11817937344312668,0.13441333174705505,-0.12349553832426369,0.12294287866530125,0.012524834181900202
3.2335801124572754,-0.00937209278345108,-0.04963400214910507,0.005229532718658447,0.09926178306341171,0.1214369535446167,0.10495157539844513,-0.12131185459340849,0.12426536996208944,0.013475454226965864
3.2436752319335938,-0.010689228773117065,-0.045265406370162964,0.009962379932403564,-0.07170707732439041,0.11459898203611374,0.06625621765851974,-0.12110740701966763,0.12555304897439476,0.01432540105980676
3.2538390159606934,-0.005679190158843994,-0.040169693529605865,0.014366984367370605,-0.15831626951694489,0.09364815801382065,0.027072327211499214,-0.12224569486535411,0.126696646689786,0.014940112119798706
3.2635741233825684,0.0024773776531219482,-0.021600209176540375,0.016020119190216064,-0.17582786083221436,0.044983234256505966,0.009882795624434948,-0.1239220477752532,0.12745863383270772,0.015337159581404436
3.27447509765625,0.011601567268371582,0.01928257942199707,0.006700336933135986,-0.14269787073135376,-0.004148624371737242,0.0075866179540753365,-0.1255168598648471,0.12768639354840555,0.015634653246664475
3.2836050987243652,0.016510173678398132,0.03832697868347168,-0.011613249778747559,-0.09181366115808487,-0.02875840663909912,0.0046727461740374565,-0.1266689668244524,0.12753935338745565,0.015851964953971242
3.29362416267395,0.013209953904151917,0.03285796940326691,-0.025907814502716064,-0.048599082976579666,-0.03976605087518692,0.006946020759642124,-0.12735221878441566,0.12719822426485022,0.015990148535545787
3.3035731315612793,0.006615146994590759,0.023348763585090637,-0.022460222244262695,-0.01584925688803196,-0.044605281203985214,0.011430837213993073,-0.1276475100774518,0.12678739729764177,0.016119144321989277
3.3136630058288574,0.0002790391445159912,0.018099993467330933,-0.01225578784942627,-0.005466924048960209,-0.04026299715042114,0.013232199475169182,-0.1277241984267058,0.12637371302325773,0.01624653670220696
3.3237931728363037,-0.006334677338600159,0.01293705403804779,-0.0018791556358337402,-0.01938382163643837,-0.028368743136525154,0.01761714741587639,-0.1278066329930387,0.12604065404725395,0.01641242776881111
3.3341331481933594,-0.00915006548166275,0.0027004480361938477,0.006822347640991211,-0.04182574525475502,-0.018753400072455406,0.015603265725076199,-0.12809687516511362,0.12583617256513024,0.016623053125971534
3.3438761234283447,-0.008317828178405762,-0.006529256701469421,0.015126049518585205,-0.05280397832393646,-0.01206180825829506,0.012169971130788326,-0.12855654849626197,0.12571121440944413,0.01681204471612336
3.353687286376953,-0.007018230855464935,-0.006424993276596069,0.018553733825683594,-0.05952872708439827,-0.009819161146879196,0.009070318192243576,-0.12922073817751095,0.12568843008229552,0.016988695046417847
3.3637051582336426,-0.006530851125717163,-0.0009208470582962036,0.020407557487487793,-0.060609422624111176,0.004354848526418209,0.011185027658939362,-0.130025230906402,0.12578016854390056,0.01718169096275859
3.373946189880371,-0.008266426622867584,-0.00142650306224823,0.01681298017501831,-0.041108958423137665,0.026060676202178,0.01385484728962183,-0.13070448960852968,0.1260046093254075,0.0173839712399014
3.3837270736694336,-0.007885850965976715,-0.002858757972717285,0.011242389678955078,-0.003911221865564585,0.044527482241392136,0.020405691117048264,-0.13102559138449815,0.12641423559598106,0.01758708216635798
3.3936891555786133,-0.006131678819656372,0.006009489297866821,0.006933331489562988,0.03319486603140831,0.044216688722372055,0.024019867181777954,-0.13097649967726913,0.1268794563003412,0.017787603384399133
3.403703212738037,-0.002247229218482971,0.011910423636436462,0.011450350284576416,0.06058302894234657,0.045117057859897614,0.0201589222997427,-0.13059600584250647,0.12726761193881567,0.017937637360371086
3.4137892723083496,-0.002257049083709717,0.006111472845077515,0.01415318250656128,0.07050064951181412,0.05856895074248314,0.01956423744559288,-0.12993488432845088,0.12768538827893022,0.018035088765312773
3.4239561557769775,-0.007836505770683289,0.0021391212940216064,0.01106804609298706,0.07165239751338959,0.07342734932899475,0.02387078106403351,-0.1291398258961359,0.12827178226152583,0.018151135101275924
3.4338011741638184,-0.006014823913574219,-7.3015689849853516e-06,0.0077558159828186035,0.07106596976518631,0.07365638017654419,0.02634911984205246,-0.12835003888934698,0.12895072228626053,0.018307422074691444
3.4438462257385254,-0.0020425915718078613,0.0016424953937530518,0.008992493152618408,0.07305729389190674,0.07310301810503006,0.03217659518122673,-0.12765586436600565,0.12963220272551076,0.018500910306202493
3.4537410736083984,-0.0005213171243667603,0.0073106735944747925,0.011034905910491943,0.08563460409641266,0.07425110787153244,0.02838132530450821,-0.12687948345960212,0.13029102045706778,0.018681126359129552
3.463901996612549,-0.0007106512784957886,0.007091984152793884,0.007127940654754639,0.09476353973150253,0.069729283452034,0.027863340452313423,-0.12597707313331763,0.1309338550238282,0.018827341828913057
3.4740991592407227,0.0020791292190551758,0.008601292967796326,0.006833255290985107,0.09730871766805649,0.06414942443370819,0.027318457141518593,-0.1251325000802641,0.1315429260516809,0.01896660090262372
3.4837613105773926,0.0050519853830337524,0.013341359794139862,0.007822811603546143,0.10614924132823944,0.05669253319501877,0.030687354505062103,-0.1242921558810572,0.13212109600858496,0.019121193793836797
3.493889331817627,0.003027483820915222,0.014089986681938171,0.007289469242095947,0.10478783398866653,0.05200590193271637,0.026505393907427788,-0.12335324078094706,0.13264347171071195,0.019250339866434627
3.5039000511169434,0.00010220706462860107,0.01287022978067398,0.00516122579574585,0.09301450848579407,0.050738461315631866,0.024282347410917282,-0.12244517250027485,0.1330738407948508,0.019347646610035088
3.5141682624816895,0.0002496689558029175,0.009234338998794556,0.004455149173736572,0.08128967881202698,0.05011448264122009,0.018719270825386047,-0.12163472600052583,0.13349999253366973,0.019432520187972643
3.524383068084717,-0.002715691924095154,0.007155314087867737,0.0076659321784973145,0.07393980026245117,0.051224175840616226,0.013039599172770977,-0.12094685739573485,0.13395926543961176,0.01948801347072422
3.5340380668640137,-0.005331486463546753,0.01018843799829483,0.009327292442321777,0.06597109138965607,0.054288674145936966,0.010863264091312885,-0.12041228268114278,0.13445348136834434,0.019519209935004382
3.544044017791748,-0.006630793213844299,0.010667882859706879,0.006455898284912109,0.052984531968832016,0.05881032347679138,0.007305014878511429,-0.11996009953207609,0.13499129383668013,0.01951974927608679
3.5540502071380615,-0.006770282983779907,0.011251777410507202,0.0020332932472229004,0.03694378212094307,0.055942364037036896,-0.001194996410049498,-0.11967937344485487,0.13556278519307946,0.01949633823158815
3.5640671253204346,-0.004900753498077393,0.009602069854736328,0.0024911165237426758,0.027017567306756973,0.04859234765172005,-0.006422834470868111,-0.11958892637868801,0.13609612736999133,0.019410246944170127
3.574446201324463,-0.0039402395486831665,0.011554598808288574,0.004619896411895752,0.027151256799697876,0.041609540581703186,-0.010441279038786888,-0.11954342332602305,0.13653051881257205,0.01928889029272117
3.584026336669922,-0.006185650825500488,0.01591823250055313,0.005161941051483154,0.03174041584134102,0.042309511452913284,-0.01495448499917984,-0.11943621881595462,0.1369034558932003,0.01910595139698785
3.5966572761535645,-0.009760081768035889,0.017052151262760162,0.00029468536376953125,0.034127406775951385,0.041528407484292984,-0.013668444007635117,-0.11926237508303723,0.13727686284063084,0.018908158366934196
3.606478214263916,-0.004654288291931152,0.017319463193416595,-0.005371510982513428,0.036851804703474045,0.038672298192977905,-0.017077716067433357,-0.11903925863427818,0.1376204716316788,0.018712418246592952
3.6140592098236084,-0.00024235248565673828,0.012973837554454803,-0.006237626075744629,0.038893118500709534,0.03456650301814079,-0.02125408686697483,-0.11882096706561805,0.13789393685157278,0.018459404591812213
3.6241211891174316,0.002415776252746582,0.011608302593231201,-0.008029162883758545,0.034301843494176865,0.029443690553307533,-0.02020282857120037,-0.1186287534806462,0.13810481047636594,0.0181979713131563
3.6339361667633057,0.004424840211868286,0.010683946311473846,-0.008889853954315186,0.021366339176893234,0.02100306749343872,-0.02277331054210663,-0.11851470672304086,0.13824773630899778,0.017936648291943302
3.644106149673462,0.006623566150665283,0.003914192318916321,-0.0048563480377197266,0.01177830807864666,0.01538916863501072,-0.027548840269446373,-0.1184941590410039,0.13833898646640572,0.017661393372083892
3.6540980339050293,0.007389962673187256,-0.002591729164123535,0.00018465518951416016,-0.009561333805322647,0.008207155391573906,-0.027625272050499916,-0.11865354542496603,0.1383846659901179,0.017379739352329268
