timestamp,accel_x,accel_y,accel_z,rotation_x,rotation_y,rotation_z, pitch,roll,yaw
0.03620100021362305,-0.015254616737365723,-0.0041687265038490295,0.0060117244720458984,0.008647296577692032,0.006631549447774887,-0.007056320086121559,-0.09848985421114217,0.2910783381063608,0.014447634032542104
0.043424129486083984,-0.013246864080429077,-0.004042200744152069,0.0036194920539855957,0.012508613988757133,0.00923185981810093,-0.012740837410092354,-0.09840871333586561,0.29114667443909364,0.014324127783379891
0.055547237396240234,-0.010993033647537231,-0.0017541497945785522,0.0006414651870727539,0.013913131318986416,0.014517968520522118,-0.011843139305710793,-0.09830214758445516,0.29124419371103755,0.01417436742878341
0.06335210800170898,-0.01139688491821289,-0.0030866116285324097,-2.6106834411621094e-05,0.014916610904037952,0.015824515372514725,-0.012423441745340824,-0.0981844609792533,0.29137629025751594,0.014019251967432929
0.07055211067199707,-0.010555058717727661,-0.004260510206222534,8.797645568847656e-05,0.01683581806719303,0.013837531208992004,-0.014183470979332924,-0.09806076639364597,0.2914979740690671,0.013843182300742421
0.07471323013305664,-0.0078046321868896484,-0.003854133188724518,-0.0017467141151428223,0.015096508897840977,0.011071572080254555,-0.014618897810578346,-0.09794375582016926,0.2916025592470666,0.01366487090520194
0.08333802223205566,-0.006290137767791748,-0.007531523704528809,-0.0016019344329833984,0.01282020378857851,0.006292706821113825,-0.016491686925292015,-0.09785177989157626,0.2916597884056977,0.013467332528852566
0.09340310096740723,-0.006494671106338501,-0.008023582398891449,0.0016064643859863281,0.007636094465851784,0.0011472133919596672,-0.01808532327413559,-0.097794244467814,0.2916645747318523,0.013282709323361475
0.10346698760986328,-0.006127744913101196,-0.00713849812746048,0.0031218528747558594,0.0022637168876826763,0.00022083288058638573,-0.01811046153306961,-0.09779417420532716,0.2916478314063202,0.013091992384419925
0.1132969856262207,-0.007004499435424805,-0.008143611252307892,0.002045750617980957,0.005234738811850548,-0.000902222003787756,-0.016583405435085297,-0.09779219706635935,0.29162309299921346,0.012922718471587871
0.12331008911132812,-0.00704580545425415,-0.008544869720935822,0.000302731990814209,0.013543819077312946,0.0001615774817764759,-0.015346474945545197,-0.0977354161608613,0.29160070557340856,0.012744823563263296
0.13343000411987305,-0.009586244821548462,-0.0059792473912239075,0.002043426036834717,0.010971738025546074,-0.0012229997664690018,-0.012982917949557304,-0.097641267516739,0.291573795827494,0.012567196172425991
0.14351701736450195,-0.009773164987564087,-0.006511896848678589,0.0047449469566345215,0.00806241761893034,-0.0011963238939642906,-0.009707923047244549,-0.09756319676076981,0.29154346731839254,0.012430217565639692
0.15358209609985352,-0.010463625192642212,-0.009674280881881714,0.007120788097381592,0.0006471113301813602,0.0004092962481081486,-0.006900684908032417,-0.09753636956836677,0.29151469507213335,0.01233251199640733
0.16354703903198242,-0.013166487216949463,-0.013501189649105072,0.009453535079956055,-0.0012037690030410886,0.0005978918634355068,-0.0023489699233323336,-0.09754863286510719,0.29151721062868724,0.012294050290183062
0.1735692024230957,-0.013406574726104736,-0.012935444712638855,0.009975194931030273,0.0023691277019679546,-3.061443567276001e-05,-0.000999546144157648,-0.09753212872220826,0.2915124546390673,0.01226860174743847
0.18352603912353516,-0.0120868980884552,-0.009937010705471039,0.006776988506317139,0.003467165632173419,-0.0004090932197868824,0.0005812528543174267,-0.09749371998317322,0.29150356385561704,0.012252719778979633
0.19354510307312012,-0.01162940263748169,-0.007498830556869507,0.005684554576873779,0.006536458618938923,0.001471098279580474,-7.601524703204632e-05,-0.09725166289616312,0.29140072035873227,0.01222802120096473
0.20368003845214844,-0.012393772602081299,-0.006762273609638214,0.007310092449188232,0.006244942545890808,0.003365760203450918,0.0005842358805239201,-0.09698686697501518,0.2912984024540153,0.012204007631496332
0.2135930061340332,-0.01313549280166626,-0.003439687192440033,0.006190180778503418,0.0028017419390380383,-0.00032777804881334305,-0.002798777772113681,-0.09682207508023866,0.291159311680388,0.012161588966563277
0.2237100601196289,-0.012820959091186523,-0.0018744170665740967,0.006590664386749268,-0.0034281909465789795,0.0016953363083302975,-0.0055069997906684875,-0.09672118207217592,0.2910185508473404,0.012105062351475425
0.23364019393920898,-0.010624468326568604,-0.0005943402647972107,0.005711495876312256,-0.0006353338249027729,-0.00033638952299952507,-0.005985036958009005,-0.09656954890695285,0.29088691013509277,0.012045797464167826
0.24361205101013184,-0.009392619132995605,0.0015244707465171814,0.003409087657928467,-0.00035698385909199715,-0.0040489686653018,-0.010635768063366413,-0.09632644088522063,0.29069218536461094,0.011952995873425165
0.25361204147338867,-0.007940620183944702,0.0026033520698547363,0.0028645992279052734,-0.0007439409382641315,-0.005069758743047714,-0.00950419157743454,-0.0961163375964344,0.29047559433110703,0.011833062504429021
0.2636232376098633,-0.004677921533584595,0.003667883574962616,0.0004798769950866699,-0.0010573284234851599,-0.005916643422096968,-0.009479849599301815,-0.09598197296446882,0.29026652995800006,0.011723747345977833
0.2741091251373291,-0.00518113374710083,0.0027996599674224854,0.0007148385047912598,0.00010194559581577778,-0.005366434808820486,-0.011811713688075542,-0.09590379184670429,0.29005600102774814,0.011606215085134364
0.28387022018432617,-0.007243752479553223,0.00035416334867477417,0.00430983304977417,0.0023857560008764267,-0.008286900818347931,-0.015159573405981064,-0.09583124914405006,0.28983273805748344,0.011460237476193718
0.29393720626831055,-0.00724261999130249,-0.0002977326512336731,0.006333470344543457,0.0037346472963690758,-0.006098315119743347,-0.015206445008516312,-0.09581166820761214,0.289591039510187,0.011287259463993568
0.30406618118286133,-0.004735112190246582,0.0003946945071220398,0.0060482025146484375,0.00496005080640316,-0.0065100849606096745,-0.014665663242340088,-0.0958058725238168,0.28936168536423174,0.01111399897317393
0.31380224227905273,-0.003858596086502075,2.3663043975830078e-05,0.0032492876052856445,0.003671347163617611,-0.007952986285090446,-0.014036091975867748,-0.09582604626565111,0.28916324034543556,0.01095833159385491
0.3238091468811035,-0.004986554384231567,-0.0022539645433425903,0.004498541355133057,0.001754669938236475,-0.005790232215076685,-0.013457387685775757,-0.09589143571066429,0.28898791685190234,0.010816930054617625
0.3339099884033203,-0.005881905555725098,-0.005060218274593353,0.007218718528747559,-0.005933343432843685,-0.008049923926591873,-0.008642125874757767,-0.09601270634666574,0.28882634579787,0.010707730718882305
0.343904972076416,-0.005009263753890991,-0.006915576756000519,0.01082390546798706,-0.01089499518275261,-0.007730212528258562,-0.005007976666092873,-0.09619041685909614,0.2887004361336381,0.010658725102661538
0.3539390563964844,-0.0024311840534210205,-0.00950411707162857,0.010124921798706055,-0.013288111425936222,-0.008086543530225754,-0.0008169598877429962,-0.096368893633734,0.28857831053322447,0.01066010315281989
0.3639791011810303,-0.0036160945892333984,-0.01084955781698227,0.00895071029663086,-0.009323996491730213,-0.009521188214421272,0.003969539888203144,-0.09647889204439389,0.2884320513252939,0.010705001142870166
0.37395715713500977,-0.00022664666175842285,-0.009164787828922272,0.007605552673339844,-0.0007608686573803425,-0.012176891788840294,0.007324590347707272,-0.09650321695848293,0.28827075932461615,0.010765392974752633
0.3839070796966553,-0.00048047304153442383,-0.00767497718334198,0.0066983699798583984,-0.001263057580217719,-0.010854410007596016,0.009992971085011959,-0.09649345811696947,0.2881366942467721,0.01084281209456991
0.39394092559814453,-0.0026199817657470703,-0.00819987803697586,0.008432865142822266,-0.007030665874481201,-0.0055227624252438545,0.01141323521733284,-0.0964995915436699,0.2880443811338548,0.010955792744597329
0.40400218963623047,-0.004937797784805298,-0.009165331721305847,0.010095834732055664,-0.014338396489620209,-0.003278027754276991,0.010133478790521622,-0.09653442194451167,0.28797984896741013,0.01109269789450607
0.4139831066131592,-0.005394250154495239,-0.010976947844028473,0.011401057243347168,-0.021005354821681976,-0.0026433970779180527,0.009761967696249485,-0.09659154085400432,0.28793215497075575,0.01124083260899494
0.4242091178894043,-0.004050195217132568,-0.008416473865509033,0.009844601154327393,-0.017816035076975822,-0.0009408826008439064,0.01097562350332737,-0.09664055724387625,0.28791621739157597,0.011390775928118798
0.43393898010253906,-0.004260122776031494,-0.005967967212200165,0.006605625152587891,-0.012454825453460217,-4.446273669600487e-05,0.011566579341888428,-0.09660275864599237,0.2879432407258574,0.011539533523966477
0.44388604164123535,-0.004154384136199951,-0.004888765513896942,0.002787292003631592,-0.007902868092060089,-0.0009002690203487873,0.01034844946116209,-0.09648429947236288,0.2879409508684221,0.011674311893735535
0.4541511535644531,-0.005217641592025757,-0.0030990540981292725,0.0018753409385681152,-0.005090569145977497,-0.0024310541339218616,0.008465594612061977,-0.09637254837690483,0.2879646607457504,0.011789214767242973
0.4639711380004883,-0.005952805280685425,-0.0023359134793281555,0.0028008222579956055,-0.001965882256627083,-0.004646626766771078,0.00861920602619648,-0.09626503299727027,0.287964449090362,0.011884938250320626
0.47411394119262695,-0.005713135004043579,-0.0032465532422065735,0.002926647663116455,-0.0036311571020632982,-0.004951025824993849,0.006661515682935715,-0.0961528091617577,0.2879339024125659,0.011963527942561078
0.48405909538269043,-0.006403863430023193,-0.00617537647485733,0.0031221508979797363,-0.00560284499078989,-0.005864179693162441,0.008391771465539932,-0.09604464222123449,0.2878711769825688,0.01204780544000794
0.49410009384155273,-0.00476488471031189,-0.006208732724189758,0.0013107061386108398,-0.008188508450984955,-0.0077518280595541,0.008525995537638664,-0.0959401895471356,0.2877817073881515,0.012144067100478212
0.5042362213134766,-0.003881782293319702,-0.006254129111766815,0.0016470551490783691,-0.008173261769115925,-0.009157799184322357,0.010392391122877598,-0.0958938211355653,0.28768645513690894,0.012258839210420364
0.5140862464904785,-0.005195915699005127,-0.006069794297218323,0.0031186938285827637,-0.0023111114278435707,-0.010652633383870125,0.013019067235291004,-0.09583125734343143,0.2875746966910699,0.012379875100809748
0.5241599082946777,-0.006802588701248169,-0.005571834743022919,0.0025730133056640625,0.001107122516259551,-0.011707155033946037,0.01260760985314846,-0.09572957241109281,0.28743268060775984,0.012497213183896756
0.5342080593109131,-0.007095009088516235,-0.0036771297454833984,0.005246758460998535,0.004761778749525547,-0.00971058290451765,0.009902901947498322,-0.09563496359862456,0.28728875792553793,0.012591098459521928
0.5441799163818359,-0.0095730721950531,-0.0045607611536979675,0.006649911403656006,0.007510343566536903,-0.007422084454447031,0.00793706439435482,-0.09552627353593857,0.28716423392506263,0.012650955979400537
0.5543010234832764,-0.01236388087272644,-0.0037404969334602356,0.005679130554199219,0.00887361541390419,-0.002686984371393919,0.004750325344502926,-0.09539205374649104,0.28707891711806743,0.012686367737117515
0.5641860961914062,-0.011462181806564331,-0.0024437308311462402,0.004844486713409424,0.00801694393157959,0.0015937811695039272,0.00457226624712348,-0.09522367123757226,0.2870087469249915,0.012696821957423207
0.5741739273071289,-0.011874943971633911,-0.003955356776714325,0.004894375801086426,0.006431830581277609,0.0022553105372935534,0.0024728961288928986,-0.0950714058152441,0.2869892724111134,0.012696173912878786
0.5841259956359863,-0.011053204536437988,-0.003534354269504547,0.0045130252838134766,0.0015495398547500372,-0.0007729250937700272,0.0006768072489649057,-0.09495505303400868,0.2869723703965086,0.012690995926648121
0.5941219329833984,-0.00773194432258606,-0.0029348209500312805,0.002733945846557617,-0.0052641574293375015,-0.002176943700760603,0.0007833335548639297,-0.09490460722332276,0.2869124506509194,0.012695534532705747
0.6044549942016602,-0.003378063440322876,-0.0034105703234672546,0.0020160675048828125,-0.005731259472668171,-0.0065880706533789635,0.002500433474779129,-0.09489201337969748,0.28681078648640285,0.012710038129063671
0.6142549514770508,-0.0047390758991241455,-0.004912875592708588,0.0026057958602905273,-0.00047497847117483616,-0.011252597905695438,0.0021712668240070343,-0.09488366640642877,0.2866699008049124,0.0127416713782057
0.6241731643676758,-0.007046997547149658,-0.0017678290605545044,0.003049314022064209,0.00682434719055891,-0.01347837969660759,0.0038568878080695868,-0.09478995344944041,0.28647952504237467,0.012752473429287156
0.6345429420471191,-0.005408734083175659,0.00033377110958099365,0.0015889406204223633,0.0069748153910040855,-0.013881314545869827,0.0026472799945622683,-0.09467146939738012,0.2862307198806328,0.012761966117020882
0.6463289260864258,-0.004516959190368652,-0.0005052089691162109,0.0024335384368896484,-0.0006574713625013828,-0.011323615908622742,0.0027850717306137085,-0.09460990302529314,0.286014195347193,0.012773535416652508
0.6552948951721191,-0.006647944450378418,-0.0028450489044189453,0.004865765571594238,-0.009207816794514656,-0.0088790999725461,0.004725184757262468,-0.09459984300246423,0.2858327104894438,0.012819828405973448
0.664391040802002,-0.007712274789810181,-0.004184156656265259,0.009148001670837402,-0.01084114983677864,-0.007265712600201368,0.0033699553459882736,-0.09465747039126013,0.2856705865940476,0.012876955487523602
0.6746280193328857,-0.006759583950042725,-0.0025481507182121277,0.009497582912445068,-0.008056548424065113,-0.006908050272613764,0.0026125526055693626,-0.09470012047304009,0.28555296062101554,0.012925114635152533
0.6843020915985107,-0.006068617105484009,0.00033827871084213257,0.007835447788238525,-0.007034909911453724,-0.0036604581400752068,0.0004982156679034233,-0.09472824928109291,0.2854853617362187,0.012953450815172358
0.6943349838256836,-0.005901992321014404,0.0022468864917755127,0.007546544075012207,0.0017484617419540882,-0.002179207280278206,-0.0031037097796797752,-0.09469633043140228,0.2854378282768154,0.01295584342242241
0.7045111656188965,-0.005104243755340576,0.0028712376952171326,0.006746113300323486,0.004837711341679096,-0.0007292493246495724,-0.003836238756775856,-0.09465161002243092,0.2853682080631486,0.012913009968033226
0.7143568992614746,-0.0034789741039276123,0.0016595348715782166,0.00728452205657959,0.008299821056425571,-0.0020427205599844456,-0.005417889915406704,-0.09461191873587399,0.2853109861809517,0.01284017352608327
0.7243781089782715,-0.001999974250793457,0.0030206963419914246,0.009185314178466797,0.007053561974316835,-0.0026161884889006615,-0.005757602863013744,-0.09454746610078614,0.2852464479706371,0.012755520998628986
0.7344090938568115,-0.0026422441005706787,0.0028205886483192444,0.01163482666015625,0.0034617562778294086,9.384425356984138e-05,-0.008263638243079185,-0.09448790488215528,0.2851823392437462,0.01267122187308153
0.7444360256195068,-0.004016458988189697,-0.0003215298056602478,0.011208593845367432,-0.0003822005819529295,0.0009057093411684036,-0.009216303937137127,-0.094456050601768,0.2851345358694436,0.012576252728051551
0.7544069290161133,-0.003483206033706665,-0.0007029101252555847,0.0095939040184021,-0.0012123077176511288,0.004444784019142389,-0.009113505482673645,-0.09447129153651763,0.285119813827524,0.012492908451307513
0.7645149230957031,-0.003146231174468994,-0.0015604197978973389,0.009768128395080566,0.0007963150274008512,0.006057682912796736,-0.010908476077020168,-0.09452029409382336,0.28513577856287686,0.012395301655365318
0.7749099731445312,-0.005134522914886475,-0.0028007254004478455,0.010253310203552246,-0.0021387548185884953,0.010721144266426563,-0.009182214736938477,-0.09460130206652198,0.28517488849386846,0.012294121820345328
0.7844882011413574,-0.005936861038208008,-0.002690844237804413,0.00806039571762085,0.004490935243666172,0.010057173669338226,-0.009082132950425148,-0.09465952113526195,0.28524966851290584,0.012191379978432438
0.7954912185668945,-0.004821360111236572,-0.002046622335910797,0.007397890090942383,0.009779440239071846,0.008615604601800442,-0.006789151579141617,-0.09465616380569478,0.28532777288168015,0.012095021409124168
0.8054852485656738,-0.004004418849945068,-0.002859748899936676,0.007557690143585205,0.01685703918337822,0.010290510952472687,-0.006461529526859522,-0.09459927908526918,0.2854294051071534,0.011986514421337486
0.8144521713256836,-0.0040694475173950195,-0.0014829933643341064,0.005447089672088623,0.011536044999957085,0.009162662550807,-0.005472165532410145,-0.09451916973969277,0.28552716689724433,0.011888561024360552
0.8244600296020508,-0.003579378128051758,-0.0018141195178031921,0.004346787929534912,0.004704004619270563,0.008569310419261456,-0.00476823840290308,-0.09446859723230319,0.28560378393805547,0.011805488246851629
0.8344922065734863,-0.003281831741333008,-0.0062653496861457825,0.0043315887451171875,-0.0013727964833378792,0.00442676292732358,-0.004871835932135582,-0.0944642329956594,0.2856595240670888,0.011758529206062265
0.8445310592651367,-0.004340022802352905,-0.007857687771320343,0.0057089924812316895,-0.007963255047798157,0.002753143897280097,-0.0044171810150146484,-0.09451567424656217,0.2856825449330201,0.011726520878102841
0.8545570373535156,-0.005209565162658691,-0.005206450819969177,0.006436526775360107,-0.013027788139879704,-0.00031694816425442696,-0.0038387421518564224,-0.09461144126746164,0.2856690302884706,0.011711301817423391
0.8645870685577393,-0.003896951675415039,-0.006273716688156128,0.003946423530578613,-0.01697068102657795,-0.0001222267746925354,0.0007776878774166107,-0.09473321051016785,0.28564010605514106,0.011738282508071324
0.8747220039367676,-0.006064385175704956,-0.00574696809053421,0.003327488899230957,-0.012836390174925327,0.00047911517322063446,-0.00012698781210929155,-0.09486317479652671,0.2856284883545515,0.01178747359762619
0.8846192359924316,-0.007205367088317871,-0.005111321806907654,0.00343477725982666,-0.006577229127287865,-0.001356602180749178,-0.0015931647503748536,-0.09491440089259513,0.2856103221743587,0.011804553830418372
0.894658088684082,-0.008166611194610596,-0.0037968307733535767,0.004738032817840576,0.006184105761349201,0.000998963601887226,0.001100622583180666,-0.09489681884261598,0.28559379691673664,0.011801708443869043
0.9046740531921387,-0.008260458707809448,-0.0012434199452400208,0.003130972385406494,0.0018717660568654537,0.00010036909952759743,-0.0013836272992193699,-0.09483029272836888,0.28557834526594716,0.011778539653383905
0.9145951271057129,-0.007107138633728027,-0.001550041139125824,-0.0018591880798339844,-0.01516261138021946,0.0035536899231374264,0.0014941846020519733,-0.09481642889026987,0.28558463957503627,0.011787611709229063
0.9246470928192139,-0.004732608795166016,-0.00362483412027359,-0.0036992430686950684,-0.03307424858212471,0.007099112495779991,0.0034389847423881292,-0.09495397509612265,0.28562655243840446,0.011879473831973146
0.934643030166626,-0.004136532545089722,-0.0063535794615745544,-0.004200160503387451,-0.03572862222790718,0.00841391459107399,0.006797497160732746,-0.09521195909654225,0.28569663477634843,0.012039850308133492
0.9448070526123047,-0.0038112401962280273,-0.006068497896194458,-0.0015912055969238281,-0.02757691964507103,-1.4456920325756073e-05,-0.001396730076521635,-0.09544674149033501,0.28573010764631723,0.012158491844157078
0.9546830654144287,-0.0013824701309204102,-0.0016591176390647888,0.005250811576843262,-0.01790005899965763,-0.014638673514127731,-0.004036988131701946,-0.09560043982695546,0.285603886555435,0.012178666301951758
0.9648189544677734,0.001515120267868042,0.002262584865093231,0.013052403926849365,-0.011048393324017525,-0.016215842217206955,-0.005637547932565212,-0.09567689100278982,0.2854000158937126,0.012155532306434406
0.9749460220336914,-0.0016449689865112305,-0.0017628222703933716,0.012771785259246826,-0.022612905129790306,-0.011041587218642235,-0.006151271052658558,-0.09581192299735318,0.28521370872566537,0.012148520904951794
0.9848470687866211,-0.0029571056365966797,-0.004385717213153839,0.00962609052658081,-0.018228426575660706,-0.01012088730931282,-0.0018505326006561518,-0.095978917611602,0.2850585151918612,0.012132120924507725
0.996021032333374,-0.0029078125953674316,-0.008617490530014038,0.009427249431610107,-0.03151120990514755,-0.008953357115387917,-0.007578193210065365,-0.09619864574968824,0.2849332859386786,0.012172699038377165
1.0047869682312012,-0.0003167390823364258,-0.006100095808506012,0.009310901165008545,-0.03430008888244629,-0.00675833597779274,-0.0021793798077851534,-0.09649022096516338,0.2848167705792068,0.012202064538650935
1.0147171020507812,0.0008763670921325684,-0.011682838201522827,0.013003766536712646,-0.01480068825185299,-0.006509862840175629,0.0011663492769002914,-0.0966108799522554,0.28472130542850754,0.012265657590063822
1.0249791145324707,-0.007221132516860962,0.0016794875264167786,0.012715935707092285,-0.010919113643467426,-0.0047647375613451,0.001536741852760315,-0.09663059760008186,0.28465281334834286,0.012305727283657048
1.0348539352416992,-0.003737807273864746,-0.003046944737434387,0.014139235019683838,-0.015280039981007576,-0.007141342386603355,0.0006602955982089043,-0.0967341057476528,0.28460333471702404,0.012357113663479719
1.0447590351104736,-0.003218322992324829,-0.008818984031677246,0.011039912700653076,-0.006979766301810741,0.00014266930520534515,0.0013833439443260431,-0.0968609911989669,0.2846221958245235,0.012405266122727581
1.0547852516174316,-0.005758404731750488,-0.0043828487396240234,0.008143067359924316,-0.0006196047179400921,0.0005735689774155617,0.000332460505887866,-0.09688050515782358,0.28466212935887036,0.012429599981355505
1.064885139465332,-0.0050115883350372314,-0.0015298202633857727,0.004657745361328125,0.005977062042802572,-0.0012670750729739666,0.0024751336313784122,-0.096788890708982,0.28466044950680314,0.012436687300838078
1.074934959411621,-0.00496634840965271,0.001743510365486145,0.0038390755653381348,0.006913695950061083,-0.0006750542670488358,0.0003339520189911127,-0.09662760020271297,0.2846404317401761,0.012421016010894742
1.0863351821899414,-0.00600886344909668,0.0010131672024726868,0.004088282585144043,-0.00032549165189266205,0.0007252800278365612,0.0016076886095106602,-0.09651820326872533,0.2846584714109274,0.012429446385147775
1.0974640846252441,-0.0073146820068359375,-0.0013390108942985535,0.0041651129722595215,-0.003086923388764262,-0.0005346615798771381,0.005526530556380749,-0.09639789967949083,0.284696265147575,0.012473143891860598
1.106551170349121,-0.00601506233215332,-0.002517208456993103,0.0030239224433898926,-0.0053148576989769936,-0.002717654686421156,0.0038025062531232834,-0.09646250101552253,0.2846633912787671,0.012535273844317097
1.1162710189819336,-0.005003899335861206,-0.0025366395711898804,0.004403829574584961,-0.0074318042024970055,-0.00547935301437974,0.007855305448174477,-0.09649735891276874,0.28462816868316626,0.012615740172704488
1.1248180866241455,-0.002762734889984131,-0.00211285799741745,0.006285429000854492,-0.007448316086083651,-0.008702754974365234,0.007950272411108017,-0.0964701756203518,0.28456545756128904,0.012715365292339364
1.1348590850830078,-0.0033141672611236572,0.0020107701420783997,0.008318305015563965,-0.00756496237590909,-0.012192560359835625,0.006671423092484474,-0.09648172476920334,0.2844401974996429,0.012809698465271956
1.145172119140625,-0.0032501220703125,0.004309520125389099,0.007420241832733154,-0.013405025005340576,-0.011692995205521584,0.0023783009964972734,-0.09656373628917868,0.28429565164880016,0.012874938149796414
1.1558642387390137,-0.0031357407569885254,0.006187319755554199,0.0044994354248046875,-0.009680594317615032,-0.010205088183283806,0.0005830638110637665,-0.09670073988744636,0.28416382756324005,0.012916510695601617
1.1653761863708496,-0.004952043294906616,0.008528150618076324,0.0029911398887634277,-0.0008063754066824913,-0.01105472445487976,-0.00610519852489233,-0.09677112380145188,0.2840226306810489,0.012897366052477358
1.1752829551696777,-0.006194412708282471,0.012438386678695679,0.0005623102188110352,0.0025004716590046883,-0.010707715526223183,-0.011232316493988037,-0.09676711802703414,0.28386953280689153,0.012805665785375267
1.18743896484375,-0.006655663251876831,0.011776335537433624,0.003269493579864502,-0.007517391350120306,-0.007755201309919357,-0.017081310972571373,-0.0967883959150296,0.2837300600097836,0.01267495864431254
1.1950221061706543,-0.007616609334945679,0.009814031422138214,0.0075386762619018555,-0.01905260607600212,-0.0047713955864310265,-0.019033141434192657,-0.09693559181376393,0.28363801409959066,0.01252419457606205
1.2053310871124268,-0.009869664907455444,0.007784143090248108,0.01101076602935791,-0.03829371556639671,-0.000828408170491457,-0.02177204191684723,-0.09725802113782969,0.2836097634792669,0.012404693897211286
1.2152340412139893,-0.007968693971633911,0.002319931983947754,0.01164698600769043,-0.051729362457990646,0.00283929705619812,-0.024651985615491867,-0.09778087034050768,0.2836153545709351,0.01231712361756408
1.2252202033996582,-0.006242513656616211,0.0008874833583831787,0.014439880847930908,-0.05899724364280701,-4.601571708917618e-05,-0.026382507756352425,-0.09842294720086345,0.28361580123736624,0.012235913540682054
1.2372379302978516,-0.004704326391220093,-4.56199049949646e-05,0.01695239543914795,-0.061872925609350204,0.002523934468626976,-0.028419293463230133,-0.09914595275619756,0.2836078318010862,0.012129949796573909
1.2450971603393555,-0.003479599952697754,0.0005629956722259521,0.018515586853027344,-0.07102830708026886,-0.0011237082071602345,-0.03161604702472687,-0.09991443176211709,0.2835940241699507,0.01202091062964868
1.2550592422485352,-0.004610419273376465,0.0003220364451408386,0.017207205295562744,-0.08759583532810211,0.004851359874010086,-0.032068781554698944,-0.10087740642921685,0.2835761419139545,0.011936038915250245
1.2651920318603516,-0.0038779377937316895,-0.0057077556848526,0.017626583576202393,-0.1014794260263443,0.015244435518980026,-0.028995439410209656,-0.10192293862949123,0.28362304389615506,0.011888295548319385
1.2751412391662598,-0.008244991302490234,-0.006072208285331726,0.017812013626098633,-0.10616658627986908,0.006265587173402309,-0.03407648578286171,-0.10305627949495721,0.2837081428337311,0.01187469331018143
1.2864999771118164,-0.0016483962535858154,-0.007602512836456299,0.015603780746459961,-0.12246213853359222,0.008630651980638504,-0.03695105016231537,-0.10430336725078833,0.2837409781167483,0.01184809064620561
1.2951810359954834,-0.002589881420135498,-0.013769969344139099,0.017347991466522217,-0.12247065454721451,0.013229131698608398,-0.028144242241978645,-0.10554907705246795,0.28382237694315987,0.0118662248468165
1.3050799369812012,-0.010258018970489502,-0.01044076681137085,0.013541162014007568,-0.15630114078521729,0.0068824198096990585,-0.019299883395433426,-0.10691201280621236,0.2839533373844051,0.012043265466000567
1.3151521682739258,-0.0025795400142669678,-0.018612347543239594,0.014476001262664795,-0.20981229841709137,-0.003946525976061821,-0.024301566183567047,-0.10865450088920574,0.28400490546329077,0.012344300254465137
1.3252661228179932,-0.001155942678451538,-0.03260718286037445,0.023846209049224854,-0.3286583721637726,-0.019585851579904556,-0.045438118278980255,-0.11131285354590773,0.2839259175919188,0.012788915267899867
1.339083194732666,-0.00082436203956604,-0.04725886881351471,0.02562791109085083,-0.39644938707351685,-0.030536768957972527,-0.03907715529203415,-0.11483284605255516,0.2837748880043547,0.013382756844068717
1.34635591506958,0.005119204521179199,-0.05060357600450516,0.013321161270141602,-0.4504842758178711,-0.057880155742168427,-0.03864055871963501,-0.11890725709490094,0.2834259375236628,0.014212709667795627
1.355215072631836,0.013574153184890747,-0.024528317153453827,0.0042931437492370605,-0.47773054242134094,-0.0536838099360466,-0.039207011461257935,-0.12339773982379641,0.28295899265025265,0.015126242126316506
1.3651862144470215,0.014950960874557495,-0.03111967444419861,0.006129145622253418,-0.5016139149665833,-0.07006766647100449,-0.01797325536608696,-0.12796519210212534,0.28249833550912673,0.01623893240053859
1.3754010200500488,0.009385764598846436,-0.037687525153160095,0.010718286037445068,-0.6297090649604797,-0.09410110116004944,-0.045746032148599625,-0.13321976159418267,0.28184472028513796,0.01751381467523607
1.3872361183166504,0.0051184892654418945,-0.04153481125831604,0.020362913608551025,-0.8082102537155151,-0.12916214764118195,-0.07469448447227478,-0.14004508507646748,0.28092402649515497,0.018929725740612656
1.3954830169677734,0.00946095585823059,-0.08227179944515228,0.03409963846206665,-1.0830799341201782,-0.15898475050926208,-0.12364018708467484,-0.14937019331756557,0.27970121595636743,0.020629218707187008
1.405683994293213,0.008011341094970703,-0.1072482168674469,0.05085664987564087,-1.46481454372406,-0.17641514539718628,-0.1978428214788437,-0.16197160600192478,0.2783397523323722,0.022595322306197863
1.4151840209960938,0.007166624069213867,-0.1256781667470932,0.05309814214706421,-1.9171868562698364,-0.19664716720581055,-0.29816651344299316,-0.1789541766370485,0.2768440721734413,0.02488762550460728
1.42519211769104,0.01902240514755249,-0.14360423386096954,0.060343921184539795,-2.295715570449829,-0.23284584283828735,-0.38271617889404297,-0.20025304672046565,0.27519218481363816,0.02739693813969349
1.4374589920043945,0.02191254496574402,-0.15599685907363892,0.06503516435623169,-2.634469985961914,-0.283051997423172,-0.5031049251556396,-0.22521775081648857,0.27311809342900023,0.029900278162623382
1.445310115814209,0.018665164709091187,-0.15121343731880188,0.06489264965057373,-2.925957202911377,-0.30314335227012634,-0.5602637529373169,-0.2534670750005511,0.2708140660631338,0.03225768825561709
1.4553720951080322,0.02698206901550293,-0.12375223636627197,0.038599371910095215,-3.133537769317627,-0.3625403642654419,-0.5225270390510559,-0.2842415123361052,0.26824548893037353,0.03517883736260443
1.4654631614685059,0.02782435715198517,-0.07336273789405823,0.018830478191375732,-3.2914834022521973,-0.40444183349609375,-0.5220334529876709,-0.3166015077520509,0.2655342411182396,0.03884603351654486
1.4753899574279785,0.022708967328071594,-0.04949304461479187,-0.000791013240814209,-3.30808162689209,-0.44632402062416077,-0.5107717514038086,-0.34995816754341624,0.2625375832557836,0.04272029292457419
1.4867520332336426,0.027905166149139404,-0.02850210666656494,-0.03183954954147339,-3.1812562942504883,-0.4966156780719757,-0.4864918887615204,-0.3826676350563952,0.2591790145622865,0.04653871519340279
1.4953641891479492,0.04171530902385712,0.010914444923400879,-0.07165038585662842,-2.950401544570923,-0.5453933477401733,-0.4314901530742645,-0.4134707488103695,0.2552934293071726,0.05024700209082658
1.5054271221160889,0.038561880588531494,0.027035057544708252,-0.08847469091415405,-2.6668241024017334,-0.5013312697410583,-0.3647533655166626,-0.44153289556511216,0.25151378996843315,0.05370674881226196
1.5153911113739014,0.013564065098762512,0.017570197582244873,-0.09138864278793335,-2.4444878101348877,-0.4774554967880249,-0.30451905727386475,-0.467180875528561,0.24823039632499408,0.05712511476621349
1.5254311561584473,-0.016076281666755676,0.010725587606430054,-0.07478809356689453,-2.463400363922119,-0.4684627056121826,-0.3473552465438843,-0.4916288738043078,0.24487626060837328,0.06033001362672187
1.5367660522460938,-0.027378618717193604,-0.02501341700553894,-0.03173375129699707,-2.6156327724456787,-0.3892858624458313,-0.3506722152233124,-0.517166908284377,0.24208705632665178,0.0633235359003221
1.5454349517822266,-0.029892131686210632,-0.09886229038238525,0.01200854778289795,-2.8077194690704346,-0.32573339343070984,-0.36386749148368835,-0.5443932285723023,0.24032818517554225,0.06691333496116457
1.5554699897766113,-0.04860399663448334,-0.12067174911499023,0.01860755681991577,-2.811049461364746,-0.38656240701675415,-0.39629626274108887,-0.5725942138439987,0.23874726381705774,0.07044725937703643
1.5657460689544678,-0.03254075348377228,-0.09332621097564697,0.024198472499847412,-2.8334474563598633,-0.41435229778289795,-0.4190960228443146,-0.6010692449182825,0.23643696538112097,0.07363310148004201
1.5755929946899414,0.0013110488653182983,-0.04141348600387573,0.03307253122329712,-2.813344955444336,-0.3594951629638672,-0.3916151225566864,-0.6295068475060924,0.23438803685424184,0.07684990581143662
1.5887460708618164,-0.00798112154006958,-0.03319847583770752,0.00781923532485962,-2.7244253158569336,-0.3331013321876526,-0.3866303861141205,-0.6573462884693724,0.23300459606832538,0.0802336780238829
1.5960850715637207,-0.02770911157131195,-0.01885586977005005,-0.0036439895629882812,-2.6181678771972656,-0.36765027046203613,-0.3607124984264374,-0.6842294252150369,0.23144165644937145,0.08332812720202808
1.6056630611419678,-0.01394645869731903,0.0025246739387512207,-0.0023196935653686523,-2.5803041458129883,-0.42798328399658203,-0.3697234094142914,-0.7102608181065967,0.2295049924270285,0.08648905564553572
1.615480899810791,0.016578972339630127,-0.008461952209472656,-0.013195812702178955,-2.726656198501587,-0.4250897467136383,-0.3867415487766266,-0.7369549877325839,0.22721991664362085,0.08959800482462627
1.6255569458007812,0.013619095087051392,-0.047939419746398926,-0.0013712048530578613,-3.0012619495391846,-0.41016894578933716,-0.4271121323108673,-0.7656908328806348,0.2252988738502841,0.09292412825060158
1.6374340057373047,-0.00022639334201812744,-0.10975867509841919,0.003006458282470703,-3.3056087493896484,-0.33243128657341003,-0.44879665970802307,-0.7975390412056904,0.22442092902661676,0.09689480385519708
1.6457409858703613,-0.0033005177974700928,-0.12390029430389404,-0.003876626491546631,-3.5864224433898926,-0.3210681974887848,-0.4766784608364105,-0.8323285830484715,0.2243898368006881,0.10141380593272711
1.6562919616699219,0.010009542107582092,-0.11291247606277466,-0.031964123249053955,-3.6644458770751953,-0.2920815646648407,-0.44635146856307983,-0.8687648435105612,0.22555482430448845,0.10683550320601969
1.6656770706176758,0.03608712553977966,-0.09470391273498535,-0.06222271919250488,-3.6532623767852783,-0.34523993730545044,-0.4523966610431671,-0.9055523748946154,0.2270256153556258,0.11291538164570324
1.675565242767334,0.033263206481933594,-0.05263000726699829,-0.04398298263549805,-3.7101664543151855,-0.42356589436531067,-0.4661633372306824,-0.9423589419268652,0.22820579181961229,0.11919197093234407
1.686769962310791,0.03637440502643585,-0.04786229133605957,-0.03137540817260742,-3.7508788108825684,-0.43758663535118103,-0.4246097803115845,-0.9796501653832466,0.2298171601463993,0.12632319148296958
1.695570945739746,0.046971797943115234,-0.05553436279296875,-0.023773908615112305,-3.8731799125671387,-0.4858492314815521,-0.42196765542030334,-1.0179842448504943,0.23249393229386464,0.1349908486875859
1.7055881023406982,0.05689125508069992,-0.06084030866622925,-0.03551042079925537,-3.9750545024871826,-0.5299133658409119,-0.37292128801345825,-1.057121657064203,0.23609523305508648,0.14522188742261288
1.7155120372772217,0.0597347617149353,-0.08135747909545898,-0.046270012855529785,-4.080954074859619,-0.5338945388793945,-0.4370400905609131,-1.0972715921918743,0.24138549932018732,0.15718761286259594
1.7256412506103516,0.05090923607349396,-0.10210394859313965,-0.06160777807235718,-4.211460590362549,-0.5739594101905823,-0.43237927556037903,-1.138696342733023,0.24769138271130187,0.17041951057051352
1.7373881340026855,0.040767818689346313,-0.12050735950469971,-0.05763384699821472,-4.24622917175293,-0.5836938619613647,-0.4596380591392517,-1.1807049799883471,0.25607375307804836,0.18583731525131253
1.745656967163086,0.04383958876132965,-0.11587119102478027,-0.04822996258735657,-4.262392997741699,-0.6163004636764526,-0.43260443210601807,-1.2229832281341002,0.26729877358467735,0.20433441798598734
1.7561159133911133,0.023695290088653564,-0.0586543083190918,-0.03350004553794861,-3.9624600410461426,-0.6044896245002747,-0.38480067253112793,-1.263802894737349,0.28268055976293155,0.22684693283039914
1.7660040855407715,0.03649630397558212,-0.01971668004989624,-0.03269168734550476,-3.6819872856140137,-0.6635348200798035,-0.33417221903800964,-1.3015670681242035,0.3022663255078383,0.25391609932177006
1.7757680416107178,0.055368416011333466,-0.007637381553649902,-0.038779377937316895,-3.2242672443389893,-0.7535427808761597,-0.31508561968803406,-1.335522710198394,0.3245361234035739,0.2842599024080778
1.7880220413208008,0.03666653484106064,0.06995284557342529,-0.04169881343841553,-2.7830140590667725,-0.7255523204803467,-0.24875427782535553,-1.3648859606017805,0.3499526393307382,0.31775939273576526
1.796006202697754,0.003991566598415375,0.10901302099227905,-0.05618739128112793,-2.4379262924194336,-0.70341557264328,-0.20284084975719452,-1.3900764762366389,0.37938111096234095,0.3550235336983416
1.8059511184692383,0.005691841244697571,0.12161862850189209,-0.06898754835128784,-2.3125905990600586,-0.6907268166542053,-0.2065260261297226,-1.4126915535084936,0.4151785817064529,0.39844085079356584
1.8157539367675781,0.0070500485599040985,0.07250714302062988,-0.04687716066837311,-2.2394797801971436,-0.6761748194694519,-0.23864907026290894,-1.4342706749362928,0.45938961786337457,0.4500704998132828
1.8257780075073242,-0.023933086544275284,-0.011772871017456055,0.029447436332702637,-2.0635159015655518,-0.6029573678970337,-0.22207947075366974,-1.4542672699460368,0.5164416803835405,0.5140228666595439
1.8385190963745117,-0.04845290631055832,0.04229062795639038,0.037433795630931854,-2.005991220474243,-0.5937574505805969,-0.2502405345439911,-1.4727804702014733,0.5908006248223353,0.5948228326067252
1.8458290100097656,-0.05284355208277702,0.030746042728424072,0.060244087129831314,-2.029231071472168,-0.5926540493965149,-0.25504070520401,-1.4905340675932879,0.6978119167048349,0.7082645118293539
1.8558130264282227,-0.032280974090099335,-0.023435652256011963,0.09281402826309204,-1.995033621788025,-0.5605200529098511,-0.25838351249694824,-1.506571682619531,0.861777207235567,0.8784243789728337
1.865929126739502,-0.028850819915533066,-0.011350870132446289,0.03679007291793823,-2.106250524520874,-0.5448846817016602,-0.2685472071170807,-1.5201264816530389,1.1333723396147475,1.156041407654311
1.8758630752563477,-0.03106120601296425,-0.030120491981506348,0.0052283406257629395,-2.00187087059021,-0.472380667924881,-0.25512751936912537,-1.527637199714311,1.5458073306759785,1.5740204671036957
1.8879830837249756,-0.03909739851951599,-0.029350876808166504,-0.022548438981175423,-1.8576583862304688,-0.4256639778614044,-0.23160745203495026,-1.5260951081903793,1.9887932769888073,2.0219384844707404
1.8959569931030273,-0.025285597890615463,0.030913054943084717,-0.06414794921875,-1.7391386032104492,-0.4276491105556488,-0.21997156739234924,-1.518114826680028,2.3198939706121466,2.357662002192018
1.9067320823669434,-0.004978816956281662,0.023943603038787842,-0.043354280292987823,-1.7575582265853882,-0.3934048116207123,-0.15970365703105927,-1.5060830813711994,2.534325697141131,2.5765910780594354
1.9159400463104248,-0.011557962745428085,-0.0013363957405090332,-0.005275003612041473,-1.9093594551086426,-0.3422742486000061,-0.19597618281841278,-1.4912158142361296,2.680844157663413,2.7271587507931367
1.9259331226348877,-0.02187873050570488,-0.06054335832595825,-0.020275354385375977,-2.0270073413848877,-0.3326839208602905,-0.19656899571418762,-1.4737707987803257,2.7865741576420686,2.8366698414827303
1.9369370937347412,-0.01583258807659149,-0.07815080881118774,-0.014023542404174805,-2.046043872833252,-0.33794501423835754,-0.1920485496520996,-1.4549438679166398,2.8608968727096746,2.91471832977756
1.9459760189056396,-0.007394181564450264,-0.0562056303024292,0.013010621070861816,-1.908979058265686,-0.33551016449928284,-0.1863677054643631,-1.4362256981889239,2.911702812781505,2.9693474621716236
1.9560189247131348,-0.010173272341489792,-0.014654874801635742,0.011958703398704529,-1.6577047109603882,-0.31510287523269653,-0.1742338091135025,-1.4191017575323635,2.946923801718935,3.008200122808703
1.9660649299621582,-0.009799188002943993,0.01958918571472168,-0.019458532333374023,-1.3625705242156982,-0.33002233505249023,-0.15287604928016663,-1.404527103021875,2.9711093534540067,3.035938318870451
1.976147174835205,-0.005765844136476517,0.05913376808166504,-0.00946451723575592,-1.0552968978881836,-0.36443305015563965,-0.10588164627552032,-1.392803291327197,2.986022438817189,3.0546136386692555
1.9873290061950684,0.016767509281635284,0.090545654296875,-0.004310131072998047,-0.7749281525611877,-0.3544771075248718,-0.09214746206998825,-1.3839215810297516,2.9951146313760897,3.0675356960611584
1.9960150718688965,0.016199318692088127,0.09058964252471924,-0.02628803253173828,-0.5980644226074219,-0.3372001051902771,-0.04663217067718506,-1.3772326308240495,3.000371938822786,3.0763854162446442
2.0060739517211914,-0.0011609047651290894,0.08208197355270386,-0.01760329306125641,-0.5756468176841736,-0.30285120010375977,-0.08903960883617401,-1.3715677741828507,3.004461317638113,3.0838932581142013
2.016085147857666,-0.017951853573322296,0.013978123664855957,0.017667055130004883,-0.5520570278167725,-0.2574160695075989,-0.08686833083629608,-1.3660353235793161,3.009849272605352,3.0922318135890947
2.026137113571167,-0.036814119666814804,-0.029216527938842773,0.036134034395217896,-0.4055706858634949,-0.24074909090995789,-0.08052989840507507,-1.3613464052400812,3.0141676141630733,3.099177898864802
2.0375561714172363,-0.028639694675803185,0.015602052211761475,0.03600063920021057,-0.23551292717456818,-0.22561860084533691,-0.06601700186729431,-1.3582693287767458,3.017140897883884,3.104630835020955
2.0463221073150635,-0.027217131108045578,0.035400986671447754,0.038605839014053345,-0.13344934582710266,-0.22133366763591766,-0.04672713950276375,-1.356573133129751,3.018566951126396,3.108371554611659
2.0561840534210205,-0.0251600444316864,0.03604370355606079,0.04068458080291748,-0.1639515906572342,-0.18883325159549713,-0.05337199196219444,-1.3552756970412754,3.0193579707310536,3.1112973277265903
2.066357135772705,-0.02228293940424919,0.0025252699851989746,0.025626420974731445,-0.256515234708786,-0.138048455119133,-0.05251088738441467,-1.3531924325177822,3.021409418707277,3.115076136084108
2.076343059539795,-0.023501355201005936,-0.04262512922286987,0.011352881789207458,-0.1960740089416504,-0.11730748414993286,-0.03638491407036781,-1.3509403294764666,3.0234122600923112,3.118419061928747
2.0887551307678223,-0.029378823935985565,-0.020807385444641113,0.026062950491905212,-0.04297088831663132,-0.11659131944179535,0.0071090334095060825,-1.349764637143597,3.023599934984657,3.119794765337238
2.09631609916687,-0.02082284539937973,0.02960890531539917,0.015341520309448242,0.016560347750782967,-0.10540950298309326,0.03950691968202591,-1.3496894589124313,3.0211678490316096,3.1184656324585602
2.106166124343872,-0.003951497375965118,0.05137193202972412,-0.014486819505691528,-0.11632870882749557,-0.07256566733121872,0.00493578752502799,-1.3492538931852192,3.019560639161344,3.1177542470777175
2.116124153137207,-0.016306821256875992,-0.019312381744384766,-0.00036790966987609863,-0.2615905702114105,-0.03043232671916485,-0.022469472140073776,-1.347343155014817,3.0204032226832163,3.1191037232514005
2.126239061355591,-0.03249426186084747,-0.06029510498046875,0.037652596831321716,-0.31312641501426697,-0.02449134923517704,-0.04028969258069992,-1.3445268953267497,3.023067609013706,3.1221243084380355
2.1369640827178955,-0.026923850178718567,-0.02761530876159668,0.04964163899421692,-0.34701088070869446,-0.011443192139267921,-0.058782681822776794,-1.3413055761561625,3.0265380437030154,3.125894873307489
2.146428108215332,-0.014041982591152191,0.00889599323272705,0.022847115993499756,-0.34731391072273254,-0.004104051738977432,-0.05632666498422623,-1.3378565264670135,3.030894571977941,3.1304199956514185
2.157015085220337,-0.013269595801830292,0.011563539505004883,0.0047304630279541016,-0.25575098395347595,-0.014121798798441887,-0.049819763749837875,-1.3349113810498894,3.0343332858912255,3.1340590100127828
2.166472911834717,-0.007754119113087654,0.03830718994140625,0.0020689070224761963,-0.14487814903259277,3.829598426818848e-06,-0.03735728934407234,-1.3329823612743412,3.036914129159908,3.136803003317132
2.1764800548553467,-0.011768359690904617,0.05337446928024292,-0.016816377639770508,-0.001993962097913027,-0.004565622191876173,0.0038026662077754736,-1.3322411002845158,3.0380082638421633,3.137919607227437
2.1874101161956787,-0.016067009419202805,0.05792701244354248,-0.021590113639831543,0.16018179059028625,-0.0073273638263344765,0.03816064074635506,-1.3332536413138594,3.0367444968474606,3.1367013226813727
2.1961159706115723,-0.004062587395310402,0.06398022174835205,-0.03131306171417236,0.36588141322135925,0.0042051887139678,0.06731319427490234,-1.3358807517328004,3.033461447789297,3.1333390012253224
2.2064099311828613,-0.012655267491936684,0.06278550624847412,-0.03890614211559296,0.5781561732292175,-0.0010992959141731262,0.10718216001987457,-1.3402666816048547,3.0278630527296753,3.1275317123086412
2.216377019882202,-0.022982453927397728,0.063071608543396,-0.013766050338745117,0.721804141998291,0.0009731762111186981,0.13600289821624756,-1.346373592609862,3.0195742571920907,3.119031245421436
2.226529121398926,-0.017030518501996994,0.05121767520904541,-0.0077282339334487915,0.753577470779419,0.03417959809303284,0.14268359541893005,-1.353609103348272,3.009276374381709,3.108307417216856
2.238067150115967,-0.021613692864775658,0.019025146961212158,-0.020095422863960266,0.6206790804862976,0.0582287423312664,0.13139870762825012,-1.360353559462144,2.9989275896509144,3.097236245875039
2.246675968170166,-0.027929607778787613,-0.01881009340286255,0.0016199350357055664,0.3348809778690338,0.07909887284040451,0.07839424163103104,-1.3649728842213738,2.9913022096900463,3.0887460905440136
2.2565290927886963,-0.027087461203336716,-0.08948689699172974,0.03794121742248535,0.14071683585643768,0.09676121920347214,0.03605370596051216,-1.3671400919017669,2.987895518368533,3.084349653544097
2.266676902770996,-0.0246301107108593,-0.0990147590637207,0.04115927219390869,0.14609716832637787,0.07220825552940369,0.0517522394657135,-1.368382446226173,2.9858854400622024,3.0813929987144215
2.2777740955352783,-0.004081800580024719,-0.018984675407409668,0.022384434938430786,0.2184179723262787,0.061244018375873566,0.04208043962717056,-1.3701478914236729,2.982636307294993,3.0774401749112243
2.28719425201416,0.01178295910358429,0.026583433151245117,0.0023844242095947266,0.2929786741733551,0.06925351917743683,0.03824666142463684,-1.3725846153089154,2.979411961527257,3.07345087013698
2.2965970039367676,-0.004063688218593597,0.01929330825805664,0.00413939356803894,0.3626832067966461,0.05409986525774002,0.0499643012881279,-1.375768464032175,2.975056507319963,3.068381383541589
2.3066320419311523,0.005338985472917557,0.03190481662750244,0.01064695417881012,0.3938388526439667,0.04986100271344185,0.03297855332493782,-1.37946469528798,2.970239060929581,3.0629498184004778
2.316502094268799,0.013059549033641815,0.017736852169036865,0.005748525261878967,0.39842402935028076,0.05011267215013504,0.04344557598233223,-1.3833153021249716,2.965144943523257,3.0572514915991356
2.3265461921691895,-0.00032028183341026306,0.007084369659423828,0.019945278763771057,0.3379852771759033,0.04987702518701553,0.017932705581188202,-1.386962480258296,2.9603866106001053,3.0518989053242103
2.338611125946045,-0.002804495394229889,-0.005165755748748779,0.015810489654541016,0.16572722792625427,0.05279318615794182,-0.006205919198691845,-1.3894680362098493,2.9579849224820776,3.048927942881804
2.346787929534912,-0.004786636680364609,-0.04454594850540161,0.025435924530029297,-0.05290396511554718,0.05736729875206947,-0.038355015218257904,-1.3900461046847716,2.9593051023190293,3.0497048752877896
2.356685161590576,-0.0049751028418540955,-0.0747104287147522,0.034491896629333496,-0.13325873017311096,0.05781843885779381,-0.05415767803788185,-1.3891028814441297,2.9633973406006895,3.053279584377753
2.3666319847106934,-0.0025398917496204376,-0.05382436513900757,0.025748014450073242,-0.07151242345571518,0.05745185539126396,-0.044732432812452316,-1.3881099981618188,2.967742824425854,3.0570975354147096
2.3768880367279053,0.00018172897398471832,-0.000983119010925293,-0.0029404163360595703,-0.000758887967094779,0.04558773711323738,-0.03439910337328911,-1.3878578004082267,2.9707374235991146,3.059638311222718
2.3878490924835205,0.003342755138874054,0.022034764289855957,-0.009988784790039062,0.029453210532665253,0.033386729657649994,-0.017887715250253677,-1.3880680064892341,2.9723445677532294,3.0608585509671746
2.396682024002075,0.005182517692446709,0.013373076915740967,0.0011135339736938477,0.01237622182816267,0.026486746966838837,-0.012238086201250553,-1.3882906933459893,2.973124960282517,3.0613580801237146
2.406804084777832,0.006587522104382515,-0.007405638694763184,0.007015839219093323,-0.03080800175666809,0.026192201301455498,-0.014224271290004253,-1.388102518158376,2.974242001210247,3.0622310879879473
2.4165802001953125,0.004682017490267754,-0.025944411754608154,0.0014177709817886353,-0.012327526696026325,0.028954697772860527,-0.005754886195063591,-1.387763393810532,2.9754121044295894,3.063129123311137
2.4270451068878174,-0.0011067017912864685,-0.018304407596588135,-0.006830558180809021,0.0413760170340538,0.034644097089767456,0.01069151796400547,-1.3876211835821253,2.9756792664000513,3.0630735030931038
2.4384121894836426,0.005003258585929871,0.008815228939056396,-0.020610317587852478,0.030308717861771584,0.04009479284286499,0.017512939870357513,-1.3875113312653977,2.9752201799080535,3.062218495458459
2.446993112564087,0.007752280682325363,0.010050415992736816,-0.021425709128379822,-0.013125608675181866,0.05265327915549278,0.017459675669670105,-1.3871810793875827,2.974939261998716,3.0614399076299534
2.4567761421203613,-0.0016932114958763123,-0.022381603717803955,0.0007033348083496094,0.012281746603548527,0.0522889606654644,0.023121822625398636,-1.3871357449624195,2.974385157312822,3.060334854740537
2.4670300483703613,-0.005256876349449158,-0.023744583129882812,0.012146010994911194,0.04678700864315033,0.04962930455803871,0.028365587815642357,-1.3875816851617802,2.9730831914295024,3.0585123627369315
2.4768691062927246,-0.003519432619214058,-0.0145491361618042,0.008768811821937561,0.0677785724401474,0.06141166016459465,0.03748291730880737,-1.3881155335464368,2.97121657463544,3.056054729769544
2.48785400390625,-0.008108479902148247,-0.016734659671783447,0.000469207763671875,0.09562354534864426,0.05834321305155754,0.0600607693195343,-1.3887234619200224,2.968531527543786,3.0526960523866786
2.496753215789795,-0.009117648005485535,-0.01689392328262329,0.006027713418006897,0.10363806039094925,0.05877171456813812,0.07506661862134933,-1.3895209074875465,2.9643210185391085,3.047847765095773
2.507087230682373,-0.0012183748185634613,-0.017911672592163086,0.003979787230491638,0.1097947359085083,0.07181094586849213,0.07469441741704941,-1.3904278083248323,2.9599439803677794,3.0427290697369176
2.5168089866638184,-0.007271740585565567,-0.030267000198364258,-0.006900310516357422,0.13294747471809387,0.07561580836772919,0.08487381786108017,-1.3917702712144127,2.9548586662367784,3.036824550703929
2.5280420780181885,-0.011048674583435059,-0.023164749145507812,0.0026308298110961914,0.18384681642055511,0.07767003774642944,0.0980764850974083,-1.393452937730149,2.948457434869027,3.029547175133016
2.537689208984375,-0.0022141560912132263,-0.0025006532669067383,-0.00593961775302887,0.2522468864917755,0.08612770587205887,0.11372601985931396,-1.3951693614870666,2.941486350324033,3.0216170855930082
2.5470120906829834,-0.006988391280174255,0.006884515285491943,-0.0008882433176040649,0.3193007707595825,0.08005756139755249,0.12553341686725616,-1.3973604805871007,2.9329989423502068,3.0121262994987257
2.55680513381958,-0.006975419819355011,0.014952361583709717,0.004510655999183655,0.29267847537994385,0.08116916567087173,0.1260966658592224,-1.3997892679825084,2.9234927443683696,3.0016399465901205
2.5673131942749023,-0.0029660500586032867,0.0013404488563537598,0.014414772391319275,0.15962854027748108,0.07368341833353043,0.11278683692216873,-1.4015069825375064,2.9153908343514208,2.9926088343301096
2.576849937438965,-0.006898090243339539,-0.037058115005493164,0.03458259999752045,0.07515360414981842,0.07069508731365204,0.1050194576382637,-1.402004483117248,2.90924407878258,2.98563975646699
2.588953971862793,-0.006475429981946945,-0.050753772258758545,0.030293822288513184,0.08471332490444183,0.07561367750167847,0.09865456074476242,-1.4022374980088161,2.903654783737149,2.979197139676016
2.5967960357666016,-0.004613734781742096,-0.017339348793029785,-0.0063620805740356445,0.14265865087509155,0.0754176676273346,0.10681208223104477,-1.4029807579532594,2.897510962757736,2.972207867695979
2.6069860458374023,0.0001324787735939026,0.023885250091552734,-0.017018795013427734,0.2315501868724823,0.08396695554256439,0.11657582223415375,-1.4042925594469515,2.8898720995237537,2.963613666379012
2.6169729232788086,-0.004109993577003479,0.036774635314941406,-0.007009968161582947,0.32069525122642517,0.08428999781608582,0.11306603997945786,-1.4066371351476203,2.8802404085956383,2.952995500840804
2.627450942993164,-0.006753884255886078,0.03345513343811035,0.004751458764076233,0.3967859447002411,0.0739658921957016,0.1306375116109848,-1.4097045183463017,2.8686486495373664,2.940430820369998
2.6371631622314453,-0.003852054476737976,0.03311479091644287,0.014499187469482422,0.4964914917945862,0.07796569168567657,0.1377130001783371,-1.4134867720892212,2.85417418724627,2.924988492132502
2.646975040435791,-0.0003361701965332031,0.033794105052948,0.015367850661277771,0.6722591519355774,0.08099503815174103,0.14887064695358276,-1.4183817153253833,2.8359485264109994,2.905724467741173
2.656924247741699,-0.005615007132291794,0.03943508863449097,0.018526911735534668,0.9414243102073669,0.08420441299676895,0.17966024577617645,-1.4255137441799646,2.809638305879159,2.878300820169636
2.6672000885009766,-0.006615869700908661,0.06787747144699097,0.018748164176940918,1.2729398012161255,0.09658043831586838,0.22433961927890778,-1.4352160196792398,2.77022101614336,2.8375774602211106
2.6770150661468506,-0.0019958242774009705,0.10465162992477417,0.0060242414474487305,1.5544230937957764,0.10195709764957428,0.24697676301002502,-1.4473832018973076,2.711633160218632,2.7774804946487186
2.6873159408569336,-0.004030242562294006,0.10736030340194702,0.014338724315166473,1.6747914552688599,0.13653597235679626,0.22984032332897186,-1.4608130629888993,2.6319871240042167,2.6961061812669724
2.6969289779663086,-0.012255512177944183,0.04512149095535278,0.043077945709228516,1.7809852361679077,0.16487999260425568,0.26825109124183655,-1.4741101308451685,2.5242641603859806,2.5862772786901673
2.7069790363311768,-0.0167325958609581,0.04168444871902466,0.06718052178621292,1.9189823865890503,0.17281994223594666,0.2678234577178955,-1.4866594502391206,2.3724579258519287,2.4321541826181408
2.71695613861084,-0.006359171122312546,0.058722734451293945,0.05645895004272461,2.1039912700653076,0.2033514827489853,0.299244225025177,-1.4973970743255183,2.1550593139718504,2.2121812853415
2.72714900970459,-0.007012814283370972,0.06416171789169312,0.03912997245788574,2.3468334674835205,0.2182478904724121,0.34518763422966003,-1.5038291079421648,1.8492785967770955,1.9035668294139239
2.737617015838623,-0.002366013824939728,0.09741818904876709,0.01992744207382202,2.668224334716797,0.26578289270401,0.36969083547592163,-1.50258483333947,1.476638174717977,1.5277040550313123
2.747091054916382,-0.007082782685756683,0.09914320707321167,0.013608098030090332,3.147127866744995,0.340042382478714,0.44928640127182007,-1.4906342587704497,1.116312275521042,1.1633946868424463
2.7570719718933105,-0.030932821333408356,0.13574659824371338,0.05476367473602295,3.7103075981140137,0.4291589558124542,0.597145140171051,-1.4669149842850622,0.8419509966190968,0.8840563726557139
2.7671821117401123,-0.051538705825805664,0.20562469959259033,0.11113554239273071,4.247851848602295,0.4597843289375305,0.7701162695884705,-1.432931800872821,0.6624752742777491,0.6989140758608775
2.777956962585449,-0.06928303092718124,0.21539616584777832,0.16964495182037354,4.706247329711914,0.5244157910346985,0.934605062007904,-1.3911043929459912,0.5514316261817854,0.5814842504665481
2.7876930236816406,-0.07767648994922638,0.16776776313781738,0.18989378213882446,4.948160171508789,0.6103671193122864,0.9814034700393677,-1.3441652407426883,0.4815765448561569,0.5044288896303069
2.797132968902588,-0.11520875245332718,0.04466456174850464,0.20179703831672668,4.979938983917236,0.7057391405105591,1.0242875814437866,-1.2950314390383169,0.43719583751076874,0.4517972371788376
2.8071401119232178,-0.144804909825325,-0.020667612552642822,0.22805336117744446,4.7936248779296875,0.6849780678749084,1.0297316312789917,-1.2460941436351225,0.409422545859075,0.41541595401325754
2.8171980381011963,-0.11938311159610748,-0.08282691240310669,0.2541581094264984,4.430183410644531,0.6720380783081055,0.9411642551422119,-1.1996222743288727,0.3916655732103489,0.3893472272580919
2.8272221088409424,-0.08851434290409088,-0.19750380516052246,0.2568962872028351,4.004897117614746,0.6878081560134888,0.7764939665794373,-1.1572573007800195,0.37940263830439924,0.3687074184391941
2.838168144226074,-0.08595539629459381,-0.2782611846923828,0.23736244440078735,3.5812389850616455,0.7071046233177185,0.6503291130065918,-1.1192697632561603,0.370579058155981,0.3513400546372016
2.8472700119018555,-0.07906728982925415,-0.2830948233604431,0.19711291790008545,3.1640021800994873,0.7695138454437256,0.5268281102180481,-1.085660208553149,0.3648217996777339,0.33660953313826136
2.8573710918426514,-0.05949787795543671,-0.22043943405151367,0.15233659744262695,2.833132266998291,0.8270264267921448,0.4682087302207947,-1.0559266853084335,0.3618513751814114,0.32409837462836727
2.8672680854797363,-0.044599711894989014,-0.17365014553070068,0.1291704773902893,2.669767379760742,0.8605597615242004,0.3952864706516266,-1.0286200696636325,0.3606365878291755,0.31286097315231676
2.877622127532959,-0.03637440502643585,-0.14899545907974243,0.11177587509155273,2.388514757156372,0.8807798027992249,0.315041184425354,-1.0035661062508314,0.36022527734348503,0.30211957628161357
2.8876562118530273,-0.03034573793411255,-0.10734421014785767,0.09124559164047241,2.017971992492676,0.846552848815918,0.2895292639732361,-0.9819595930377,0.3613375902160604,0.29307596470123026
2.897244930267334,0.0003331005573272705,-0.0886998176574707,0.08937734365463257,1.8781101703643799,0.8805310726165771,0.28684931993484497,-0.9628388268945615,0.3638922091979148,0.2857408170001771
2.9072651863098145,0.010688751935958862,-0.05435752868652344,0.050943851470947266,1.9638978242874146,0.8925696611404419,0.27581486105918884,-0.9439755062683286,0.36686048963908374,0.2784140865559271
2.9172701835632324,0.009737744927406311,0.04069322347640991,-0.0037923455238342285,2.1643006801605225,0.8228057622909546,0.3017979860305786,-0.9236754137418531,0.3690770960838611,0.27042940988884495
2.927493095397949,0.030569255352020264,0.11243259906768799,-0.0003058910369873047,2.519789934158325,0.8093405961990356,0.3502443730831146,-0.9007245499099408,0.37022761494025136,0.2616129970752592
2.937551975250244,0.04719516634941101,0.1408408284187317,-0.0038353800773620605,2.9073843955993652,0.7648143768310547,0.4147522747516632,-0.874003736239074,0.3704342867394379,0.2516769409026184
2.9474101066589355,0.04384450614452362,0.1961650848388672,-0.02610725164413452,3.3442935943603516,0.7087490558624268,0.47308751940727234,-0.8431647436404709,0.36951880976917634,0.24073966577041958
2.9573280811309814,0.04166552424430847,0.22174018621444702,-0.028955578804016113,3.719989061355591,0.6764004826545715,0.5204439163208008,-0.8083890786391942,0.3676662761183967,0.2287440640242091
2.967480182647705,0.036596059799194336,0.1888413429260254,-0.029392123222351074,3.976726770401001,0.6406154632568359,0.5699002742767334,-0.7703438129842604,0.36536724889978733,0.2163643079057132
2.9773941040039062,0.028074711561203003,0.14350801706314087,-0.010313749313354492,4.095927715301514,0.6914589405059814,0.5661686062812805,-0.7306162674385794,0.36352707750769475,0.2039052115905279
2.987639904022217,0.006946831941604614,0.1075890064239502,0.03304755687713623,4.142948627471924,0.7466509342193604,0.6027277112007141,-0.6898208599597446,0.3628256746406763,0.1917159316415936
2.997386932373047,-0.02278798818588257,0.0958661437034607,0.06211233139038086,4.037995338439941,0.7262297868728638,0.6661050915718079,-0.6491917166653501,0.3633638031979479,0.18066443946833474
3.007297992706299,-0.02706161141395569,0.08192485570907593,0.09235340356826782,3.631956100463867,0.7082933187484741,0.6312876343727112,-0.6108663816671461,0.3651012086634948,0.17135586190345445
3.017329216003418,-0.0052408576011657715,-0.008985400199890137,0.1329786777496338,3.3601107597351074,0.7361990213394165,0.5681301951408386,-0.5763298614401322,0.36759532172831716,0.16304970773160163
3.0274229049682617,-0.009843945503234863,-0.08615589141845703,0.13850849866867065,3.3008811473846436,0.7521290183067322,0.6084369421005249,-0.5431321308500383,0.3709312536984079,0.1552446131599877
3.0380020141601562,-0.0465657114982605,0.00429651141166687,0.10471212863922119,3.1032369136810303,0.7056381702423096,0.6231237053871155,-0.5109834934456884,0.3749411800246112,0.1484943126890947
3.0476250648498535,-0.028271257877349854,0.08801978826522827,0.11031085252761841,2.739511013031006,0.6692797541618347,0.556393027305603,-0.48140034026261785,0.3788672282858123,0.14243147461593117
3.057934045791626,0.009279131889343262,-0.04768854379653931,0.11956554651260376,2.292267084121704,0.6891181468963623,0.4832541048526764,-0.4561845543973379,0.38335240249559055,0.13734181281004704
3.06767201423645,0.004083693027496338,-0.1055813729763031,0.10531949996948242,1.98019540309906,0.7188818454742432,0.46175137162208557,-0.4346774250389768,0.3886613880425329,0.13329145761608657
3.077407121658325,-0.011621624231338501,-0.06531929969787598,0.07372701168060303,1.8209854364395142,0.6803485751152039,0.4647144079208374,-0.41540536588340565,0.39436100752108555,0.13001310124211976
3.088618040084839,-0.002163916826248169,-0.016260147094726562,0.05503404140472412,1.7189422845840454,0.5978538393974304,0.4594099819660187,-0.39724665125216735,0.3996804604275018,0.12719386713327258
3.097482204437256,0.015218228101730347,0.009829133749008179,0.04699951410293579,1.5925852060317993,0.5229558944702148,0.44330477714538574,-0.38021675513417696,0.40430943705580913,0.12465327662749119
3.1075971126556396,0.017419785261154175,0.005166232585906982,0.03476595878601074,1.477855920791626,0.509101927280426,0.43406835198402405,-0.3643857917684003,0.408634478167871,0.12249762348432093
3.1174800395965576,0.010264098644256592,-0.009112328290939331,0.021831035614013672,1.3701387643814087,0.4882032871246338,0.4129103422164917,-0.34954575860921294,0.4130086401747817,0.12052955547691492
3.1276111602783203,-0.011814236640930176,-0.003346562385559082,0.0174560546875,1.1964839696884155,0.42479750514030457,0.3903029263019562,-0.33616518820974683,0.41704648944519784,0.11895879699019793
3.1377220153808594,-0.016838759183883667,0.0051923394203186035,0.024905145168304443,1.042767882347107,0.3902299404144287,0.35764724016189575,-0.3244122232097217,0.42069602307590254,0.11775173134212391
3.1476030349731445,-0.0030520260334014893,-0.012245535850524902,0.009441733360290527,0.8635697960853577,0.3511350154876709,0.3334326148033142,-0.3143002084846194,0.424152731788283,0.11690334367752485
3.1575160026550293,0.006858557462692261,-0.005897045135498047,-0.02997523546218872,0.6756017804145813,0.29864221811294556,0.28852373361587524,-0.3059672340425511,0.42729622844259735,0.11658087226832879
3.167835235595703,0.02263164520263672,-0.0023636817932128906,-0.05197995901107788,0.49533191323280334,0.26506873965263367,0.22140811383724213,-0.29961179818366784,0.43006751197696086,0.11644008886410318
3.1779751777648926,0.022186845541000366,-0.03452610969543457,-0.05691808462142944,0.32782068848609924,0.2341342568397522,0.19241774082183838,-0.2950123362066721,0.43261892816550535,0.1166192964527508
3.188216209411621,0.015673071146011353,-0.03168103098869324,-0.05694127082824707,0.20267321169376373,0.19191241264343262,0.1538219451904297,-0.29191269254733326,0.43488845998869474,0.11709641415573349
3.1977291107177734,0.008998304605484009,-0.009768903255462646,-0.04459327459335327,0.08733569830656052,0.1417837291955948,0.11850842088460922,-0.29001670404310037,0.4367402271535785,0.1177688124980671
3.2082080841064453,0.003908097743988037,-0.0074231624603271484,-0.029207289218902588,0.00772031769156456,0.09867385774850845,0.0761430636048317,-0.289224877859744,0.4381342620683484,0.11846610161347122
3.2178101539611816,-0.0001939237117767334,-0.016666114330291748,-0.014843285083770752,0.010585079900920391,0.07831745594739914,0.08267153799533844,-0.2888706262029451,0.4392072751948234,0.11919594118125565
3.2302331924438477,-0.0057029128074646,-0.014564096927642822,-0.01326453685760498,0.06069837883114815,0.055182039737701416,0.09640689939260483,-0.28817414397019564,0.440078154787788,0.11986540350486613
3.240489959716797,-0.011292189359664917,0.012177854776382446,-0.02077043056488037,0.12928730249404907,0.022918909788131714,0.1468501091003418,-0.28681271677865483,0.4406676456979245,0.12059243512747599
3.248453140258789,-0.0129355788230896,0.026264846324920654,-0.014143824577331543,0.19170472025871277,0.00798146240413189,0.16548418998718262,-0.2846783785313817,0.44101718794642886,0.12135942949759289
3.2577309608459473,-0.009736806154251099,0.017687290906906128,-0.008723914623260498,0.23039032518863678,0.009537280537188053,0.18334920704364777,-0.28199476282475516,0.44128737795746537,0.12205099034640425
3.268059015274048,-0.01672917604446411,0.0014546513557434082,-0.010274052619934082,0.22889737784862518,0.02152101695537567,0.1951276659965515,-0.27908597309312116,0.44163337854434,0.12280706041369277
3.278898239135742,-0.01757374405860901,-0.01694256067276001,-0.011617004871368408,0.21140626072883606,0.0418449304997921,0.18888096511363983,-0.276256633016919,0.4421882594707383,0.12365188951661353
3.2880101203918457,-0.012766480445861816,-0.037053972482681274,-0.01480776071548462,0.17972451448440552,0.045004863291978836,0.1866053342819214,-0.27367270640858327,0.44284200495701015,0.12453947214366587
3.29780912399292,-0.011278033256530762,-0.03584524989128113,-0.005506396293640137,0.13666492700576782,0.059492193162441254,0.18994387984275818,-0.27143533645139833,0.4436579481149226,0.12561756383486
3.3079190254211426,-0.008442968130111694,-0.016368001699447632,0.010601699352264404,0.09919530898332596,0.055939268320798874,0.18919765949249268,-0.26954371518384707,0.44455172060836906,0.1268626489922437
3.317728042602539,-0.010418742895126343,-0.011247128248214722,0.021367549896240234,0.07292934507131577,0.062020063400268555,0.17666882276535034,-0.26799900677261124,0.4454970646952248,0.1282107915975335
3.3276610374450684,-0.013167232275009155,-0.017353534698486328,0.02866387367248535,0.0581485889852047,0.07095208764076233,0.16896125674247742,-0.26665724225679877,0.44651604889012064,0.12952189985753745
3.3385939598083496,-0.016400456428527832,-0.013033270835876465,0.03276705741882324,0.10249821096658707,0.08602771162986755,0.16884221136569977,-0.2657694517699843,0.4475732279003074,0.1307289376766291
3.3481569290161133,-0.019581347703933716,0.004751533269882202,0.028076231479644775,0.14443621039390564,0.08992674946784973,0.16624419391155243,-0.26419556098326547,0.44858645256923546,0.13171301784853862
3.3576412200927734,-0.019057899713516235,0.018266946077346802,0.02334117889404297,0.16996926069259644,0.0905427411198616,0.14975497126579285,-0.261908250311218,0.44951223598841544,0.13243188118634103
3.367866039276123,-0.015214323997497559,0.025757551193237305,0.017278969287872314,0.17454156279563904,0.09743442386388779,0.12035053223371506,-0.25920936304540687,0.45035912062701017,0.13287760860909667
3.3777990341186523,-0.012411266565322876,0.018106520175933838,0.005383014678955078,0.1604291945695877,0.11347916722297668,0.08752866834402084,-0.2567383502504409,0.451293578259465,0.13304382058337552
3.387692928314209,-0.01270642876625061,0.0019598305225372314,5.638599395751953e-05,0.13408613204956055,0.11490067839622498,0.05679009109735489,-0.25508523511302694,0.45240456274908875,0.13302541437925214
3.397797107696533,-0.013907015323638916,0.0023802220821380615,-0.0016149282455444336,0.08732955902814865,0.0953754410147667,0.01654786244034767,-0.25405170366640234,0.4533727847258536,0.13286254490366226
3.408371925354004,-0.003986626863479614,-0.0009399056434631348,-0.007454335689544678,-0.003657073015347123,0.08281882107257843,-0.04552674666047096,-0.25382448490134507,0.45416586939554743,0.13251035238103914
3.417764186859131,0.0024480819702148438,-0.02910897135734558,-0.014893293380737305,-0.1184971034526825,0.060804594308137894,-0.1040840670466423,-0.25478758782186595,0.45474958151346373,0.1320868301066679
3.427980899810791,0.004593491554260254,-0.04791992902755737,-0.024012744426727295,-0.2497931271791458,0.06064050272107124,-0.18190312385559082,-0.2574658361565814,0.45516990778978045,0.13156314997631002
3.4376821517944336,0.0011511743068695068,-0.04005339741706848,-0.02149754762649536,-0.3141705095767975,0.06241336837410927,-0.20516051352024078,-0.261435649324429,0.4556085349184849,0.1310457236357592
3.4476571083068848,-0.0022134780883789062,-0.01132085919380188,-0.01932317018508911,-0.3112121820449829,0.03657608851790428,-0.19690273702144623,-0.265702661295894,0.4559706254695974,0.13059079124590367
3.457846164703369,0.002332329750061035,0.019083887338638306,-0.013578295707702637,-0.2599993348121643,0.010882975533604622,-0.18288332223892212,-0.26931620981239507,0.4560173750853907,0.1301173338931255
3.467839241027832,0.0032500922679901123,0.02767762541770935,-0.012374460697174072,-0.198542982339859,-0.009561756625771523,-0.16395847499370575,-0.2719733257666183,0.45577661717649925,0.12952736160447154
3.477774143218994,0.004787325859069824,0.0195406973361969,-0.023939311504364014,-0.14009378850460052,-0.030861984938383102,-0.1402108073234558,-0.2739740478764339,0.4553144768681129,0.12885829931789688
3.489583969116211,0.0033174455165863037,0.016857534646987915,-0.030299067497253418,-0.05513599514961243,-0.04348110780119896,-0.10498778522014618,-0.27514465637587004,0.4547051161123638,0.12813082255399758
3.4982619285583496,0.0019495189189910889,0.016003519296646118,-0.03675192594528198,0.025086672976613045,-0.06375628709793091,-0.07220107316970825,-0.27509655331082267,0.4538982402240171,0.1273720720906685
3.5079379081726074,0.001322329044342041,0.012922912836074829,-0.03814828395843506,0.08888927102088928,-0.06509040296077728,-0.05691106989979744,-0.27412782600680424,0.4529206674550434,0.12647886431252772
3.5179991722106934,-0.004839658737182617,-0.0015459954738616943,-0.03213530778884888,0.1331523358821869,-0.051241423934698105,-0.039553917944431305,-0.2727528236136191,0.45200776548644755,0.12549840314617225
3.5281291007995605,-0.013265728950500488,-0.00900694727897644,-0.023945152759552002,0.16550804674625397,-0.0446896068751812,-0.019767481833696365,-0.27127895500570837,0.451231046484862,0.12452963309998331
3.5378851890563965,-0.019384294748306274,-0.0016465187072753906,-0.011396467685699463,0.1808161586523056,-0.04072042927145958,-0.01128025259822607,-0.26992708170405116,0.45057423434772353,0.12360563939695411
3.548546075820923,-0.021432816982269287,-0.005954444408416748,0.003568410873413086,0.18593604862689972,-0.03601555898785591,-0.011878346092998981,-0.268570916165324,0.4499758076240169,0.12267881784933142
3.5580391883850098,-0.023452341556549072,-0.01990029215812683,0.01331329345703125,0.1717565804719925,-0.03427118808031082,-0.021964004263281822,-0.26720940071932875,0.449379908287341,0.12171246379250479
3.5687170028686523,-0.022376924753189087,-0.022511601448059082,0.02254587411880493,0.15301169455051422,-0.03861440345644951,-0.021865518763661385,-0.2659935623645021,0.44875495919763414,0.12077082969262008
3.5780029296875,-0.019810110330581665,-0.02076631784439087,0.020188093185424805,0.1328558325767517,-0.039308156818151474,-0.029982568696141243,-0.2649755610901989,0.44810907054436655,0.11988756939248729
3.5878701210021973,-0.01507580280303955,-0.02461785078048706,0.01891249418258667,0.110833540558815,-0.043134719133377075,-0.0362204909324646,-0.26419165372405434,0.44744118396866295,0.1190227529942608
3.5979819297790527,-0.014779388904571533,-0.029965221881866455,0.014896571636199951,0.0770484134554863,-0.04471450671553612,-0.04134361445903778,-0.2634874604516605,0.446711447880882,0.11821492312843311
3.6080141067504883,-0.012141168117523193,-0.03254544734954834,0.0139274001121521,0.03560221567749977,-0.026613933965563774,-0.042806271463632584,-0.26307811814918686,0.44608230539450117,0.11754550841196701
3.618195056915283,-0.009806156158447266,-0.03371304273605347,0.016762614250183105,0.012285707518458366,-0.016980480402708054,-0.04015030339360237,-0.26308632594212356,0.4456450052068727,0.11703638080104203
3.628293037414551,-0.013120651245117188,-0.02839672565460205,0.016874492168426514,-0.006123709492385387,-0.004204275086522102,-0.043814439326524734,-0.2632536456051336,0.4453551095233013,0.11661964237869869
3.6399149894714355,-0.008213311433792114,-0.021993637084960938,0.015829265117645264,-0.0011750234989449382,0.01174832507967949,-0.04278140142560005,-0.2633384926773233,0.4452153238912649,0.11621018269963809
3.6485352516174316,-0.005478471517562866,-0.018744975328445435,0.012315511703491211,0.028045179322361946,0.0032634944655001163,-0.0330992117524147,-0.2631977548198014,0.4451581706483495,0.1157933516193053
3.658669948577881,-0.00011241436004638672,-0.005361050367355347,0.014710843563079834,0.055835530161857605,-0.0020314021967351437,-0.033826787024736404,-0.2627848369238065,0.44498832114084785,0.11528662433657039
3.668286085128784,0.005731254816055298,0.00913342833518982,0.014947175979614258,0.06345108896493912,-0.005116008222103119,-0.028673730790615082,-0.26221750036325175,0.44477616596252434,0.1147079011232513
3.6784281730651855,0.0058367252349853516,0.009944170713424683,0.01200193166732788,0.06288676708936691,-0.004745296202600002,-0.03009852208197117,-0.2615676886631345,0.44455472225621495,0.11414480572023902
3.6885011196136475,0.007000148296356201,0.004424303770065308,0.013485968112945557,0.05437248945236206,-0.006121928803622723,-0.02922958694398403,-0.26096350427739,0.4443335158823795,0.11359797431436046
3.698275089263916,0.006043970584869385,0.0030045509338378906,0.011020243167877197,0.042910244315862656,-0.006340840831398964,-0.029854364693164825,-0.26045889228993147,0.4441236713035215,0.11309998582631865
3.7082161903381348,0.00931742787361145,0.005431681871414185,0.010667920112609863,0.03220999985933304,-0.005121911875903606,-0.02540944144129753,-0.2600946870743013,0.4439633113496912,0.11268226632414029
3.7182822227478027,0.009612679481506348,0.004362642765045166,0.00954592227935791,0.021709684282541275,0.006429815199226141,-0.032715022563934326,-0.25985879726344785,0.4438574429564523,0.11230768796449585
3.728701114654541,0.011177599430084229,0.003578662872314453,0.008054792881011963,0.01407511904835701,0.0040513016283512115,-0.024626152589917183,-0.2597227033235564,0.4438130010399806,0.11194012884729376
3.7392210960388184,0.01195526123046875,-0.0009171962738037109,0.007317543029785156,0.005098136141896248,0.004694988019764423,-0.032169558107852936,-0.25976440283361385,0.443801398929762,0.1116523146688226
3.748302936553955,0.01730412244796753,-0.001989006996154785,0.009341716766357422,0.012165882624685764,-0.002402469515800476,-0.030579542741179466,-0.26003662052276666,0.443808838295824,0.11132992327802019
3.7583470344543457,0.019047975540161133,0.0006967484951019287,0.014212727546691895,0.021241934970021248,-0.017244799062609673,-0.027620503678917885,-0.2602101052555955,0.44370340346038883,0.1110161379493928
3.7683701515197754,0.021013975143432617,0.013097435235977173,0.020532548427581787,0.02108841948211193,-0.016183219850063324,-0.025489388033747673,-0.2602623386026762,0.4435204381955619,0.11069562411594544
3.778451919555664,0.018301427364349365,0.013476401567459106,0.025173604488372803,0.024371564388275146,-0.012865985743701458,-0.022537540644407272,-0.2602491349578341,0.44337490733806423,0.11038955959214482
3.7885351181030273,0.010572165250778198,0.0038900673389434814,0.030825495719909668,0.011752359569072723,-0.011775819584727287,-0.023800145834684372,-0.26028466203465533,0.4432665616180075,0.1101139737125086
3.7983531951904297,0.006437152624130249,0.003711402416229248,0.032264113426208496,-0.011930599808692932,-0.010997910052537918,-0.0316263772547245,-0.26050114703900284,0.44317143596276326,0.10987689268520075
3.8084359169006348,0.006932735443115234,-0.0019465088844299316,0.026652157306671143,-0.034460991621017456,0.0003140880726277828,-0.036316633224487305,-0.2609243439941102,0.44314672004908867,0.10968428653433611
3.818371057510376,0.0054270923137664795,-0.011072397232055664,0.02288585901260376,-0.04640393704175949,0.015808625146746635,-0.04047675430774689,-0.26146252578569945,0.4432792829437543,0.10952965109135465
3.8283419609069824,-0.0007475316524505615,-0.00964266061782837,0.01988399028778076,-0.037980277091264725,0.029649030417203903,-0.04027286544442177,-0.26203595545736413,0.44360858979274925,0.10936898286708742
3.8385009765625,-0.0012253224849700928,-0.00414198637008667,0.012889742851257324,0.002087248954921961,0.016779569908976555,-0.02439882420003414,-0.26235995831051795,0.44391784802955453,0.10919224711234651
3.8485400676727295,0.006954759359359741,0.007313072681427002,0.006445884704589844,0.040550850331783295,0.013779519125819206,-0.021244151517748833,-0.262474997816766,0.4441583968045204,0.10891668424130455
3.8586349487304688,0.009546101093292236,0.015770673751831055,0.0057874321937561035,0.05248474329710007,0.00958290882408619,-0.015455503948032856,-0.26236001661106767,0.444339199949809,0.10859019192730761
3.868680000305176,0.004681795835494995,0.010443061590194702,0.011323690414428711,0.04560849443078041,0.004394539166241884,-0.011775760911405087,-0.2620938264452158,0.44445896053395834,0.10828388145269975
3.8788561820983887,0.001535564661026001,0.0007670223712921143,0.019875526428222656,0.017245562747120857,9.406637400388718e-05,-0.017637113109230995,-0.26201686739966595,0.44452245786881983,0.10803784508206925
3.8892040252685547,-0.0014226436614990234,-0.010724663734436035,0.024100422859191895,-0.0044310372322797775,0.0003923405893146992,-0.018269453197717667,-0.26208192592460877,0.4445634975457171,0.10786630027831277
3.898664951324463,-0.0018478929996490479,-0.014556020498275757,0.020274341106414795,-0.009949639439582825,-0.0028950655832886696,-0.0195618849247694,-0.2621781632262746,0.4445734969039761,0.10773884620983912
3.9092800617218018,-0.003023892641067505,-0.008379757404327393,0.014739155769348145,-0.005348529666662216,-0.0016950448043644428,-0.02015848644077778,-0.26229244825542636,0.44453681197287137,0.10758888970209925
3.918581962585449,-0.0027463436126708984,-0.00432172417640686,0.010703086853027344,0.002387154148891568,-0.005737990140914917,-0.021105773746967316,-0.2623722651852981,0.4444737323502887,0.1074022290060689
3.9288320541381836,-0.005411803722381592,-0.0009413957595825195,0.0077321529388427734,-0.00809458177536726,-0.00737254973500967,-0.025924814864993095,-0.2625692648143051,0.4443883940911624,0.10719937864249908
3.939237117767334,-0.0030673444271087646,-0.000507354736328125,0.006309688091278076,-0.02586265839636326,-0.004497666843235493,-0.02571682259440422,-0.26298883865207323,0.444343301333731,0.10704681452366878
3.9485769271850586,-0.0028972327709198,-0.007010519504547119,0.006164968013763428,-0.04649641364812851,0.015583144500851631,-0.030736828222870827,-0.2635449731518967,0.44437708231983436,0.10695447180125246
3.958620071411133,-0.005706608295440674,-0.008711844682693481,0.006776928901672363,-0.058973588049411774,0.040516987442970276,-0.04412107542157173,-0.2642957583217865,0.4447558745341043,0.10682467674524672
3.968614101409912,-0.010618537664413452,-0.010772734880447388,0.0005557537078857422,-0.025919552892446518,-0.010315963998436928,-0.02080424875020981,-0.2647393831560423,0.4449341431306295,0.10674559020375293
3.97868013381958,0.002017676830291748,0.0021459460258483887,0.0048209428787231445,-0.01215207390487194,-0.027988165616989136,-0.02809465304017067,-0.2648557434940997,0.4447017583668655,0.10660399274500014
3.988661050796509,0.016494005918502808,0.01937893033027649,0.011508524417877197,-0.014845295809209347,-0.032740313559770584,-0.022702764719724655,-0.26499201295322256,0.4443564994371649,0.10642859894055838
3.998661994934082,0.003177165985107422,0.004795968532562256,0.00457155704498291,-0.014509204775094986,-0.03743227198719978,-0.019166886806488037,-0.2651613530360071,0.44398846372306283,0.10630464061530061
4.008907079696655,0.0037284791469573975,-0.003946393728256226,0.002659738063812256,-0.01700368896126747,-0.04253586381673813,-0.019299723207950592,-0.2653817281486265,0.44354189042071074,0.10618713724211143
4.018633127212524,0.00837850570678711,0.001119375228881836,0.004340648651123047,-0.0047776480205357075,-0.04579370841383934,-0.012502538040280342,-0.2655400280746421,0.44307670895528223,0.1060942486367013
4.028713226318359,0.010080486536026001,0.0004254281520843506,0.0016022920608520508,0.005244642496109009,-0.05764792859554291,-0.007023775950074196,-0.2654843597381334,0.4425350238916642,0.10600581606231628
