timestamp,accel_x,accel_y,accel_z,rotation_x,rotation_y,rotation_z, pitch,roll,yaw
0.04494500160217285,-0.008339881896972656,0.0074135661125183105,0.010841324925422668,-0.0024085158947855234,0.004228985868394375,-0.01310826651751995,-0.3043622351690746,1.3690347999487098,0.24904863917383252
0.05816292762756348,-0.005882561206817627,0.007464617490768433,0.012129440903663635,-0.00035313842818140984,0.005281333811581135,-0.012333500199019909,-0.3045006776871502,1.3690843608954737,0.2490386090385203
0.05916094779968262,-0.005186319351196289,0.008626312017440796,0.011979997158050537,0.007283742539584637,0.005986805073916912,-0.011055981740355492,-0.3046104887567066,1.3691229167224923,0.24898686900930816
0.06011080741882324,-0.0042626261711120605,0.010082393884658813,0.009610921144485474,0.012637960724532604,0.004751275759190321,-0.010065551847219467,-0.3046996969561767,1.3691377640522187,0.24885906226259807
0.06457877159118652,-0.002642214298248291,0.01086696982383728,0.00862903892993927,0.015175952576100826,0.008557199500501156,-0.012182498350739479,-0.30477295625855194,1.3691550503565943,0.24869102623006525
0.0711050033569336,-0.0028086304664611816,0.010609328746795654,0.010073676705360413,0.012916311621665955,0.008710287511348724,-0.01186201348900795,-0.30485111006384474,1.3691879976568897,0.2485203625165886
0.08021998405456543,-0.0034088492393493652,0.009271115064620972,0.00898444652557373,0.012488607317209244,0.008518805727362633,-0.014867390505969524,-0.30495827694467087,1.369220026081254,0.2483612818709142
0.09021210670471191,-0.004447221755981445,0.00929442048072815,0.010040521621704102,0.011643070727586746,0.010260113514959812,-0.016666196286678314,-0.30509384682298357,1.3692731329955203,0.24820361689975792
0.10024905204772949,-0.0052204132080078125,0.010465294122695923,0.009900450706481934,0.013409544713795185,0.00889231450855732,-0.01869099959731102,-0.3052421102676309,1.3693155617683335,0.2480320011094015
0.1103050708770752,-0.004020512104034424,0.013526290655136108,0.00869673490524292,0.016085639595985413,0.0073894476518034935,-0.018525615334510803,-0.30539238332955704,1.3693366845642143,0.24783594586139354
0.12027382850646973,-0.004707038402557373,0.01378321647644043,0.007974952459335327,0.02081354893743992,0.008167888969182968,-0.019315775483846664,-0.3055550099102905,1.3693474206629166,0.24761176789946662
0.13035082817077637,-0.005990922451019287,0.013273030519485474,0.006405055522918701,0.01980714127421379,0.00835990346968174,-0.01873813569545746,-0.305705966307867,1.369352166458094,0.24736272469687332
0.1403648853302002,-0.0061331987380981445,0.012554436922073364,0.006279364228248596,0.01962977461516857,0.00802620965987444,-0.01609974168241024,-0.30585144837402045,1.3693630113230637,0.24711430666480938
0.150468111038208,-0.009447097778320312,0.01075655221939087,0.00725807249546051,0.018805408850312233,0.009403906762599945,-0.011352337896823883,-0.3059606942921309,1.3693863655942593,0.2468980598654634
0.1604468822479248,-0.01024085283279419,0.010681241750717163,0.007291018962860107,0.02991531603038311,0.00035981228575110435,-0.007869455963373184,-0.30600765608796326,1.3693807023635405,0.24664453939798917
0.1704258918762207,-0.010210752487182617,0.01049959659576416,0.008892014622688293,0.023586450144648552,0.004333603195846081,-0.0008388705318793654,-0.3060061317079809,1.3693004261790425,0.2463130317038131
0.18047690391540527,-0.011747956275939941,0.012898296117782593,0.00573296844959259,0.029098661616444588,0.009136081673204899,0.0019816833082586527,-0.306242880774305,1.3697266383486324,0.24617754167921851
0.19040393829345703,-0.007812380790710449,0.01475021243095398,0.0027598291635513306,0.031305257230997086,0.006413266062736511,0.003722432069480419,-0.30650912866773433,1.3700662772399377,0.24599415114411452
0.20077896118164062,-0.0064195990562438965,0.011621534824371338,0.005473315715789795,0.025820741429924965,0.01206236332654953,0.0015628747642040253,-0.306765869060224,1.3703628707468885,0.2457925909877551
0.21049284934997559,-0.007587134838104248,0.014974862337112427,0.007712721824645996,0.028373248875141144,0.012515278533101082,0.00017606024630367756,-0.30704174613218016,1.370593997770628,0.24557348387615655
0.22049188613891602,-0.004257798194885254,0.019007056951522827,0.008937537670135498,0.03489106893539429,0.01175521221011877,-0.0005083720898255706,-0.3072778468819006,1.37078673733238,0.24529880775536592
0.23048710823059082,-0.0017829537391662598,0.02237766981124878,0.00616455078125,0.0406467579305172,0.01258762739598751,-0.003961107227951288,-0.3075036382452739,1.3709638601268832,0.24495086365081584
0.2406628131866455,-0.002068817615509033,0.021979480981826782,0.004144787788391113,0.04513178765773773,0.015275289304554462,-0.0025933077558875084,-0.30772930057344994,1.3711349949117866,0.24454899751114414
0.25054478645324707,-0.0012053847312927246,0.022475481033325195,0.0041018277406692505,0.04437460005283356,0.014793746173381805,-0.005116546526551247,-0.30794537448924525,1.3713467686376417,0.24413980896580953
0.2608158588409424,0.00023829936981201172,0.023830920457839966,0.0020819902420043945,0.04299455136060715,0.0119891706854105,-0.010843407362699509,-0.3082363247425912,1.3714321745675433,0.24369503148352212
0.2707099914550781,-0.00027358531951904297,0.021955013275146484,0.001013830304145813,0.036810342222452164,0.006818953901529312,-0.017604535445570946,-0.30860364416088015,1.3714086237462388,0.24325216272470535
0.2807657718658447,-0.00035190582275390625,0.019997060298919678,0.002262115478515625,0.027003517374396324,0.0015610752161592245,-0.027482733130455017,-0.3089931384724599,1.3714682989560678,0.24291368656374737
0.2911670207977295,0.002902686595916748,0.020238548517227173,0.0035831481218338013,0.019251257181167603,-0.009035642258822918,-0.03846118599176407,-0.30957259494194617,1.3715523019615832,0.2426695821285709
0.3005659580230713,0.0076767802238464355,0.018921732902526855,0.005447804927825928,0.010612760670483112,-0.01648237183690071,-0.051077645272016525,-0.3103304210121378,1.371630709228114,0.24250723733575522
0.3106667995452881,0.005813717842102051,0.01622787117958069,0.007251620292663574,0.003941441886126995,-0.023999234661459923,-0.06422572582960129,-0.311252707975167,1.3715673832140969,0.24236735849425917
0.3205139636993408,0.004903018474578857,0.015478014945983887,0.007771685719490051,-0.0002005724236369133,-0.02380935102701187,-0.07475107163190842,-0.3122809787362878,1.3714009858138123,0.24225186734057103
0.3305790424346924,0.005425393581390381,0.015024632215499878,0.008388176560401917,0.00038146134465932846,-0.024522989988327026,-0.0798003152012825,-0.31336687611999586,1.3712579848813415,0.24214329192314926
0.34055304527282715,0.006410956382751465,0.0144176185131073,0.008911341428756714,0.008207693696022034,-0.02080867812037468,-0.0854659229516983,-0.31448644663352177,1.371065166151251,0.24196204238876737
0.35059690475463867,0.005311250686645508,0.013798952102661133,0.008070528507232666,0.022613780573010445,-0.012908367440104485,-0.08581580966711044,-0.3155543424153354,1.3708489875747951,0.2416402041528058
0.36087894439697266,0.0032330751419067383,0.014525443315505981,0.004910409450531006,0.03786463662981987,-0.006833962630480528,-0.08702754974365234,-0.3165559222502796,1.370702372732876,0.2411750325974436
0.3706958293914795,0.00028973817825317383,0.014480948448181152,0.004969656467437744,0.05389099195599556,-0.004427042789757252,-0.08549553900957108,-0.3175020559436227,1.3706085662836112,0.24056634350136732
0.3807361125946045,-0.001206517219543457,0.014164268970489502,0.006660357117652893,0.06330633163452148,-0.00184244429692626,-0.08868014812469482,-0.31838159064110316,1.3705858784966474,0.2398465742888444
0.3908860683441162,-0.004226565361022949,0.009145766496658325,0.005704522132873535,0.06516300141811371,-0.0017315242439508438,-0.08700672537088394,-0.3192315471975257,1.3705885883400564,0.2390837319925077
0.40073490142822266,-0.0059702396392822266,0.007034659385681152,0.005297064781188965,0.0668349340558052,0.0013015500735491514,-0.08944191783666611,-0.3200730271360484,1.3706092475565241,0.23830175079985572
0.41072583198547363,-0.004183530807495117,0.008715242147445679,0.0037163496017456055,0.05441074073314667,0.011792229488492012,-0.09218364953994751,-0.320938947087383,1.3707247126478348,0.23759045039203164
0.420759916305542,-0.0006645917892456055,0.015111833810806274,-0.0043503642082214355,0.050918273627758026,0.014800803735852242,-0.11520880460739136,-0.3219327446073317,1.3709310187320578,0.23694363594709664
0.43073201179504395,0.003145456314086914,0.022907674312591553,-0.007104963064193726,0.061805278062820435,0.01617259718477726,-0.14673636853694916,-0.323189169622301,1.3710843856156396,0.23617651798567524
0.4408237934112549,0.0031203031539916992,0.029265224933624268,-0.006707310676574707,0.07367657870054245,0.012874804437160492,-0.1825268566608429,-0.3247561197169801,1.371059019803671,0.23517877025119505
0.45076584815979004,0.005312502384185791,0.03823533654212952,-0.0065120309591293335,0.07884903997182846,0.012855630367994308,-0.2165728658437729,-0.3266587475193369,1.3709322077484207,0.23401525933160633
0.4608149528503418,0.011855721473693848,0.04731643199920654,-0.01044619083404541,0.09143061190843582,0.0066850860603153706,-0.2441568225622177,-0.3288322539331749,1.370779640704033,0.23272562717811673
0.47075796127319336,0.01774507761001587,0.04454231262207031,-0.012786850333213806,0.11159445345401764,-0.0020603355951607227,-0.27127915620803833,-0.33116781319261335,1.370426418538077,0.23118155043978994
0.48064088821411133,0.02202969789505005,0.04035317897796631,-0.016100198030471802,0.14821957051753998,-0.012182744219899178,-0.28987839818000793,-0.3336301880639604,1.3698440155020024,0.2292713361334785
0.4909029006958008,0.02355295419692993,0.03983515501022339,-0.020839154720306396,0.18203933537006378,-0.026591377332806587,-0.3157617449760437,-0.33623059145626755,1.3689596621374245,0.22695216410447563
0.500777006149292,0.028699398040771484,0.03944173455238342,-0.026138663291931152,0.21913717687129974,-0.032899338752031326,-0.3312605619430542,-0.33899241916908945,1.3677091122825251,0.22416219844799512
0.5108659267425537,0.02847898006439209,0.029052287340164185,-0.03334575891494751,0.24707238376140594,-0.045676521956920624,-0.35291728377342224,-0.3418881368945738,1.366229638409647,0.2209913128475654
0.5208070278167725,0.02624058723449707,0.014927923679351807,-0.033512651920318604,0.2776007354259491,-0.07018452882766724,-0.372953861951828,-0.34494527660950197,1.3644613421211365,0.21746557258300717
0.5309939384460449,0.02819383144378662,0.003380417823791504,-0.029410168528556824,0.286773681640625,-0.09473878145217896,-0.3982507288455963,-0.34821881041165903,1.362358069569812,0.21367051345008126
0.5415060520172119,0.03099125623703003,-0.003113299608230591,-0.033668071031570435,0.2706319987773895,-0.11371433734893799,-0.42485544085502625,-0.3516717087249472,1.359981633408328,0.20982814278240053
0.5510098934173584,0.03135937452316284,-0.013534188270568848,-0.04426079988479614,0.24247179925441742,-0.13005566596984863,-0.46164482831954956,-0.35547673471278396,1.3574532593812643,0.2061501456177175
0.5610687732696533,0.03405284881591797,-0.030463874340057373,-0.054081499576568604,0.19780100882053375,-0.14951191842556,-0.5119466185569763,-0.3597690620411663,1.354829639809846,0.20270123023424189
0.5710160732269287,0.035241663455963135,-0.04531252384185791,-0.06320136785507202,0.13606955111026764,-0.1666778177022934,-0.5788173079490662,-0.3647316656611416,1.3521530766113783,0.1997042773783628
0.5809009075164795,0.0372542142868042,-0.05718863010406494,-0.0707051157951355,0.10866376012563705,-0.2141992598772049,-0.6189546585083008,-0.3703614912949226,1.349268204699901,0.19701658643265585
0.5912840366363525,0.05039578676223755,-0.05418333411216736,-0.08403623104095459,0.10316423326730728,-0.2580888569355011,-0.6666703224182129,-0.3763601375047136,1.3459060610798008,0.1943943300894609
0.600848913192749,0.08344846963882446,-0.0018115043640136719,-0.09756492078304291,0.15336960554122925,-0.30788493156433105,-0.7405378818511963,-0.38294408470115615,1.3419378439337863,0.19134062400011403
0.6108529567718506,0.09728473424911499,0.03108799457550049,-0.11507855355739594,0.2040005624294281,-0.3703506886959076,-0.8589550852775574,-0.39027364422343036,1.337016699034465,0.1874584132797137
0.6207849979400635,0.11126148700714111,0.03057590126991272,-0.1296343058347702,0.24555864930152893,-0.45959535241127014,-0.9875564575195312,-0.39872897623014125,1.331031142741643,0.18270552431740159
0.6309349536895752,0.1310129165649414,0.035222798585891724,-0.14042997360229492,0.2930159270763397,-0.5178520083427429,-1.1015061140060425,-0.40825996832879985,1.3239097226643568,0.17716470584820085
0.6415109634399414,0.15402698516845703,0.06184983253479004,-0.1632477045059204,0.3468349575996399,-0.5884018540382385,-1.2217739820480347,-0.418707243349748,1.3157397275766252,0.17059894659667893
0.6509568691253662,0.1833972930908203,0.08069995045661926,-0.19541239738464355,0.4125521779060364,-0.671689510345459,-1.3534241914749146,-0.43017127870038757,1.3062355867451554,0.16292332448941696
0.6614978313446045,0.22445017099380493,0.07723844051361084,-0.21069198846817017,0.4432869553565979,-0.7558391094207764,-1.5114742517471313,-0.44284757614503695,1.2953806558874108,0.15413076457151415
0.6711318492889404,0.24960148334503174,0.05610153079032898,-0.2246764898300171,0.4255896508693695,-0.8410577774047852,-1.652696132659912,-0.456881770836698,1.2832340430655624,0.14457773661113266
0.6812598705291748,0.26761871576309204,0.03263521194458008,-0.2344559133052826,0.3718033730983734,-0.9307277202606201,-1.7637667655944824,-0.4720866859993954,1.2699561261474437,0.1347257166450935
0.6913909912109375,0.28579992055892944,0.014988124370574951,-0.22935134172439575,0.3098622262477875,-1.0278327465057373,-1.861029028892517,-0.48835435313241143,1.2555868644324086,0.12486162837019782
0.701556921005249,0.30322009325027466,0.005331635475158691,-0.21034708619117737,0.28403568267822266,-1.1411452293395996,-1.9480241537094116,-0.5055192862058123,1.2399408209889724,0.11479644825649986
0.711198091506958,0.314380407333374,0.009258836507797241,-0.1888752579689026,0.2933804392814636,-1.2751002311706543,-2.0077195167541504,-0.5232678236435215,1.222582924930885,0.10409642668963467
0.7213289737701416,0.32041603326797485,0.029862642288208008,-0.18061894178390503,0.32957786321640015,-1.3749293088912964,-2.0375516414642334,-0.5411479153876829,1.203386879588919,0.09249789274831237
0.731065034866333,0.3201025724411011,0.04726654291152954,-0.1878015697002411,0.4551558494567871,-1.4689747095108032,-2.0429670810699463,-0.5587312631654898,1.1823478867915622,0.07942425718856327
0.7412319183349609,0.3204661011695862,0.06173211336135864,-0.19358938932418823,0.6289923191070557,-1.5771586894989014,-2.059223175048828,-0.5755013492306336,1.1588001299105237,0.06404793348034904
0.7511379718780518,0.3260565400123596,0.0893092155456543,-0.19337594509124756,0.8270848393440247,-1.6771700382232666,-2.0565569400787354,-0.591292502827952,1.132465039606882,0.0458758496603769
0.7611238956451416,0.3210728168487549,0.09448623657226562,-0.19308051466941833,0.9836856126785278,-1.7283037900924683,-2.043797731399536,-0.6057859546565916,1.1037006598912633,0.025113513332078393
0.7711429595947266,0.3075578808784485,0.07915103435516357,-0.18767809867858887,1.080485463142395,-1.761878490447998,-2.016801595687866,-0.618988704066707,1.0731193602512463,0.002360644489661
0.7812089920043945,0.29589253664016724,0.07431083917617798,-0.1760425567626953,1.1622916460037231,-1.7789802551269531,-2.0075433254241943,-0.6310158541338842,1.0411850224685002,-0.021901758974470994
0.7913010120391846,0.2900712490081787,0.07132536172866821,-0.15785527229309082,1.2289692163467407,-1.8105440139770508,-1.990739345550537,-0.6418812250233985,1.0079485107880084,-0.04758734111668769
0.8011519908905029,0.28822773694992065,0.06634122133255005,-0.13455426692962646,1.2743518352508545,-1.8540481328964233,-2.012140989303589,-0.6517409103953544,0.973392236252512,-0.07450172484795563
0.8112790584564209,0.2862701416015625,0.05750685930252075,-0.10561272501945496,1.2923468351364136,-1.8991261720657349,-2.0048012733459473,-0.6607728287809007,0.937560759179329,-0.10242732871537104
0.8214869499206543,0.2718082070350647,0.02536672353744507,-0.08335095643997192,1.2602163553237915,-1.9158694744110107,-1.9731724262237549,-0.6688447685919864,0.9009899905252882,-0.1307047186320411
0.831230878829956,0.25141024589538574,0.0002702474594116211,-0.0707402229309082,1.2211116552352905,-1.9161895513534546,-1.927554726600647,-0.6760366615496084,0.8642741280259965,-0.1588242375755433
0.8414409160614014,0.24450558423995972,0.004086852073669434,-0.06671196222305298,1.2196016311645508,-1.905257225036621,-1.87165367603302,-0.6821916675859251,0.8275729761670256,-0.18676763186206655
0.8513338565826416,0.241113543510437,0.0040888190269470215,-0.06685864925384521,1.2938714027404785,-1.8988813161849976,-1.7957161664962769,-0.6868372845405292,0.7907986611524926,-0.21483607977422484
0.8614139556884766,0.2231677770614624,-0.008787453174591064,-0.06075310707092285,1.41120183467865,-1.9264724254608154,-1.7306591272354126,-0.6894618763143036,0.7535240726395321,-0.2434114848261444
0.8717567920684814,0.21510136127471924,-0.0200158953666687,-0.047908782958984375,1.5739566087722778,-1.9594130516052246,-1.650455117225647,-0.6897163850239649,0.7154345405581556,-0.27269363324441914
0.881706953048706,0.22323289513587952,-0.020085453987121582,-0.03356295824050903,1.7286444902420044,-2.019556760787964,-1.5824071168899536,-0.6873955990573472,0.6766290565314061,-0.3024622623478762
0.8917210102081299,0.23341721296310425,-0.002238035202026367,-0.0077612996101379395,1.860189437866211,-2.1097278594970703,-1.5354032516479492,-0.6826537743272547,0.6368579987481372,-0.33261484262159896
0.9016478061676025,0.2361229956150055,-0.010541558265686035,0.0343325138092041,1.9137197732925415,-2.160918951034546,-1.43856942653656,-0.6758520713879599,0.5967702680340538,-0.36233471357228014
0.9115660190582275,0.22589942812919617,-0.030310869216918945,0.06448221206665039,1.8933273553848267,-2.1915810108184814,-1.3363778591156006,-0.6674041036153551,0.5574608117474485,-0.3905096125471605
0.9215109348297119,0.21773195266723633,-0.02055966854095459,0.08800709247589111,1.8489569425582886,-2.1995849609375,-1.2526867389678955,-0.6579768095406279,0.5192765260162406,-0.41681489121204796
0.9315640926361084,0.21963214874267578,-0.021437466144561768,0.10271203517913818,1.7669938802719116,-2.194474220275879,-1.1466490030288696,-0.6478058561061611,0.4825700570924054,-0.4410402232976335
0.9415009021759033,0.22504636645317078,-0.021884143352508545,0.09920942783355713,1.6963452100753784,-2.2214391231536865,-1.104725956916809,-0.6373848447271571,0.4471650378432262,-0.4632727230638708
0.9515199661254883,0.2240387499332428,-0.01972728967666626,0.12455713748931885,1.6643589735031128,-2.2593767642974854,-1.0614463090896606,-0.6266362303659089,0.4123516893027544,-0.48417333405113777
0.9615938663482666,0.21637818217277527,-0.041688621044158936,0.15261584520339966,1.6194772720336914,-2.2680323123931885,-0.9835935235023499,-0.6153279077648003,0.378398543398459,-0.5036164105337226
0.9714667797088623,0.22170397639274597,-0.001499474048614502,0.1466863751411438,1.6001919507980347,-2.3370108604431152,-0.9850814342498779,-0.6037738646451842,0.34499966019791567,-0.5217432839013636
0.9815127849578857,0.24710923433303833,0.07026207447052002,0.14503121376037598,1.6085801124572754,-2.384218215942383,-0.974990725517273,-0.5917387054239421,0.3114169350721411,-0.5393219182135882
0.9917271137237549,0.24732863903045654,0.05936086177825928,0.14444375038146973,1.4969704151153564,-2.3255317211151123,-0.8892703056335449,-0.5794606459067162,0.2788682094456464,-0.5555096630730291
1.0016849040985107,0.20293347537517548,0.05690854787826538,0.12194401025772095,1.3593939542770386,-2.304381847381592,-0.8786730766296387,-0.5680096881212404,0.24786515640059364,-0.5700145290714254
1.011693000793457,0.1952352523803711,0.06887990236282349,0.1400185227394104,1.3574607372283936,-2.3112916946411133,-0.8845427632331848,-0.5568885991200349,0.217314090484922,-0.583907016870186
1.0217509269714355,0.20015570521354675,0.043628990650177,0.15538173913955688,1.3698526620864868,-2.224356174468994,-0.8112160563468933,-0.5451727837743752,0.187742472489943,-0.5969342316438861
1.0317108631134033,0.17616964876651764,0.0873039960861206,0.10784685611724854,1.4203802347183228,-2.1913557052612305,-0.809783399105072,-0.532917236760851,0.15957558044863815,-0.6089105057209001
1.041835069656372,0.20256537199020386,0.1829916536808014,0.07884776592254639,1.6846272945404053,-2.269662857055664,-0.8865756392478943,-0.5188561351752592,0.13108316404083442,-0.6212687941270102
1.0517230033874512,0.24002404510974884,0.1986294686794281,0.07449746131896973,1.9124642610549927,-2.338083028793335,-0.8841673731803894,-0.5019133607927775,0.10185535424909664,-0.6337663547205687
1.0617520809173584,0.22357192635536194,0.22209513187408447,0.057952165603637695,2.012174129486084,-2.3371059894561768,-0.9102016687393188,-0.48305790029986506,0.072706847786309,-0.6458629472925629
1.0716798305511475,0.18241918087005615,0.22579514980316162,0.06933528184890747,2.055616855621338,-2.300333261489868,-0.8845250010490417,-0.4631989810914136,0.04424030516657138,-0.6573233675373831
1.0821068286895752,0.15891990065574646,0.18141204118728638,0.08639025688171387,1.9916210174560547,-2.241291046142578,-0.8703375458717346,-0.4432002860084927,0.016942646090069666,-0.6677327691958711
1.0918359756469727,0.14195363223552704,0.16351744532585144,0.0942542552947998,1.9757641553878784,-2.2056198120117188,-0.8923858404159546,-0.4233737400441302,-0.009423983319945546,-0.6775656957745413
1.101789951324463,0.1351509541273117,0.14023032784461975,0.10064476728439331,1.9890490770339966,-2.163872718811035,-0.8997875452041626,-0.4033478783227164,-0.0350496449967213,-0.6868696469407969
1.1118237972259521,0.12865035235881805,0.11892354488372803,0.08734530210494995,2.0072412490844727,-2.1143128871917725,-0.8839112520217896,-0.38295243356004227,-0.05980354703049524,-0.6955248273518934
1.121812105178833,0.11135648936033249,0.10220009088516235,0.06779766082763672,2.0893614292144775,-2.0110347270965576,-0.8079389929771423,-0.36188494876693544,-0.08322131302831028,-0.7030682348621835
1.1318459510803223,0.10830026119947433,0.11977982521057129,0.030923008918762207,2.187809467315674,-1.9855095148086548,-0.7684577703475952,-0.33994660659011927,-0.10526035537722787,-0.7092031398129917
1.141968011856079,0.1265953630208969,0.19522124528884888,0.0077170729637146,2.450509548187256,-2.039991617202759,-0.8026333451271057,-0.3160248529688264,-0.12714405259206063,-0.7146312011658577
1.1518158912658691,0.1372111737728119,0.18904989957809448,0.032608985900878906,2.6539134979248047,-2.079218626022339,-0.7710646986961365,-0.2894946582949857,-0.14910189092564807,-0.7191182454935336
1.16190505027771,0.11914239823818207,0.17653164267539978,0.03761559724807739,2.746662139892578,-2.1232783794403076,-0.764748752117157,-0.2615443710011099,-0.17106823603035726,-0.7225221551536236
1.1718089580535889,0.10817490518093109,0.19936440885066986,0.057615697383880615,2.809373378753662,-2.131842613220215,-0.7413009405136108,-0.23278605781003056,-0.19303714685884893,-0.7249759574317426
1.1819188594818115,0.12425069510936737,0.18531589210033417,0.07637137174606323,2.751760959625244,-2.1290512084960938,-0.7078431248664856,-0.20395840946735247,-0.21462942801292564,-0.7264624289409705
1.191896915435791,0.12908333539962769,0.19172999262809753,0.08005380630493164,2.6700279712677,-2.1939823627471924,-0.7317595481872559,-0.17601399343365554,-0.2364308985136266,-0.7274126410067789
1.2019269466400146,0.1515486240386963,0.21077679097652435,0.10271787643432617,2.620654821395874,-2.2445790767669678,-0.7443075180053711,-0.14844085255051948,-0.25880499603998625,-0.7281220924404024
1.2123479843139648,0.15166282653808594,0.17617517709732056,0.11311572790145874,2.470454692840576,-2.219254732131958,-0.7034761309623718,-0.12191716540233494,-0.28122491268554817,-0.7283188497500885
1.2219488620758057,0.1350592076778412,0.1537424921989441,0.11478257179260254,2.2824182510375977,-2.140890598297119,-0.6483364701271057,-0.09715799545950109,-0.30300823529770426,-0.7279045804967894
1.231963872909546,0.13761025667190552,0.13815763592720032,0.11589080095291138,2.183664083480835,-2.0855867862701416,-0.6143707633018494,-0.0740530000769712,-0.3240887718557288,-0.727063013377027
1.242121934890747,0.16842177510261536,0.13554608821868896,0.11365753412246704,2.1009039878845215,-2.0273187160491943,-0.5615019202232361,-0.05183982263622513,-0.3445844534049249,-0.7255397256114764
1.251952886581421,0.19208583235740662,0.17252133786678314,0.10490220785140991,2.0728118419647217,-2.0059494972229004,-0.5881037712097168,-0.030333672316603392,-0.3646448743921523,-0.7236872404842688
1.2620019912719727,0.19389590620994568,0.21198670566082,0.12128430604934692,2.1245498657226562,-2.018599271774292,-0.5792115330696106,-0.008640260030071862,-0.3847931276118303,-0.721461591963331
1.2719848155975342,0.1988239288330078,0.1900549829006195,0.1398603320121765,2.0976600646972656,-1.9579918384552002,-0.533887505531311,0.013083901446077711,-0.4046998265001187,-0.7184550750426281
1.2819058895111084,0.18045806884765625,0.19579243659973145,0.14191579818725586,2.0726706981658936,-1.942228078842163,-0.5160208940505981,0.034208517797983076,-0.42427033342487797,-0.714865257925463
1.291935920715332,0.1765838861465454,0.21893204748630524,0.15487319231033325,2.1431796550750732,-1.9616734981536865,-0.49614450335502625,0.055477820182913834,-0.44395921235879743,-0.7106288163398551
1.3019578456878662,0.17912781238555908,0.18863654136657715,0.16408878564834595,2.129925012588501,-1.959532618522644,-0.44265997409820557,0.07681936062000795,-0.46397553470249236,-0.705410909446577
1.3120269775390625,0.16694331169128418,0.17895205318927765,0.16662120819091797,2.137157440185547,-1.9376899003982544,-0.38646093010902405,0.09768641645403082,-0.4839782275319245,-0.6993888116725953
1.322058916091919,0.15480512380599976,0.16408810019493103,0.1755615472793579,2.1394596099853516,-1.9209431409835815,-0.3155289590358734,0.11820532989429143,-0.5040654329587083,-0.6922886409658052
1.3318979740142822,0.15793591737747192,0.12415266036987305,0.1846832036972046,2.124342679977417,-1.8884323835372925,-0.2618762254714966,0.13818761482227035,-0.5241655129191004,-0.6842509645353423
1.3421049118041992,0.15663856267929077,0.1026933342218399,0.1977921724319458,2.141072988510132,-1.8458149433135986,-0.19033172726631165,0.15771337721741954,-0.5441524229541048,-0.6752563265799602
1.352118968963623,0.15067392587661743,0.0996561050415039,0.195972740650177,2.15785813331604,-1.8274645805358887,-0.10694117844104767,0.17680875683290462,-0.5642401626835956,-0.6650306408394333
1.3622238636016846,0.1546233892440796,0.10278098285198212,0.19384366273880005,2.145477533340454,-1.8080229759216309,-0.04399736598134041,0.1952981347690679,-0.5844854117527238,-0.6537571559770129
1.373420000076294,0.1561950445175171,0.0959475189447403,0.21514850854873657,2.114020824432373,-1.7852932214736938,0.02591860108077526,0.2130337199434868,-0.6049170795199755,-0.6416321993234406
1.3821959495544434,0.15123236179351807,0.08340717852115631,0.24106794595718384,2.08186674118042,-1.7354140281677246,0.08675771951675415,0.22981879972348251,-0.6253557067835679,-0.6287590336086523
1.3922088146209717,0.14647477865219116,0.08606778085231781,0.24554848670959473,2.035386562347412,-1.718944787979126,0.14503821730613708,0.2456978700354188,-0.6458566530153955,-0.6151809335761823
1.4021079540252686,0.14530330896377563,0.10001486539840698,0.2454472780227661,2.0169763565063477,-1.6525475978851318,0.16420899331569672,0.2608139207522954,-0.666217900502329,-0.6011765987571024
1.4121520519256592,0.1343253254890442,0.11128184199333191,0.23617637157440186,2.018717050552368,-1.617201805114746,0.19902721047401428,0.2753784087947236,-0.6864034883922735,-0.5865954780063053
1.4234788417816162,0.12730306386947632,0.13726592063903809,0.20976126194000244,2.044308662414551,-1.5557270050048828,0.2143547683954239,0.28967665734736103,-0.7064606814923049,-0.571362065491121
1.435364007949829,0.12382745742797852,0.1660350263118744,0.18384790420532227,2.0473792552948,-1.525642991065979,0.22295598685741425,0.3036286365947177,-0.7264499258251736,-0.555549966550017
1.442058801651001,0.10777205228805542,0.20294082164764404,0.17829537391662598,2.052821636199951,-1.5046583414077759,0.19670601189136505,0.31740494658092516,-0.7465044472428773,-0.5394502481409681
1.4520690441131592,0.08363598585128784,0.20150846242904663,0.19813281297683716,2.0220932960510254,-1.4756919145584106,0.1877380758523941,0.33091260803236916,-0.7665538924304666,-0.5232073231734382
1.462209939956665,0.060070037841796875,0.1941186785697937,0.20634490251541138,1.9733633995056152,-1.4171793460845947,0.17109306156635284,0.3439090080502936,-0.7863462640683236,-0.50700069116732
1.4734079837799072,0.046387314796447754,0.19249394536018372,0.19356995820999146,1.9286596775054932,-1.3313313722610474,0.14908713102340698,0.35637709284235264,-0.8055154160127423,-0.491016729952021
1.4823238849639893,0.04373830556869507,0.1837390959262848,0.16570758819580078,1.893489122390747,-1.2582509517669678,0.12978960573673248,0.36842436916348686,-0.8239749167182919,-0.47516111024111973
1.4921329021453857,0.04310792684555054,0.1792164444923401,0.13014721870422363,1.8532837629318237,-1.197485089302063,0.11279837042093277,0.38007368812571446,-0.8419161435466253,-0.45943272298829313
1.5021629333496094,0.03885728120803833,0.1745433211326599,0.11894088983535767,1.795667290687561,-1.1471558809280396,0.11078634858131409,0.3912019899142688,-0.8592356160752079,-0.44390980083117154
1.512470006942749,0.029175102710723877,0.16576465964317322,0.1200106143951416,1.7127641439437866,-1.074459433555603,0.0990867093205452,0.40156823672222236,-0.8757460388171696,-0.42884659031906164
1.523507833480835,0.023261189460754395,0.15031620860099792,0.13105064630508423,1.6142189502716064,-1.0376931428909302,0.08932383358478546,0.41116256438451176,-0.8914723564431029,-0.41442678660254717
1.5323498249053955,0.018234729766845703,0.14367523789405823,0.13456761837005615,1.5388094186782837,-1.0183852910995483,0.0501115545630455,0.42021575178569104,-0.9067804705155205,-0.4007123158591153
1.5422627925872803,0.021068334579467773,0.13371038436889648,0.13613492250442505,1.4897905588150024,-1.0224189758300781,0.020179755985736847,0.42909031007926995,-0.9221915458802773,-0.38741987759625235
1.5521838665008545,0.015117943286895752,0.12556403875350952,0.13082635402679443,1.4635233879089355,-1.009669542312622,-0.01699855923652649,0.4378355432549097,-0.9376298745604432,-0.3744677510707399
1.56221604347229,0.009533882141113281,0.12175637483596802,0.11816954612731934,1.4390026330947876,-0.992244303226471,-0.031476568430662155,0.4465040681982121,-0.9530021824115265,-0.36164366242006796
1.5735127925872803,0.014348983764648438,0.11714106798171997,0.08706092834472656,1.4101850986480713,-0.988786518573761,-0.04552362114191055,0.4549380649363496,-0.9683244207460077,-0.34895990214463696
1.5823171138763428,0.022240400314331055,0.11489289999008179,0.06885921955108643,1.3699026107788086,-0.9828274250030518,-0.054145608097314835,0.4631364604220817,-0.9836442973711118,-0.3364441161713576
1.5920360088348389,0.021601498126983643,0.10177212953567505,0.07938987016677856,1.3062819242477417,-0.9781169295310974,-0.06495554000139236,0.4709309810545167,-0.9988585033163453,-0.3242991668862245
1.6020169258117676,0.02379709482192993,0.07957643270492554,0.09664976596832275,1.237503170967102,-0.9856571555137634,-0.06624637544155121,0.47827988269132815,-1.0139268952958607,-0.31263175692954503
1.612029790878296,0.03466063737869263,0.05876097083091736,0.10310932993888855,1.1895560026168823,-0.9829148650169373,-0.06630463898181915,0.48514707210599795,-1.0289233628451968,-0.3014092753748365
1.6234309673309326,0.04520571231842041,0.05371996760368347,0.09986436367034912,1.154902458190918,-1.008113980293274,-0.057726066559553146,0.4916376346148734,-1.043982279671255,-0.2903745825644509
1.6321909427642822,0.05623263120651245,0.056717365980148315,0.08536362648010254,1.1276518106460571,-1.0380605459213257,-0.04574093967676163,0.4977305570476965,-1.059403005449533,-0.2794366830466264
1.6421489715576172,0.07050067186355591,0.05314639210700989,0.07702866196632385,1.1063741445541382,-1.0478432178497314,-0.018298661336302757,0.5034000716974072,-1.0750549624762022,-0.26848565350469306
1.6522247791290283,0.07202666997909546,0.04332888126373291,0.05546697974205017,1.0868812799453735,-1.0556062459945679,0.02613692730665207,0.508486817450889,-1.0908996518985796,-0.2574146936711591
1.6621577739715576,0.07906270027160645,0.042148858308792114,0.0365355908870697,1.103798508644104,-1.042593240737915,0.06755626946687698,0.5130286608348271,-1.1069345413094158,-0.24604567624451468
1.673407793045044,0.08207863569259644,0.0441434383392334,0.021460533142089844,1.179848313331604,-1.0537724494934082,0.1128246858716011,0.5171968560445154,-1.1233708183235542,-0.23385896163641992
1.682168960571289,0.08041882514953613,0.051933228969573975,-0.006780385971069336,1.3291897773742676,-1.0868343114852905,0.1476990431547165,0.5213361091957132,-1.1408361683017698,-0.22017527203668344
1.6921918392181396,0.07723486423492432,0.05538970232009888,-0.04011666774749756,1.5278534889221191,-1.1205974817276,0.19533905386924744,0.5255912421296791,-1.1597655689598605,-0.20434001097131554
1.7022058963775635,0.07240802049636841,0.06259840726852417,-0.07445254921913147,1.6756391525268555,-1.1885123252868652,0.24910719692707062,0.5298199859776151,-1.180419872486662,-0.18618454659994693
1.7122218608856201,0.07452332973480225,0.06961894035339355,-0.09115138649940491,1.707391381263733,-1.2781730890274048,0.2839761972427368,0.533627829428427,-1.202613247841408,-0.16672017468493622
1.723801851272583,0.07579058408737183,0.05241894721984863,-0.046826303005218506,1.5954102277755737,-1.361472487449646,0.31290239095687866,0.5366216839174658,-1.2256170756322347,-0.14740472333425922
1.7323639392852783,0.06484329700469971,0.009173333644866943,0.02077460289001465,1.3381590843200684,-1.4435611963272095,0.3172622621059418,0.5384488290453351,-1.248585485356028,-0.12997976397961108
1.7422587871551514,0.058171987533569336,-0.026267051696777344,0.08115559816360474,0.9617061614990234,-1.5318529605865479,0.3027504086494446,0.5390244229109894,-1.2706011999761135,-0.11600295009557575
1.7522728443145752,0.045524537563323975,-0.04347258806228638,0.1366954743862152,0.4939050078392029,-1.6025407314300537,0.24547547101974487,0.538480838360139,-1.2909039662669266,-0.10697510566300693
1.7622878551483154,0.037459373474121094,-0.056606829166412354,0.19270044565200806,-0.0660504475235939,-1.6506078243255615,0.19304901361465454,0.5369393160908953,-1.3087989435021878,-0.10382544425380215
1.773500919342041,0.027359306812286377,-0.06833690404891968,0.2379283308982849,-0.6546109318733215,-1.6677193641662598,0.11025063693523407,0.5345660571254826,-1.3235405314288577,-0.10744977998206051
1.7822949886322021,0.006090044975280762,-0.05954188108444214,0.27526047825813293,-1.2213605642318726,-1.6431740522384644,0.037884823977947235,0.5315963688651861,-1.3348002622200728,-0.11791154648421603
1.7923569679260254,-0.016334950923919678,-0.047228872776031494,0.2936360239982605,-1.675157904624939,-1.5715816020965576,-0.015459251590073109,0.5281471646029723,-1.3425778982707701,-0.1343638537693569
1.8023970127105713,-0.02866262197494507,-0.023764312267303467,0.287207692861557,-1.8953381776809692,-1.4815552234649658,-0.05172165110707283,0.5244374372064253,-1.3475502544714486,-0.15480406897674268
1.8123199939727783,-0.028199374675750732,0.01997104287147522,0.26628416776657104,-1.8570117950439453,-1.3747904300689697,-0.08680085837841034,0.5209547775798005,-1.3510932366602932,-0.17636436127698468
1.8236639499664307,-0.017825543880462646,0.05931165814399719,0.23900461196899414,-1.5935602188110352,-1.2553397417068481,-0.0995536744594574,0.5180934761610788,-1.354422805746197,-0.19615875979009362
1.8322827816009521,-0.006450831890106201,0.09369206428527832,0.20185261964797974,-1.1636828184127808,-1.1145708560943604,-0.11310171335935593,0.516200350975215,-1.358426222986444,-0.21204087590977222
1.8424718379974365,-0.0022395849227905273,0.11395221948623657,0.16714781522750854,-0.7058877944946289,-0.9508994221687317,-0.11771456897258759,0.5153543614010863,-1.3634139715734452,-0.2228690275650079
1.852550983428955,-0.0037074685096740723,0.12238883972167969,0.1318487524986267,-0.2873600423336029,-0.7799654006958008,-0.13108225166797638,0.515580634671156,-1.3691968816191702,-0.22869141280475463
1.8625059127807617,-0.013371884822845459,0.10622498393058777,0.11696191132068634,0.03201233968138695,-0.618712842464447,-0.13975004851818085,0.5166627749864341,-1.3753301232086859,-0.23037704860700095
1.8732860088348389,-0.012457191944122314,0.07811793684959412,0.12930656969547272,0.2365022599697113,-0.48937806487083435,-0.15710362792015076,0.5183830454072337,-1.3814535237331074,-0.22912299608494
1.8825318813323975,-0.010692894458770752,0.06018465757369995,0.15944798290729523,0.3419612944126129,-0.3829280734062195,-0.16097159683704376,0.5205050388128833,-1.387282197571487,-0.2261235994146704
1.8924548625946045,-0.021210074424743652,0.04037952423095703,0.17085570096969604,0.4612080454826355,-0.2672533392906189,-0.12702727317810059,0.522723551390715,-1.3925664002029137,-0.22194112539654784
1.902420997619629,-0.023669064044952393,0.021444737911224365,0.12176556885242462,0.5025773644447327,-0.1993131786584854,-0.1400272250175476,0.5247867239565136,-1.3975478294613901,-0.21672434614482983
1.9124910831451416,-0.0029706954956054688,0.029386281967163086,0.057257965207099915,0.5596656203269958,-0.18638943135738373,-0.1289830505847931,0.5270707578356613,-1.402378238808039,-0.21088428734240725
1.9234287738800049,-0.008571147918701172,0.010550260543823242,0.05838124454021454,0.49512678384780884,-0.20109593868255615,-0.13224861025810242,0.5292360274615794,-1.4072425896846021,-0.20501325221417682
1.9325430393218994,-0.01835089921951294,-0.02757441997528076,0.09069059789180756,0.3304532468318939,-0.23476672172546387,-0.1195509284734726,0.531172078650117,-1.4116915485814583,-0.2004971164123327
1.9425771236419678,-0.0025246739387512207,-0.07404869794845581,0.1290818303823471,0.13631437718868256,-0.24960480630397797,-0.07623568177223206,0.532522212242794,-1.4153656696567984,-0.1980112984611109
1.9525649547576904,-0.0014298558235168457,-0.09719794988632202,0.13576900959014893,0.009201651439070702,-0.2288740873336792,-0.013402066193521023,0.5330693787945854,-1.418107557254882,-0.19735924369916685
1.9626600742340088,-0.003277719020843506,-0.11089718341827393,0.09338663518428802,0.005080142989754677,-0.20013058185577393,0.056236930191516876,0.5328427915204119,-1.420270833324374,-0.1973426239044382
1.9739749431610107,0.0035881996154785156,-0.11954206228256226,0.029920101165771484,0.13366268575191498,-0.16641195118427277,0.12221583724021912,0.5320536888889855,-1.4225319600601378,-0.19647285266380193
1.9825990200042725,0.005535304546356201,-0.12147974967956543,-0.009516015648841858,0.34034422039985657,-0.14159609377384186,0.19703230261802673,0.5308149585341959,-1.4255468825974278,-0.1935344761400618
1.9926819801330566,0.00795215368270874,-0.13246464729309082,-0.026177048683166504,0.5918601155281067,-0.12672577798366547,0.290054589509964,0.5290658210716042,-1.4297664428771668,-0.18781544745516815
2.0026137828826904,0.013643503189086914,-0.15560424327850342,-0.035192184150218964,0.8179441690444946,-0.10883094370365143,0.3725595772266388,0.5267434197064748,-1.4352838567596187,-0.17916777538123826
2.0126798152923584,0.013458192348480225,-0.18301838636398315,-0.025963783264160156,0.9796826243400574,-0.08756089955568314,0.4658905565738678,0.5237874240147335,-1.441778143290411,-0.1681684876749212
2.023427963256836,0.024403095245361328,-0.22870811820030212,-0.0014526844024658203,1.077418327331543,-0.04812294617295265,0.5750343203544617,0.5199269620687293,-1.4486873258341013,-0.1556286957077977
2.0327041149139404,0.02627652883529663,-0.28410419821739197,0.020946741104125977,1.113283395767212,-0.006201861891895533,0.7048717141151428,0.5148629263490616,-1.4556264365606808,-0.14216622680001745
2.04272198677063,0.02999204397201538,-0.32047849893569946,0.03876994550228119,1.0831965208053589,0.05386706814169884,0.8388960957527161,0.5084436199167756,-1.4620182128683221,-0.12859235509521413
2.0527429580688477,0.0440860390663147,-0.3488444983959198,0.062307246029376984,0.9330379366874695,0.13055464625358582,0.9884606599807739,0.5004433021896885,-1.467229692180385,-0.1159491942559773
2.062833070755005,0.04902982711791992,-0.37636297941207886,0.08366072177886963,0.6934013962745667,0.2256590574979782,1.1621460914611816,0.49056621527615707,-1.470436257316856,-0.10545424963186074
2.0733869075775146,0.06404870748519897,-0.4055238962173462,0.09760916233062744,0.40435415506362915,0.32946527004241943,1.3298001289367676,0.4787175429973571,-1.4711813135678713,-0.0978671743573616
2.082767963409424,0.08186596632003784,-0.4248812198638916,0.10132753103971481,0.12041139602661133,0.44850510358810425,1.5219131708145142,0.4647977431390904,-1.4693376543297538,-0.09334749054828866
2.092834949493408,0.08827751874923706,-0.42208272218704224,0.09030066430568695,-0.14412039518356323,0.5702741146087646,1.6958694458007812,0.4487716495143299,-1.4649715317908585,-0.09164456202478526
2.1029608249664307,0.09935623407363892,-0.4014609754085541,0.07084029912948608,-0.38041841983795166,0.6724657416343689,1.8514236211776733,0.4308362832205702,-1.4584034556039878,-0.09243924553724912
2.112816095352173,0.10917317867279053,-0.39388397336006165,0.06431835889816284,-0.5564624667167664,0.7466503977775574,1.9945696592330933,0.4111509092930889,-1.4501668470617943,-0.09510479005187855
2.1237049102783203,0.11761188507080078,-0.39513903856277466,0.07679379731416702,-0.6394601464271545,0.7690110802650452,2.1166939735412598,0.38998579161840213,-1.441063159763775,-0.09882300498119123
2.1327741146087646,0.12284982204437256,-0.38519009947776794,0.09329527616500854,-0.617336094379425,0.7259787321090698,2.2236616611480713,0.36760100879482216,-1.432182140542703,-0.10244838231033293
2.142835855484009,0.13257360458374023,-0.3559413552284241,0.1015692949295044,-0.513416051864624,0.6466878652572632,2.2959017753601074,0.34439965714732296,-1.4243536631335654,-0.10507694397042729
2.15281081199646,0.14486092329025269,-0.323349267244339,0.10467506945133209,-0.3352001905441284,0.5334745049476624,2.367003917694092,0.3207000644798955,-1.4181657838196957,-0.10587493493615587
2.16292405128479,0.15262728929519653,-0.29779383540153503,0.09488523006439209,-0.11942792683839798,0.42561861872673035,2.439030885696411,0.2966088311532054,-1.4138138555987878,-0.10438296475676793
2.1734540462493896,0.16016638278961182,-0.29157719016075134,0.07016970217227936,0.10120521485805511,0.33877167105674744,2.5357043743133545,0.2720538160124155,-1.4111240263764617,-0.10035256782693261
2.182913064956665,0.17276519536972046,-0.3038693070411682,0.03920191526412964,0.26860591769218445,0.2805904150009155,2.6416282653808594,0.24681627413177212,-1.4096250729435995,-0.09415426257580169
2.1929547786712646,0.1836632490158081,-0.31761521100997925,0.01458740234375,0.32420873641967773,0.2621574103832245,2.7698309421539307,0.22059221218195627,-1.4086903059320475,-0.08657341424184863
2.2029619216918945,0.1861351728439331,-0.33321937918663025,-0.00019969046115875244,0.2762039303779602,0.309226393699646,2.901944160461426,0.19312539312631338,-1.4074574816502905,-0.07882688015701889
2.2129619121551514,0.17718899250030518,-0.3505246341228485,-0.008527159690856934,0.1746179759502411,0.372246652841568,3.0466389656066895,0.164127244097599,-1.4053355435684856,-0.07157517886081678
2.2234370708465576,0.17465001344680786,-0.366571307182312,-0.02128349244594574,0.018309328705072403,0.42558762431144714,3.1582870483398438,0.1336738430696937,-1.4022404044979533,-0.0653629983846546
2.2329790592193604,0.17828267812728882,-0.35940730571746826,-0.020185858011245728,-0.13270442187786102,0.4561038315296173,3.2463111877441406,0.10199684752984294,-1.3983961727271548,-0.06049387917431385
2.2430150508880615,0.17754673957824707,-0.35745853185653687,-0.004597663879394531,-0.25449156761169434,0.4852728843688965,3.3391664028167725,0.06923251104099822,-1.3939837920772837,-0.05666232843955064
2.2529850006103516,0.18417102098464966,-0.3557493984699249,0.0050283074378967285,-0.3969961702823639,0.48633354902267456,3.4248178005218506,0.035340718104163046,-1.3892600442697538,-0.053815046398928874
2.263368844985962,0.19461840391159058,-0.32164061069488525,0.007883191108703613,-0.5315641164779663,0.49396562576293945,3.49208664894104,0.00048769573607273647,-1.384375480402873,-0.052065713943780956
2.2734668254852295,0.19822323322296143,-0.30138206481933594,0.007850050926208496,-0.6602026224136353,0.4849856197834015,3.5734751224517822,-0.03536771585633981,-1.3794567645357565,-0.051304873832185426
2.2830278873443604,0.206282377243042,-0.2897907793521881,0.003946274518966675,-0.7572319507598877,0.4592919647693634,3.634483575820923,-0.0721256596759258,-1.374705307444244,-0.051322570242444576
2.2930948734283447,0.21277868747711182,-0.2800956964492798,0.005933523178100586,-0.8064448833465576,0.3692207634449005,3.6482741832733154,-0.1094308170533305,-1.3705810311790996,-0.05188770194712506
2.303010940551758,0.2218453288078308,-0.2755066156387329,0.03639453649520874,-0.7331714630126953,0.2286234349012375,3.6696078777313232,-0.1468221043529671,-1.3675808235728992,-0.052157664320592254
2.313049077987671,0.24991559982299805,-0.26621466875076294,0.04761403799057007,-0.6061201691627502,0.06558018177747726,3.7287378311157227,-0.18443376563086442,-1.3659434637852437,-0.051197958740330854
2.323513984680176,0.2887234687805176,-0.21190139651298523,0.027789652347564697,-0.5888511538505554,-0.05002604424953461,3.7813518047332764,-0.22239716343246002,-1.365511657199124,-0.04922350539031344
2.333329916000366,0.3097198009490967,-0.16098710894584656,-0.0027823299169540405,-0.7490941882133484,-0.09614648669958115,3.872666835784912,-0.26122258342357974,-1.3659371316892974,-0.047866347328293535
2.343208074569702,0.3313989043235779,-0.14913326501846313,-0.035230815410614014,-1.0256620645523071,-0.11872183531522751,3.958707571029663,-0.3013960371651044,-1.3672240313070207,-0.048584876544914085
2.3531739711761475,0.3488539457321167,-0.16253414750099182,-0.034333229064941406,-1.350715160369873,-0.12242664396762848,4.009509086608887,-0.34290560202742293,-1.3696729189512256,-0.052419149917840795
2.3632829189300537,0.34301936626434326,-0.1601679027080536,-0.014920666813850403,-1.6902357339859009,-0.1394708752632141,4.033516883850098,-0.3853972156746846,-1.373614881573193,-0.05994010163545214
2.373353958129883,0.3337458372116089,-0.14875778555870056,-0.002112343907356262,-1.8096554279327393,-0.25257232785224915,4.03157901763916,-0.42845529745324423,-1.3796467528579646,-0.07033731098819226
2.3831398487091064,0.35945576429367065,-0.12180423736572266,-0.02647918462753296,-1.7561838626861572,-0.39857664704322815,4.004322052001953,-0.4712533076564104,-1.387772595868736,-0.08153775021206124
2.3931069374084473,0.3889179229736328,-0.051286280155181885,-0.06764303147792816,-1.4612480401992798,-0.5683300495147705,3.9992380142211914,-0.5135511367668976,-1.3973888334905598,-0.09167540933295856
2.4031829833984375,0.4171264171600342,0.06645160913467407,-0.0899147242307663,-1.061331868171692,-0.7445647716522217,3.989586591720581,-0.5551125022743898,-1.4073381776621579,-0.09837887477245538
2.4131920337677,0.468813419342041,0.2482450008392334,-0.09578794240951538,-0.5032260417938232,-0.975862979888916,3.8952829837799072,-0.5954149058306273,-1.4169146817708271,-0.10022343212078715
2.4234349727630615,0.5252664685249329,0.47212207317352295,-0.10221464931964874,0.06521771848201752,-1.1686094999313354,3.7004387378692627,-0.6333431240964346,-1.4252343535519538,-0.09590721016114838
2.433211088180542,0.5005469918251038,0.5623928308486938,-0.14436842501163483,0.44516682624816895,-1.2108100652694702,3.5271098613739014,-0.6687369930928615,-1.4312208981338448,-0.08599467762470117
2.443274974822998,0.40248948335647583,0.48322784900665283,-0.1802384853363037,0.5373188257217407,-1.1152064800262451,3.3785195350646973,-0.7022511092098557,-1.4349409625919194,-0.07340058245268133
2.4532268047332764,0.309958279132843,0.35761773586273193,-0.1525271087884903,0.43219873309135437,-0.983421266078949,3.253031015396118,-0.734477012496621,-1.4372367826378274,-0.06093384555462389
2.4632670879364014,0.25437337160110474,0.27085959911346436,-0.0709947943687439,0.18221473693847656,-0.8721743822097778,3.119847297668457,-0.7656737401913605,-1.4397160280338372,-0.05096760890057281
2.473426103591919,0.2176416516304016,0.20170819759368896,0.03774064779281616,-0.12539656460285187,-0.7920148372650146,3.035212993621826,-0.7961356085193215,-1.443769092496156,-0.04492251760083161
2.483268976211548,0.17354285717010498,0.11351466178894043,0.10738837718963623,-0.49533599615097046,-0.7344138622283936,3.000225782394409,-0.8264713401155827,-1.450712397297918,-0.04395788121237975
2.493276834487915,0.12154245376586914,0.03872603178024292,0.13961106538772583,-0.8369666337966919,-0.6808152198791504,3.01410174369812,-0.8570835890999133,-1.461411733309036,-0.048776530898336695
2.5033648014068604,0.08645659685134888,-0.013749241828918457,0.13219588994979858,-1.289738416671753,-0.605012834072113,3.093414306640625,-0.8885684439645508,-1.4766494684699418,-0.06025394753292527
2.5133469104766846,0.08269810676574707,0.017663776874542236,0.1040184497833252,-1.6935498714447021,-0.5265951156616211,3.1210079193115234,-0.920852711064606,-1.498063014795274,-0.08031517988484105
2.5235249996185303,0.09197616577148438,0.08807981014251709,0.07536083459854126,-1.9146881103515625,-0.5322761535644531,3.1007537841796875,-0.9530653638782137,-1.525550073822707,-0.10788307048550935
2.533463954925537,0.0754925012588501,0.0886276364326477,0.0274391770362854,-1.920245885848999,-0.5877749919891357,3.0325639247894287,-0.98432079076403,-1.5578303305907706,-0.140310306359555
2.5435259342193604,0.06048828363418579,0.07534819841384888,-0.02951788902282715,-1.751516580581665,-0.7024270296096802,2.9253499507904053,-1.014087489587539,-1.593250020145998,-0.17476742114958888
2.5536301136016846,0.07376402616500854,0.11834299564361572,-0.09895598888397217,-1.4093458652496338,-0.8437453508377075,2.7660837173461914,-1.0419246614991233,-1.6293228255968075,-0.20789574478559247
2.5633018016815186,0.07683122158050537,0.15271908044815063,-0.14434587955474854,-0.9152360558509827,-1.0474811792373657,2.645282506942749,-1.0680073229400087,-1.6628471892098577,-0.23558669421673253
2.5734119415283203,0.08881515264511108,0.16830825805664062,-0.1518850326538086,-0.43725377321243286,-1.2250767946243286,2.5717310905456543,-1.0932689255513464,-1.6919428789989086,-0.25564155762340063
2.5838429927825928,0.1142943799495697,0.21299564838409424,-0.13984930515289307,-0.07563457638025284,-1.331882357597351,2.5289015769958496,-1.118186885773183,-1.716432391895407,-0.268689879269653
2.5934860706329346,0.11034724116325378,0.21555250883102417,-0.12241030484437943,0.13233311474323273,-1.3644917011260986,2.5650570392608643,-1.143423334141881,-1.7375365571064636,-0.27703124168635285
2.603369951248169,0.09165748953819275,0.15307217836380005,-0.09975803643465042,0.20801562070846558,-1.3023297786712646,2.6376001834869385,-1.1693334010872727,-1.757346448239228,-0.28404425632234553
2.6137259006500244,0.06444299221038818,0.06570404767990112,-0.08628654479980469,0.21724124252796173,-1.1849511861801147,2.7354321479797363,-1.1961410403590438,-1.7775309414810174,-0.2923511464629175
2.623424768447876,0.05240052938461304,0.006383657455444336,-0.09188473969697952,0.22613167762756348,-1.0380111932754517,2.835993766784668,-1.2238306652145927,-1.7988713109184604,-0.30326366936873606
2.63348388671875,0.05648225545883179,-0.027740657329559326,-0.10085809975862503,0.23787802457809448,-0.9021090865135193,2.9395322799682617,-1.2524943873071188,-1.821885658032096,-0.3173584381504237
2.6435320377349854,0.08047911524772644,-0.05420553684234619,-0.08832597732543945,0.35311567783355713,-0.8417064547538757,2.988320827484131,-1.281916022838594,-1.8463967121819425,-0.33396966658674454
2.653578996658325,0.11276119947433472,-0.10123258829116821,-0.03229522705078125,0.5975806713104248,-0.9108507037162781,3.0228211879730225,-1.312108044686439,-1.8694305032053005,-0.34882509066187856
2.6636478900909424,0.17650507390499115,-0.08972561359405518,0.012118466198444366,0.8983975052833557,-0.9966732263565063,3.051168441772461,-1.3433579329593583,-1.8872605838353107,-0.35733171444378237
2.6735970973968506,0.24379396438598633,0.004541158676147461,0.004193298518657684,1.1147422790527344,-1.040096640586853,3.096177101135254,-1.3757524076514476,-1.8978320820761303,-0.3577179785769757
2.6837270259857178,0.28852230310440063,0.0778125524520874,-0.017250776290893555,1.198622226715088,-1.0565123558044434,3.133131265640259,-1.4090385786164739,-1.9030346972779741,-0.3523229836645088
2.693800926208496,0.3167968690395355,0.07064568996429443,-0.010858889669179916,1.1197431087493896,-1.0555647611618042,3.168407440185547,-1.4427136350470682,-1.9087662342930987,-0.3474055785400911
2.7037220001220703,0.3169826567173004,0.04132777452468872,0.029009580612182617,0.8307970762252808,-1.0286071300506592,3.1384317874908447,-1.4758048630763336,-1.9325290232357917,-0.3608097860306206
2.7135839462280273,0.29738208651542664,0.036687254905700684,0.08402132987976074,0.3661169409751892,-1.006467580795288,3.061671733856201,-1.5067572030452798,-2.0280365959621935,-0.44639597405891107
2.724005937576294,0.29093801975250244,0.03670299053192139,0.14318132400512695,-0.19274422526359558,-0.9536831974983215,2.93888783454895,-1.5319796488331485,-2.3680266969362718,-0.7769538525165871
2.73366379737854,0.2784770727157593,0.03526419401168823,0.1896953582763672,-0.7627749443054199,-0.9136473536491394,2.74680757522583,-1.5380777896413325,3.0908562048885115,-1.5923966896710893
2.743778944015503,0.25340577960014343,0.07869082689285278,0.2062976360321045,-1.2816596031188965,-0.917569637298584,2.486980438232422,-1.5195381965169106,2.558526479156153,-2.115978403976586
2.7537028789520264,0.2381947636604309,0.13194459676742554,0.22292232513427734,-1.7197306156158447,-0.9159563779830933,2.1819045543670654,-1.4932176491150466,2.4059007072987524,-2.259714482533287
2.764058828353882,0.20600952208042145,0.16480261087417603,0.2359679937362671,-2.012566328048706,-0.9374158382415771,1.8469585180282593,-1.4657145434355168,2.375497295450712,-2.2809055718177174
2.7739880084991455,0.14846214652061462,0.19856113195419312,0.2404860258102417,-2.1321895122528076,-0.9532655477523804,1.5021363496780396,-1.439053972930132,2.384873846937092,-2.261927534765304
2.7837889194488525,0.1081521287560463,0.24652785062789917,0.24063099920749664,-2.122511386871338,-0.9731398820877075,1.156812310218811,-1.4143435965002493,2.4077262149120187,-2.2290613765189455
2.793781042098999,0.073250912129879,0.26473933458328247,0.24438762664794922,-2.0066864490509033,-0.9284714460372925,0.8852363228797913,-1.392067562107485,2.4338588966982155,-2.192860371733759
2.803826093673706,0.01290244609117508,0.2254062294960022,0.23371945321559906,-1.7956515550613403,-0.8178240060806274,0.7038838267326355,-1.3723483734518243,2.457480468643777,-2.1598488929848854
2.813728094100952,-0.0358353853225708,0.1648741364479065,0.19297204911708832,-1.4576058387756348,-0.6475903987884521,0.6166953444480896,-1.355487486344208,2.474536860763112,-2.1349098804967763
2.8248989582061768,-0.05468545854091644,0.1065981388092041,0.12387871742248535,-0.9902530312538147,-0.4861474335193634,0.6091746091842651,-1.3419897267874963,2.481325689737897,-2.1221435288169377
2.8338959217071533,-0.05080747604370117,0.06678199768066406,0.06136894226074219,-0.413286417722702,-0.3415836989879608,0.6713248491287231,-1.332520729958714,2.4743826557504445,-2.1250356485226023
2.8440189361572266,-0.042795196175575256,0.03904235363006592,0.018870964646339417,0.14813432097434998,-0.217215433716774,0.7653834819793701,-1.327020177610429,2.452031445882516,-2.1451878480913584
2.8539669513702393,-0.02163080871105194,0.048686087131500244,0.007470384240150452,0.6324481964111328,-0.1339803785085678,0.8432713150978088,-1.324816721223814,2.415507037427918,-2.181076418738569
2.8640668392181396,0.0015232115983963013,0.05376094579696655,0.01563526690006256,0.9208722710609436,-0.08550631999969482,0.9130237698554993,-1.324592044549133,2.367313022810264,-2.229654584293122
2.8741490840911865,0.027629032731056213,0.04679882526397705,0.00764426589012146,1.0374218225479126,-0.09284039586782455,0.9258716702461243,-1.3248582800384907,2.3125161799565177,-2.285272771948767
2.883920907974243,0.04796028137207031,0.0357094407081604,0.018655285239219666,0.9483949542045593,-0.14903788268566132,0.8832509517669678,-1.3245928659262123,2.257246204810656,-2.341038960434581
2.894009828567505,0.047668829560279846,0.03396964073181152,0.047381043434143066,0.6750963926315308,-0.20974598824977875,0.8116151690483093,-1.3229716499154496,2.209052314459679,-2.3888867952071484
2.9039599895477295,0.02869914472103119,0.027434468269348145,0.08237290382385254,0.27337878942489624,-0.2831786274909973,0.7504114508628845,-1.319406941454792,2.173455916298927,-2.423072840959936
2.914019823074341,0.009499937295913696,0.02244579792022705,0.1011272668838501,-0.13145478069782257,-0.34109386801719666,0.700106680393219,-1.3137602614999688,2.1526849919350246,-2.4412859808874066
2.924118995666504,-0.005796492099761963,0.03591281175613403,0.10128499567508698,-0.4514721930027008,-0.4083424210548401,0.66020667552948,-1.3064451290881407,2.1441855244962134,-2.446194924884289
2.9339730739593506,-0.0021315664052963257,0.0759429931640625,0.09845994412899017,-0.6661789417266846,-0.4467622935771942,0.6002393364906311,-1.2980813368928215,2.144824095786212,-2.4410866738206747
2.944042921066284,0.008409559726715088,0.11470258235931396,0.09492743015289307,-0.7728068232536316,-0.4669668972492218,0.558179497718811,-1.2892611123068494,2.1504324315764083,-2.430466142890209
2.954011917114258,-0.0029142796993255615,0.13202911615371704,0.09351553022861481,-0.799830973148346,-0.44069021940231323,0.4995437562465668,-1.2804696944788745,2.1584011904299207,-2.4174058170050428
2.9640190601348877,-0.024627327919006348,0.15263670682907104,0.09040391445159912,-0.7542033195495605,-0.4006573259830475,0.4298543930053711,-1.272238690649627,2.1670130424487395,-2.403991054698445
2.974247932434082,-0.02892625331878662,0.18049651384353638,0.09158731997013092,-0.6429871916770935,-0.34267497062683105,0.33288124203681946,-1.265119946717025,2.1748981155499947,-2.3918200386335093
2.9840290546417236,-0.03669255971908569,0.19227588176727295,0.11346183717250824,-0.500912070274353,-0.2712321877479553,0.21382249891757965,-1.2595917428966208,2.1817177064670874,-2.381423954867935
2.994014024734497,-0.0476226806640625,0.1835770606994629,0.14562784135341644,-0.3126868009567261,-0.16100826859474182,0.09666243940591812,-1.2559782873248202,2.187127083293982,-2.373432180946777
3.0041239261627197,-0.0526144802570343,0.15836411714553833,0.15170669555664062,-0.09235125780105591,-0.028050480410456657,-0.009453078731894493,-1.2544230988771956,2.1905927629577353,-2.3687943226532915
3.0140697956085205,-0.037169307470321655,0.13876068592071533,0.12649761140346527,0.2013087421655655,0.10021157562732697,-0.09583137184381485,-1.2551951879970176,2.1905959050213255,-2.3691676712219816
3.0242319107055664,-0.03171759843826294,0.1160394549369812,0.09476898610591888,0.48637163639068604,0.2271314412355423,-0.1518547087907791,-1.2582105648738757,2.185821494639991,-2.375922913679922
3.0341360569000244,-0.039433836936950684,0.09105032682418823,0.08534635603427887,0.7285792827606201,0.32996878027915955,-0.17336104810237885,-1.2630954143351143,2.175826388996525,-2.3893563745139366
3.0441348552703857,-0.025787413120269775,0.05428028106689453,0.10398437082767487,0.8863031268119812,0.41749516129493713,-0.15714320540428162,-1.2690850179188724,2.1612601637154096,-2.4085774315277493
3.0541329383850098,0.002443864941596985,0.02020472288131714,0.1155562549829483,0.9333609342575073,0.47549697756767273,-0.10217353701591492,-1.2752136148876925,2.143166571947573,-2.4322126793145595
3.0641610622406006,0.020375043153762817,0.00046628713607788086,0.11979198455810547,0.8786026239395142,0.4897387623786926,-0.05225284397602081,-1.2807413828771088,2.1238193244644306,-2.4575062431888224
3.0747759342193604,0.030622825026512146,-0.01683962345123291,0.1397111564874649,0.7573495507240295,0.4766652584075928,0.017411399632692337,-1.2851578176537042,2.105236021920369,-2.4819453563557907
3.0841410160064697,0.033615633845329285,-0.03972017765045166,0.1665833294391632,0.5994435548782349,0.44120684266090393,0.08426633477210999,-1.2881246644016002,2.088848166012967,-2.5038190298279983
3.0941319465637207,0.0415947288274765,-0.03625386953353882,0.16545628011226654,0.4549614191055298,0.3973671495914459,0.1288404017686844,-1.2897601659133895,2.0754031249173766,-2.5221847289768555
3.1041829586029053,0.04016420245170593,-0.010395526885986328,0.13078702986240387,0.35843566060066223,0.3630368709564209,0.1788489818572998,-1.2903307541425066,2.064442898514766,-2.537548739879278
3.1142828464508057,0.030290350317955017,0.012935936450958252,0.08295093476772308,0.33643704652786255,0.3361947238445282,0.2262984663248062,-1.2901616432757426,2.054021811139558,-2.5520252830871226
3.1256930828094482,0.017412617802619934,0.0316014289855957,0.030527353286743164,0.35175421833992004,0.3282443881034851,0.26633909344673157,-1.2895422690205414,2.042972229093096,-2.5669869099399114
3.134190797805786,-0.001248091459274292,0.0637100338935852,-0.005076155066490173,0.38665714859962463,0.32743358612060547,0.2888728976249695,-1.2887045423713048,2.03053499236224,-2.5833599077820977
3.1442620754241943,-0.011094272136688232,0.09435921907424927,-0.021357297897338867,0.43411973118782043,0.33582255244255066,0.28746622800827026,-1.2879036439197902,2.0167746080534394,-2.6011426882131303
3.15421986579895,-0.012812584638595581,0.1081346869468689,-0.033757567405700684,0.4699122905731201,0.3472503125667572,0.26366233825683594,-1.2873144500300435,2.002111194050671,-2.6199688290159315
3.1640708446502686,-0.009906888008117676,0.11874842643737793,-0.05193877965211868,0.5188736915588379,0.3509158790111542,0.21001963317394257,-1.2871732686929973,1.9867878322457695,-2.639585977037836
3.174976110458374,-0.012503504753112793,0.1338803768157959,-0.07513199746608734,0.5716599225997925,0.34388673305511475,0.13728471100330353,-1.2877368589578355,1.9707356537003833,-2.6599355662985738
3.184156894683838,-0.01616138219833374,0.14978331327438354,-0.09196770936250687,0.6270779371261597,0.31815579533576965,0.06790801882743835,-1.2890933624030423,1.9535519428748696,-2.6812845636038314
3.1941587924957275,-0.015806227922439575,0.15408092737197876,-0.09865652024745941,0.6422560811042786,0.29200807213783264,0.004864874295890331,-1.2910963417608914,1.9355884029381558,-2.7031586364036846
3.204166889190674,-0.024079442024230957,0.1542288064956665,-0.10200094431638718,0.6186370253562927,0.2708844244480133,-0.044726647436618805,-1.2935001316998649,1.917880386926315,-2.724510900720657
3.2142088413238525,-0.03268614411354065,0.14338988065719604,-0.10333168506622314,0.6052208542823792,0.23854725062847137,-0.09776803106069565,-1.296206886392744,1.9010122838580428,-2.7447006492515147
3.2245919704437256,-0.02540522813796997,0.11313337087631226,-0.10724294185638428,0.6021882891654968,0.20349286496639252,-0.121764175593853,-1.299199202654403,1.884018561434232,-2.764640556515937
3.234304904937744,-0.01701408624649048,0.09100162982940674,-0.13191699981689453,0.5988630056381226,0.17353439331054688,-0.13799789547920227,-1.3022543485173375,1.8666267111154953,-2.7846496690054776
3.244473934173584,-0.01283186674118042,0.09902769327163696,-0.1485360860824585,0.6032084822654724,0.12883509695529938,-0.13768497109413147,-1.3053201241221997,1.8484753451624412,-2.8050446402521527
3.2544748783111572,-0.0011076629161834717,0.08923786878585815,-0.13629508018493652,0.5819058418273926,0.0753188356757164,-0.12150003761053085,-1.3081603457959048,1.8295214643099162,-2.825743331202945
3.2644519805908203,0.007186949253082275,0.06809818744659424,-0.11012768745422363,0.5249472260475159,0.022494498640298843,-0.12027125805616379,-1.310724214300584,1.810943853364568,-2.845480029829027
3.2745578289031982,0.01064041256904602,0.0523531436920166,-0.08524799346923828,0.43893900513648987,-0.021775228902697563,-0.11377537995576859,-1.3129807714983641,1.7941257136721684,-2.8628765439792687
3.284418821334839,0.02263234555721283,0.04137927293777466,-0.06491924077272415,0.3345329761505127,-0.057830169796943665,-0.12131745368242264,-1.3149735471235664,1.7802780273912844,-2.8767846442321248
3.2944529056549072,0.039583995938301086,0.030571699142456055,-0.047572262585163116,0.22894997894763947,-0.09486057609319687,-0.13342812657356262,-1.3168063357335182,1.7698787392670805,-2.886728958666551
3.304471969604492,0.036323174834251404,0.022274315357208252,-0.027113918215036392,0.12610001862049103,-0.12617909908294678,-0.14997035264968872,-1.3185598979240178,1.7630377228378984,-2.892641115989775
3.3143739700317383,0.022135689854621887,0.021471798419952393,0.005179759114980698,0.020558668300509453,-0.13782797753810883,-0.17629165947437286,-1.320314259044756,1.760083481699155,-2.894307991242915
3.3247408866882324,0.020809322595596313,0.023310184478759766,0.036572929471731186,-0.07797083258628845,-0.13889004290103912,-0.18515785038471222,-1.3220758570196005,1.7611353444809577,-2.8917747052375242
3.3345611095428467,0.024491891264915466,0.014891564846038818,0.06453787535429001,-0.16020826995372772,-0.11871189624071121,-0.18678535521030426,-1.3236752016359488,1.7658712316491594,-2.8855374290021225
3.3446438312530518,0.029543563723564148,0.009231328964233398,0.0867457315325737,-0.19341710209846497,-0.07830855250358582,-0.1958656758069992,-1.325236251677391,1.7734151004438081,-2.876736370043923
3.3546087741851807,0.031099721789360046,0.004280984401702881,0.10534702986478806,-0.16932736337184906,-0.019515225663781166,-0.19225682318210602,-1.3267742182420208,1.7817799636797123,-2.8675937853497815
3.364645004272461,0.03487367928028107,-0.0011979341506958008,0.122444748878479,-0.07324956357479095,0.061679497361183167,-0.185120090842247,-1.3283628384846842,1.7885212330495168,-2.8608467347368207
3.374735116958618,0.0450410395860672,-0.0029502511024475098,0.14662635326385498,0.1307663917541504,0.18965938687324524,-0.17576466500759125,-1.33020326222275,1.7905897394658972,-2.8599744254808157
3.3845808506011963,0.0587291419506073,-0.0051187872886657715,0.16902315616607666,0.46682029962539673,0.3357502818107605,-0.16142940521240234,-1.3324623633737878,1.782951093647057,-2.8705329012048093
3.394531011581421,0.06849746406078339,-0.0063904523849487305,0.1944410800933838,0.9152023792266846,0.5112540125846863,-0.1873692274093628,-1.3355412289378004,1.7608045385563775,-2.8976560650281735
3.4045708179473877,0.07367472350597382,-0.02025461196899414,0.2305833101272583,1.4776427745819092,0.7027014493942261,-0.20952486991882324,-1.339541380393593,1.7187637847915092,-2.947112659875676
3.414639949798584,0.0822952538728714,-0.05264192819595337,0.2671945095062256,2.0448050498962402,0.9260883331298828,-0.24120385944843292,-1.3438107279046256,1.6528731607959206,-3.0231026235076666
3.4246928691864014,0.08941382169723511,-0.07963776588439941,0.30893832445144653,2.5875699520111084,1.1681938171386719,-0.25093770027160645,-1.3471710284114782,1.5623614929812812,-3.1267278777034773
3.4346210956573486,0.09073232114315033,-0.11031264066696167,0.34013426303863525,3.0187573432922363,1.431317925453186,-0.24215556681156158,-1.3478810461231792,1.4511708158263024,3.0291572546816457
3.4447247982025146,0.06878966093063354,-0.13637912273406982,0.3530137538909912,3.391977548599243,1.698298692703247,-0.19329401850700378,-1.3442045188604568,1.3267131540133417,2.885386873435301
3.454636812210083,0.04784965515136719,-0.1457829475402832,0.3588659167289734,3.694828987121582,1.9270895719528198,-0.17311951518058777,-1.3351636365626314,1.1985561079988865,2.735088657097558
3.4645798206329346,0.0420345664024353,-0.15122807025909424,0.38475412130355835,3.897367238998413,2.131202459335327,-0.14654995501041412,-1.3206260320091716,1.0767060333610736,2.5886172368051423
3.4747278690338135,0.04607464373111725,-0.17067605257034302,0.41356271505355835,4.042276859283447,2.274759292602539,-0.11470594257116318,-1.3009532410341642,0.9686034880983024,2.453883361794475
3.4846460819244385,0.04970553517341614,-0.17995041608810425,0.42481356859207153,4.097102165222168,2.3913278579711914,-0.128029465675354,-1.277282005408105,0.8770031919098339,2.3342347563507477
3.494673013687134,0.030191689729690552,-0.17262673377990723,0.4253148138523102,4.086166858673096,2.4916064739227295,-0.09741329401731491,-1.2507564730869767,0.8027157118599223,2.2306183508544795
3.5047268867492676,0.0336688756942749,-0.17298394441604614,0.42436152696609497,4.0104546546936035,2.5615835189819336,-0.08305193483829498,-1.2223545939825053,0.7446382038119531,2.142366194949467
3.514697790145874,0.0620308518409729,-0.19070762395858765,0.43301811814308167,3.917980670928955,2.6273410320281982,-0.07728086411952972,-1.193116795686315,0.6999308002816625,2.0667490867047174
3.5248429775238037,0.05146794021129608,-0.2021835446357727,0.4029630422592163,3.8400633335113525,2.6552717685699463,-0.035529688000679016,-1.1634021176314069,0.6661801030063622,2.0015556132117123
3.5347189903259277,0.04430845379829407,-0.18491500616073608,0.3253971040248871,3.795743703842163,2.645747423171997,-0.002174126449972391,-1.1331587293890337,0.6407440038306838,1.9445596879992249
3.5447869300842285,0.05431568622589111,-0.147347092628479,0.30556660890579224,3.725996494293213,2.616528034210205,0.020640110597014427,-1.1027108645885018,0.6215409550068258,1.893893376547516
3.554759979248047,0.05981290340423584,-0.12695449590682983,0.3476259708404541,3.569214105606079,2.5689949989318848,0.06771504878997803,-1.0725764063899539,0.6079947114637891,1.8492711845380911
3.5649259090423584,0.06700116395950317,-0.13411808013916016,0.41898098587989807,3.3144707679748535,2.53611421585083,0.09909507632255554,-1.0437203327030158,0.599944552426973,1.8107401065791298
3.575455904006958,0.0780227780342102,-0.16519612073898315,0.4910504221916199,3.0465197563171387,2.546255111694336,0.13627462089061737,-1.0167881505408327,0.5971098010169055,1.777794692881846
3.5847949981689453,0.08580511808395386,-0.1956821084022522,0.514784574508667,2.8795573711395264,2.6497936248779297,0.17551974952220917,-0.991487516242871,0.5989119310888791,1.749177375031797
3.5948328971862793,0.06524395942687988,-0.17905569076538086,0.46111515164375305,2.9136316776275635,2.8348562717437744,0.1812344193458557,-0.9666846953264119,0.6042542012695705,1.7226292627216437
3.604796886444092,0.015165090560913086,-0.12619513273239136,0.34831228852272034,3.158165454864502,3.097399950027466,0.12987776100635529,-0.9409886886568338,0.6113741861360917,1.6949673497493254
3.614837884902954,-0.012526392936706543,-0.07605630159378052,0.14092907309532166,3.6461079120635986,3.2964563369750977,0.14481541514396667,-0.9125027211874047,0.6189153488228942,1.6642033183767924
3.624985933303833,0.028357654809951782,-0.006050586700439453,-0.006161391735076904,4.150393009185791,3.3799149990081787,0.11399972438812256,-0.8800573552181625,0.6252577602044083,1.629576909646266
3.6347811222076416,0.07928499579429626,0.06861937046051025,0.1133648157119751,4.527684688568115,3.4930102825164795,-0.03310796618461609,-0.8445156601266532,0.6301763415809598,1.5906458613021328
3.6450109481811523,0.08989638090133667,0.06755471229553223,0.30422890186309814,4.666140079498291,3.5221872329711914,-0.021586867049336433,-0.8074770683330117,0.6353757987341409,1.550019547631746
3.6549508571624756,0.11778807640075684,0.0440443754196167,0.3998376131057739,4.527581691741943,3.580510139465332,-0.07852338999509811,-0.7707141008279015,0.6428046557827365,1.5103865564997225
3.6649348735809326,0.14070016145706177,-0.00011724233627319336,0.519607424736023,4.252738952636719,3.6739864349365234,-0.13633501529693604,-0.7363600545841461,0.653371453867849,1.4728494908278764
3.674891948699951,0.1509326696395874,-0.04901772737503052,0.6020562052726746,4.045593738555908,3.8747682571411133,-0.1994936317205429,-0.7046770346403698,0.6676181747290343,1.4372518024971443
3.6849238872528076,0.13965362310409546,-0.058511972427368164,0.5122770071029663,4.031962871551514,4.1297607421875,-0.23591183125972748,-0.6746554738298328,0.6854641267033812,1.4022994208143165
3.6949429512023926,0.12230581045150757,0.0050141215324401855,0.25692594051361084,4.22020959854126,4.332707405090332,-0.25642019510269165,-0.6445656720631179,0.7059296339779091,1.3665158013882808
3.706437826156616,0.12929439544677734,0.09491932392120361,0.11456596851348877,4.51801872253418,4.5464348793029785,-0.31914588809013367,-0.6134840785190957,0.7278767416150117,1.328292017486196
3.7148778438568115,0.11867451667785645,0.13085556030273438,0.10013669729232788,4.742081165313721,4.691409111022949,-0.4107072353363037,-0.5816965387717613,0.7510931252726232,1.2872007664969127
3.7249579429626465,0.08440577983856201,0.12442725896835327,0.1293635368347168,4.906235218048096,4.715660095214844,-0.4820692837238312,-0.5498336100502478,0.7749630631454871,1.2437797030284088
3.734989881515503,0.07057881355285645,0.10341793298721313,0.25022971630096436,4.9305195808410645,4.646143436431885,-0.5790219306945801,-0.5187848306811268,0.7989845169981806,1.198825651641673
3.7449889183044434,0.09017354249954224,0.06187376379966736,0.4064750671386719,4.823241233825684,4.49415397644043,-0.676235020160675,-0.48967319629493794,0.8228640351233509,1.153387421038176
3.7563629150390625,0.14743119478225708,0.007847428321838379,0.5385091304779053,4.670600414276123,4.334295749664307,-0.7822310924530029,-0.4632061398088571,0.846319666850689,1.1082787794241167
3.7652719020843506,0.22636234760284424,-0.03855240345001221,0.609272301197052,4.637231826782227,4.214173793792725,-0.8316260576248169,-0.4389916857691454,0.8694944119784245,1.0632725791252353
3.774976968765259,0.29560238122940063,-0.04047882556915283,0.45390641689300537,4.808216571807861,4.117650508880615,-0.8456944227218628,-0.41545629234505205,0.8921864142311289,1.0174515613604955
3.785079002380371,0.34072786569595337,0.006088525056838989,0.19416850805282593,5.119009017944336,4.032382488250732,-0.8877390623092651,-0.39155046245339276,0.9140984788419991,0.9692106809846188
3.7950727939605713,0.33616888523101807,0.04478105902671814,-0.013707101345062256,5.392903804779053,3.894758462905884,-0.9409560561180115,-0.36712758044587807,0.9348473120100413,0.9179726919840503
3.806414842605591,0.28638756275177,0.04936671257019043,-0.10339879989624023,5.482510089874268,3.720031261444092,-1.0032926797866821,-0.34304920443711606,0.9544814871302575,0.8647028525797448
3.814957857131958,0.2043447494506836,-0.0006342828273773193,-0.07958412170410156,5.291164398193359,3.5366268157958984,-1.0303205251693726,-0.32059697237568013,0.9734738218808094,0.8115379751332635
3.8252949714660645,0.12901753187179565,-0.06796267628669739,0.02288156747817993,4.843256950378418,3.36791729927063,-1.0108174085617065,-0.3009231496186448,0.9926253289617656,0.7611111761102884
3.8352530002593994,0.104888916015625,-0.13187220692634583,0.11970019340515137,4.207271575927734,3.196164131164551,-0.9501458406448364,-0.2847367241250821,1.0123244955373616,0.7155857571294609
3.845284938812256,0.12229108810424805,-0.20358788967132568,0.21577394008636475,3.411813735961914,3.013084650039673,-0.9525930285453796,-0.2729590754280128,1.0327350063509264,0.6765671821337617
3.856458902359009,0.15592306852340698,-0.2816725969314575,0.31173720955848694,2.6335644721984863,2.6936731338500977,-0.9860338568687439,-0.2660943825189478,1.0528265330450604,0.6444152512462344
3.8652307987213135,0.1912103295326233,-0.376547247171402,0.34830719232559204,1.9160112142562866,2.3386471271514893,-1.0613107681274414,-0.2639552908831096,1.0712424674424041,0.6186919865031563
3.8752810955047607,0.19971036911010742,-0.43319007754325867,0.3372751772403717,1.2983325719833374,2.1060543060302734,-1.1865534782409668,-0.26634501298204155,1.088144672099296,0.5985934013855031
3.8852298259735107,0.1715741753578186,-0.4222232699394226,0.24912026524543762,0.86713045835495,1.9424811601638794,-1.2963709831237793,-0.2725073046551722,1.104201385441082,0.5827923754912452
3.895210027694702,0.1586173176765442,-0.3990767002105713,0.10656514763832092,0.5433247089385986,1.7961643934249878,-1.387237787246704,-0.2814712312976217,1.1194248764921881,0.5700898766573227
3.9064409732818604,0.15806972980499268,-0.39054349064826965,-0.005411863327026367,0.359056293964386,1.7439695596694946,-1.4027491807937622,-0.2922857466004655,1.1340895474907542,0.5596276735886136
3.915203809738159,0.12671077251434326,-0.38471996784210205,-0.1128230094909668,0.21147377789020538,1.7423924207687378,-1.3498536348342896,-0.30364040421868344,1.149000543039355,0.5508943633571737
3.9252541065216064,0.11136716604232788,-0.35206106305122375,-0.1764557659626007,0.07743661850690842,1.7336535453796387,-1.2489240169525146,-0.3150086716681897,1.1642940875516494,0.5440017674015092
3.935260057449341,0.13060081005096436,-0.32018449902534485,-0.17193007469177246,-0.044871021062135696,1.7191842794418335,-1.0896071195602417,-0.3257792843945756,1.1800490891546718,0.5390729016300334
3.945275068283081,0.18128252029418945,-0.30382663011550903,-0.15270072221755981,-0.12170615047216415,1.6323825120925903,-0.9135660529136658,-0.3354098604884601,1.1958800354516237,0.5359575429662792
3.956702947616577,0.23887938261032104,-0.30426856875419617,-0.12256985902786255,-0.17248883843421936,1.4993163347244263,-0.7413082718849182,-0.34366244313022437,1.2109944046449985,0.5342782852865435
3.9652929306030273,0.24708181619644165,-0.3039403557777405,-0.08931130170822144,-0.19878780841827393,1.3528975248336792,-0.5854794979095459,-0.3505341560738977,1.2250945469170227,0.5337066403086592
3.9753849506378174,0.21598076820373535,-0.2963729500770569,-0.07454907894134521,-0.23217156529426575,1.1744555234909058,-0.4776756763458252,-0.35624383352557,1.23786524682475,0.53398557762577
3.9852941036224365,0.1826433539390564,-0.29119035601615906,-0.05031660199165344,-0.31965479254722595,1.0314946174621582,-0.3986586034297943,-0.3612688281979057,1.2492878518560866,0.5352236017901675
3.995346784591675,0.14415639638900757,-0.28290480375289917,-0.017483532428741455,-0.4547208249568939,0.9469410181045532,-0.3171398937702179,-0.36588906076579686,1.260140059550666,0.5379579814253738
4.006436109542847,0.12887752056121826,-0.2741796374320984,-0.014591872692108154,-0.6189649105072021,0.8739411234855652,-0.2374165654182434,-0.3701441039374017,1.270913973467496,0.5425203945828123
4.0153868198394775,0.1456974744796753,-0.2748011648654938,-0.02632001042366028,-0.7978630065917969,0.8190875053405762,-0.14380113780498505,-0.3740381597825231,1.2817776007603192,0.5492074826770201
4.025336980819702,0.15031719207763672,-0.26460200548171997,-0.025328874588012695,-0.9706954956054688,0.8198763132095337,-0.06066364049911499,-0.3774924811271976,1.2932211166430618,0.5580616580006942
4.035329103469849,0.146750807762146,-0.24303963780403137,-0.031751155853271484,-1.0877659320831299,0.8156515955924988,0.008202987723052502,-0.3805126928380441,1.3053643250263858,0.5686997318377932
4.045391798019409,0.15853452682495117,-0.2398773431777954,-0.051032185554504395,-1.1662380695343018,0.8073233366012573,0.09690915793180466,-0.38290926841651834,1.3178942553070325,0.5806188263686266
4.0564188957214355,0.14702361822128296,-0.23896443843841553,-0.06614270806312561,-1.2277865409851074,0.8778898119926453,0.176554337143898,-0.38449182733118387,1.331125746825899,0.5935271947158028
4.065409898757935,0.11671119928359985,-0.21737715601921082,-0.09242528676986694,-1.2279657125473022,0.9497280120849609,0.23747867345809937,-0.38531916871818017,1.3453674949435543,0.6070063725872765
4.075548887252808,0.10838168859481812,-0.19726014137268066,-0.12972486019134521,-1.1555488109588623,0.9977601766586304,0.28294000029563904,-0.3853456702979558,1.3600967603654435,0.6202230068508479
4.085428953170776,0.10256057977676392,-0.17356830835342407,-0.15378588438034058,-1.0827326774597168,1.0341660976409912,0.2891475558280945,-0.3847913730250448,1.3749509844168124,0.6327110956504652
4.095587968826294,0.07261234521865845,-0.14016568660736084,-0.16589683294296265,-0.9860527515411377,1.1024272441864014,0.31024572253227234,-0.3838026175953426,1.3899683567146688,0.6442926703634207
4.106606960296631,0.046449899673461914,-0.12046411633491516,-0.17178858816623688,-0.8469025492668152,1.1498671770095825,0.33847469091415405,-0.38217132574738955,1.4051661463542673,0.6546836433975016
4.1154468059539795,0.08031457662582397,-0.11015447974205017,-0.18268711864948273,-0.6517975330352783,1.118404507637024,0.33393147587776184,-0.3800236456263825,1.419756748447605,0.6632744374119988
4.1254799365997314,0.1389758586883545,-0.10942688584327698,-0.17916572093963623,-0.42359980940818787,1.054513692855835,0.33932623267173767,-0.3774833362127658,1.4329517177158195,0.6695374851087037
4.135617971420288,0.149183988571167,-0.10569670796394348,-0.16751515865325928,-0.1985948383808136,0.9896204471588135,0.36689457297325134,-0.3743917089985394,1.4445731283316694,0.6733263011469495
4.14558482170105,0.1250382661819458,-0.09965965151786804,-0.1520678997039795,-0.03229294717311859,0.9320124983787537,0.4115816056728363,-0.37067870176673606,1.4548110162713244,0.6750208902533894
4.156444787979126,0.10822445154190063,-0.10268920660018921,-0.13114643096923828,0.062366634607315063,0.8788527250289917,0.4809873104095459,-0.3662223136900911,1.463988128127492,0.6753435019471764
4.165727853775024,0.10921579599380493,-0.1109568178653717,-0.11858236789703369,0.09777282923460007,0.8452468514442444,0.5669384598731995,-0.36092980891849513,1.4724934535514709,0.6750262660021994
4.175512075424194,0.11708277463912964,-0.12023046612739563,-0.11310410499572754,0.09253448992967606,0.8238902688026428,0.6806096434593201,-0.3546215328348468,1.4806846823936557,0.6746232773630916
4.1856911182403564,0.12966644763946533,-0.11275637149810791,-0.1230730414390564,0.06104607135057449,0.8254866003990173,0.7953447699546814,-0.34718236719979717,1.4888837862647715,0.6744704715313427
4.195641994476318,0.164706289768219,-0.09775614738464355,-0.15139621496200562,0.02245064452290535,0.8094257116317749,0.8888640403747559,-0.33872381382292954,1.497182990434121,0.6747342097394436
4.206283807754517,0.22487914562225342,-0.09152629971504211,-0.17532944679260254,-0.01588662527501583,0.7561166882514954,0.9612790942192078,-0.3294481782897779,1.5052356324058282,0.6753615558816216
4.215655088424683,0.2577349543571472,-0.08859995007514954,-0.18878519535064697,-0.09845449030399323,0.6989608407020569,0.9929436445236206,-0.3196954067120795,1.5128880465688834,0.6765599103563548
4.2255859375,0.23302483558654785,-0.0829516053199768,-0.19386041164398193,-0.24020016193389893,0.6434438228607178,1.0018208026885986,-0.3098075931506048,1.520320458825571,0.6788691916676868
4.235700845718384,0.18851608037948608,-0.08105424046516418,-0.18154650926589966,-0.4175628423690796,0.5560384392738342,0.9847974181175232,-0.2999961032362936,1.5275275594322262,0.6827908784148568
4.245714902877808,0.16074681282043457,-0.07629525661468506,-0.15046429634094238,-0.6090465188026428,0.43095138669013977,0.9304023385047913,-0.2905879067523858,1.534154477359885,0.6885384280503322
4.256616830825806,0.14083850383758545,-0.07250732183456421,-0.1099313497543335,-0.8163692355155945,0.29180708527565,0.8470107913017273,-0.2819152245266836,1.5399642587318225,0.6962714423305999
4.265600919723511,0.11489874124526978,-0.07216092944145203,-0.07485693693161011,-1.033521294593811,0.1596360057592392,0.7489233613014221,-0.27417622317690543,1.5449062271467615,0.7061361657226704
4.275600910186768,0.09073203802108765,-0.06759348511695862,-0.05363905429840088,-1.2397429943084717,0.03555157780647278,0.6435104608535767,-0.26747230572657,1.54909232727288,0.7181126154668843
4.285614967346191,0.08451354503631592,-0.05168315768241882,-0.04849541187286377,-1.4480642080307007,-0.1153806820511818,0.5288126468658447,-0.2618490173984627,1.5523629543175177,0.7321573480592567
4.295705080032349,0.10006147623062134,-0.028850138187408447,-0.04099363088607788,-1.6474690437316895,-0.23104283213615417,0.41096389293670654,-0.2574223100985485,1.5547259631943338,0.7482699012708833
4.306577920913696,0.10731089115142822,-0.014995455741882324,-0.04226714372634888,-1.8311536312103271,-0.3212297260761261,0.31601154804229736,-0.25403173114277694,1.5564975345951784,0.7663379106733276
4.315831899642944,0.09445053339004517,0.0020865201950073242,-0.04556465148925781,-1.976883888244629,-0.3932485580444336,0.21725192666053772,-0.2516127862609348,1.557847464287373,0.786092476635963
4.326283931732178,0.07955694198608398,0.017557039856910706,-0.04529011249542236,-2.079131841659546,-0.44863805174827576,0.11855969578027725,-0.250181294818019,1.558828842252809,0.8070993539655873
4.335854768753052,0.06735479831695557,0.027489706873893738,-0.042691707611083984,-2.1411802768707275,-0.48419857025146484,0.03157526254653931,-0.24967822760493927,1.5595344662670678,0.8289480444529832
4.34588885307312,0.054954588413238525,0.032440900802612305,-0.03819549083709717,-2.1454336643218994,-0.4960906207561493,-0.04123183339834213,-0.24996983776196277,1.560090140141401,0.8511236656872149
4.356512784957886,0.04806429147720337,0.03533083200454712,-0.036798179149627686,-2.0859017372131348,-0.49526581168174744,-0.09412429481744766,-0.25087717056556197,1.560535433510117,0.8730247791071756
4.365900993347168,0.04790365695953369,0.041065752506256104,-0.04310697317123413,-1.9695489406585693,-0.4981394112110138,-0.12805482745170593,-0.25220303378399034,1.5607754702858372,0.8939993708651597
4.375808954238892,0.051726579666137695,0.04911419749259949,-0.05230593681335449,-1.7910486459732056,-0.4925101101398468,-0.1419270783662796,-0.25375597814222745,1.5606747278639548,0.9134778688214666
4.385761022567749,0.0476112961769104,0.05554285645484924,-0.06056225299835205,-1.624904990196228,-0.49123287200927734,-0.15055598318576813,-0.255390860035707,1.5601828267380733,0.9311078246436005
4.395883798599243,0.03741455078125,0.06400731205940247,-0.05215972661972046,-1.460809350013733,-0.4997651278972626,-0.15255500376224518,-0.25708302452311066,1.5592682595979086,0.9470325466049194
4.407153844833374,0.02590113878250122,0.05978739261627197,-0.0327184796333313,-1.3229881525039673,-0.5239101052284241,-0.13826820254325867,-0.25871719308521535,1.557793649752924,0.9614039588739157
4.415827989578247,0.021949708461761475,0.044950664043426514,-0.01416313648223877,-1.2078701257705688,-0.5486266016960144,-0.11541082710027695,-0.26015918311761504,1.5557666308585056,0.9744696654328638
4.425874948501587,0.0142822265625,0.030769526958465576,0.0037737470120191574,-1.1131722927093506,-0.5680714249610901,-0.09261789917945862,-0.2613969600896325,1.553257587924213,0.9864768510849359
4.435899972915649,0.002025306224822998,0.022551923990249634,0.020025968551635742,-1.0305012464523315,-0.5837470293045044,-0.056939639151096344,-0.2623534600068375,1.5503437995069995,0.9975541095308923
4.445934057235718,-0.010313630104064941,0.01335713267326355,0.03392302989959717,-0.9790828227996826,-0.597749650478363,-0.01159665547311306,-0.26293154453351875,1.5471043083229428,1.007929590686002
4.456454038619995,-0.014765322208404541,0.001262754201889038,0.04793447628617287,-0.9725132584571838,-0.6026778817176819,0.04174470156431198,-0.2630361214518691,1.5437009771673624,1.0180120765748775
4.465895891189575,-0.012622177600860596,-0.011696308851242065,0.05888563394546509,-1.00583815574646,-0.60393887758255,0.10784462839365005,-0.2625824327664429,1.5403106175095729,1.0282636139151733
4.475919961929321,-0.006259620189666748,-0.021164625883102417,0.06786030530929565,-1.0570716857910156,-0.5967904329299927,0.17761129140853882,-0.26148467483954574,1.5370614235051023,1.0389853401628624
4.485937833786011,-0.005201578140258789,-0.027981460094451904,0.07706820964813232,-1.113309383392334,-0.5889623761177063,0.2599674463272095,-0.25968045182368055,1.534021584935281,1.0502951840078205
4.496045827865601,-0.005678832530975342,-0.025768905878067017,0.07988923788070679,-1.1734092235565186,-0.5759813189506531,0.3395010828971863,-0.25710783924842484,1.5312222844696772,1.062246061078046
4.506396055221558,-0.001973390579223633,-0.019002199172973633,0.08291769027709961,-1.2349276542663574,-0.5620263814926147,0.41866594552993774,-0.25380446579365173,1.5287088368863184,1.0748541603970119
4.515990972518921,0.003798842430114746,-0.012469381093978882,0.08923977613449097,-1.296981692314148,-0.5406285524368286,0.4972395896911621,-0.2497688845897899,1.5264776829577649,1.088132417651787
4.5260009765625,0.006746113300323486,0.0013280510902404785,0.08896058797836304,-1.356081485748291,-0.514975905418396,0.5593447685241699,-0.24507535227854899,1.524598310875854,1.1020800243740765
4.536098957061768,0.011592864990234375,0.014721900224685669,0.09071463346481323,-1.3944400548934937,-0.5012323260307312,0.6138300895690918,-0.23984458046408236,1.5229761328676807,1.116545862748039
4.546125888824463,0.023319542407989502,0.02592363953590393,0.0939631536602974,-1.4184057712554932,-0.4912399351596832,0.6564038991928101,-0.23417581610468668,1.521472745547641,1.1313338750008644
4.556915998458862,0.03249156475067139,0.038061246275901794,0.09484493732452393,-1.441428303718567,-0.4751003086566925,0.6884274482727051,-0.228149304711089,1.5200716715637752,1.1463785896923038
4.566016912460327,0.03433561325073242,0.05522705614566803,0.09272509813308716,-1.463986873626709,-0.4665238857269287,0.7120184898376465,-0.2218882707577079,1.5187648805595775,1.1616492542298151
4.576464891433716,0.03556102514266968,0.06690920889377594,0.09383600950241089,-1.4778327941894531,-0.4650266170501709,0.7247537970542908,-0.2154701194007898,1.5174500822144668,1.1771095169264367
4.586112976074219,0.03196066617965698,0.07511802017688751,0.10505879670381546,-1.4775099754333496,-0.46855077147483826,0.7219426035881042,-0.2090239636951213,1.5160324502028675,1.192626021703782
4.59631085395813,0.01861351728439331,0.08366210758686066,0.113765649497509,-1.473935604095459,-0.4607199728488922,0.7136813998222351,-0.20266500693727502,1.5145354332931946,1.2081158531233043
4.6061928272247314,0.006943225860595703,0.09485635161399841,0.11644136905670166,-1.44074547290802,-0.4616912305355072,0.6946163773536682,-0.1964437158921842,1.5129333151841742,1.2234010546070155
4.616163015365601,0.004198253154754639,0.10751211643218994,0.11330687999725342,-1.3947219848632812,-0.4498773515224457,0.674587607383728,-0.19045103248339157,1.5112176580218641,1.2382636273209553
4.62612509727478,0.0024718642234802246,0.11473800241947174,0.10620928555727005,-1.3300225734710693,-0.4360467493534088,0.6558123230934143,-0.1846182491644063,1.509419839557303,1.2525279977577166
4.636099100112915,-0.0006543397903442383,0.1174604594707489,0.0959714725613594,-1.2517774105072021,-0.4084756672382355,0.6429044604301453,-0.17894896306212896,1.507634163206509,1.2660555879062492
4.646168947219849,8.118152618408203e-05,0.11873887479305267,0.08394509553909302,-1.1768943071365356,-0.388821542263031,0.634030818939209,-0.17335734540532566,1.5058679281391092,1.2787859611902108
4.6562840938568115,0.005397319793701172,0.12113118171691895,0.07910572737455368,-1.12661612033844,-0.3573647737503052,0.6380943655967712,-0.1677866589483732,1.5041645031463808,1.2908686336667876
4.666218042373657,0.02185744047164917,0.11698564887046814,0.0892411470413208,-1.1030082702636719,-0.32749447226524353,0.6659526228904724,-0.16202739065017271,1.5026596610647944,1.3025750298264382
4.67619776725769,0.07412576675415039,0.10944966971874237,0.10200906544923782,-1.0981440544128418,-0.3097403645515442,0.7011875510215759,-0.15598305852417882,1.501305114060672,1.3141679059981812
4.686128854751587,0.13122016191482544,0.10539926588535309,0.11262673884630203,-1.1161764860153198,-0.29316645860671997,0.7429584264755249,-0.14955207404602366,1.5000461268190792,1.3258540019879983
4.6963489055633545,0.15166306495666504,0.11127318441867828,0.11606752872467041,-1.1443698406219482,-0.271196186542511,0.7691922187805176,-0.14279739338887226,1.4989498096073581,1.3378132886090994
4.706261873245239,0.14630478620529175,0.12082138657569885,0.11067045480012894,-1.1726899147033691,-0.25852328538894653,0.7791196703910828,-0.13589836415074602,1.4979957249481175,1.3500558467542827
4.716177940368652,0.13310348987579346,0.12062755227088928,0.10787583142518997,-1.2159897089004517,-0.24415583908557892,0.770009458065033,-0.1290282265969555,1.4971235905656215,1.3626524294850095
4.726252794265747,0.10847806930541992,0.11792382597923279,0.10721206665039062,-1.2791543006896973,-0.22592569887638092,0.7395932078361511,-0.12240231387163703,1.4964068613887367,1.3757729828035186
4.736284971237183,0.08595776557922363,0.12357240170240402,0.1056869700551033,-1.3350619077682495,-0.21914564073085785,0.6864922642707825,-0.11625222506240021,1.495798583253592,1.389465162093607
4.746289968490601,0.06639784574508667,0.12856721878051758,0.10618133097887039,-1.3867732286453247,-0.21846626698970795,0.6245223879814148,-0.11073362842219872,1.4951930875043036,1.4036462753760701
4.7562220096588135,0.03722047805786133,0.12740550935268402,0.1076902225613594,-1.4322878122329712,-0.20714938640594482,0.5525217056274414,-0.10593149395529526,1.494634186859487,1.4182672291786709
4.7661168575286865,0.0012984275817871094,0.11842753738164902,0.10609597712755203,-1.446413278579712,-0.19459737837314606,0.4876694977283478,-0.10187181444458897,1.49416622589641,1.4331367189599433
4.7762367725372314,-0.026668548583984375,0.10570614784955978,0.09756654500961304,-1.4379322528839111,-0.17891712486743927,0.4404773712158203,-0.0983708522847329,1.4937624176352842,1.4479770738043969
4.786147832870483,-0.048612236976623535,0.10788268595933914,0.08228820562362671,-1.4028607606887817,-0.1544349491596222,0.4008133113384247,-0.09529490401154336,1.4934976574375411,1.4625780659485883
4.796406030654907,-0.06694859266281128,0.1206120103597641,0.061569273471832275,-1.3309053182601929,-0.1309196799993515,0.38235512375831604,-0.09247135234795473,1.4933774107834468,1.476606958615015
4.806355953216553,-0.0711326003074646,0.13040724396705627,0.04311859607696533,-1.2332857847213745,-0.1211584135890007,0.37567511200904846,-0.08969891508450072,1.49332303714713,1.489766590246085
4.816361904144287,-0.06459397077560425,0.12809979915618896,0.03384966403245926,-1.1324462890625,-0.11894088238477707,0.37094929814338684,-0.08689901779158203,1.4931955563362136,1.5018973038607182
4.82671594619751,-0.05694413185119629,0.116600401699543,0.03246618062257767,-1.053235411643982,-0.11670675873756409,0.37155330181121826,-0.0840600378529842,1.4929635979456566,1.5131150411295886
4.83641791343689,-0.06274020671844482,0.0980386957526207,0.035404324531555176,-1.0232913494110107,-0.09768082946538925,0.38823649287223816,-0.08109676766587513,1.4927439128224893,1.5237794006948282
4.846514940261841,-0.07649511098861694,0.08255552500486374,0.03771812468767166,-1.0379853248596191,-0.0683695450425148,0.40959131717681885,-0.07793896343199093,1.4927537693964097,1.5343974451710174
4.85653281211853,-0.07939910888671875,0.07468629628419876,0.03729808330535889,-1.0705170631408691,-0.04197903349995613,0.43917927145957947,-0.07453734137596219,1.493027763319152,1.5452779839501203
4.866354942321777,-0.07100635766983032,0.06977713853120804,0.03937280923128128,-1.1111787557601929,-0.01929396204650402,0.4656505584716797,-0.07087663464255085,1.4935399728967673,1.5565488659650468
4.876288890838623,-0.06252908706665039,0.062324680387973785,0.0401998832821846,-1.1537057161331177,0.0057273246347904205,0.5001514554023743,-0.06693667956498094,1.4942788234913036,1.568241626974111
4.886369943618774,-0.05722934007644653,0.05737172067165375,0.03865712881088257,-1.1994813680648804,0.03275308385491371,0.5218506455421448,-0.06274081205202273,1.4952673182478375,1.5804118692578077
4.89650297164917,-0.046107590198516846,0.060332588851451874,0.03506863862276077,-1.213300347328186,0.05645592510700226,0.5379651784896851,-0.0583834043276408,1.4964702557383087,1.5928930275203972
4.906430006027222,-0.02965003252029419,0.05770475044846535,0.029695332050323486,-1.1881520748138428,0.07941184192895889,0.5633882284164429,-0.05378660867235847,1.4978400770896305,1.6053324663768527
4.91630482673645,-0.01716446876525879,0.06066666916012764,0.018651969730854034,-1.139725685119629,0.11261529475450516,0.5775871872901917,-0.04892617433802605,1.499416628865822,1.6174017852441867
4.926383972167969,-0.012180924415588379,0.07497715204954147,0.0028533339500427246,-1.053991436958313,0.13937287032604218,0.5783501863479614,-0.043948706982090746,1.5012151037142676,1.628803941810376
4.936605930328369,-0.0078092217445373535,0.08509882539510727,-0.01531839370727539,-0.9377431869506836,0.16261951625347137,0.5797157883644104,-0.03885806337926578,1.5031569070241482,1.639168023015786
4.946563005447388,-0.00898730754852295,0.09172037243843079,-0.034540288150310516,-0.8095905184745789,0.18779437243938446,0.5579396486282349,-0.03375903024449935,1.5052462653636478,1.6482741390289082
4.9574809074401855,-0.014532744884490967,0.09674583375453949,-0.04687260836362839,-0.6905542016029358,0.20972009003162384,0.5215387344360352,-0.02886849258496288,1.5074775786758963,1.6561204322828957
4.966484785079956,-0.019012272357940674,0.08993632346391678,-0.04870175942778587,-0.5772809386253357,0.22224681079387665,0.483664870262146,-0.024247538327127414,1.5098232525258448,1.662755313810875
4.976699113845825,-0.020851731300354004,0.07871290296316147,-0.05017799884080887,-0.477946400642395,0.2330808937549591,0.43385809659957886,-0.0199975058364012,1.5122255287775275,1.668295189863535
4.986560106277466,-0.01872706413269043,0.06340119987726212,-0.0478062629699707,-0.39318329095840454,0.2417990267276764,0.386630654335022,-0.016174062075029715,1.5146839534420748,1.6728716204263796
4.9971230030059814,-0.009683072566986084,0.0487782284617424,-0.05292302370071411,-0.3250967860221863,0.2492944747209549,0.34602734446525574,-0.012730263542281888,1.5171982472824976,1.6766638384784154
5.006498098373413,0.0011644363403320312,0.037760455161333084,-0.06224959343671799,-0.26619404554367065,0.25896817445755005,0.31506332755088806,-0.009602939996919024,1.5197706911646687,1.679785948626728
5.016624927520752,0.008531153202056885,0.02579496242105961,-0.0726320818066597,-0.22293652594089508,0.2697252035140991,0.2913852632045746,-0.0067215364288673906,1.5224367861980084,1.6823837693196015
5.026460886001587,0.009684741497039795,0.014861303381621838,-0.08345997333526611,-0.18878334760665894,0.2748248875141144,0.27237164974212646,-0.004029059961464306,1.5251812755496323,1.6845601421633662
5.037207841873169,0.008930563926696777,0.0006030512740835547,-0.09290391206741333,-0.18047590553760529,0.27279922366142273,0.25602903962135315,-0.0014873711908019594,1.5279296311065056,1.6865113399346865
5.046597957611084,0.0032027363777160645,-0.014402186498045921,-0.09674268215894699,-0.19591984152793884,0.2651093304157257,0.24264931678771973,0.0009024082265446624,1.5306263329047582,1.6884792023749495
5.0566229820251465,-0.007681071758270264,-0.03197718784213066,-0.09186196327209473,-0.23456425964832306,0.25150740146636963,0.22911113500595093,0.0031485801574666038,1.5332089584239323,1.6907147791115964
5.06660008430481,-0.019493281841278076,-0.04803038388490677,-0.08398830890655518,-0.3046000897884369,0.22932885587215424,0.22262845933437347,0.005283876988437078,1.5356057557603933,1.6934704081860479
5.076627969741821,-0.03209656476974487,-0.058844055980443954,-0.07348459959030151,-0.39240148663520813,0.20890481770038605,0.22156117856502533,0.007363924906292631,1.5377676575566745,1.6970244153328207
5.086627960205078,-0.043890535831451416,-0.0650874525308609,-0.06320703029632568,-0.48714664578437805,0.18599337339401245,0.23143164813518524,0.009467157446974413,1.5397128902332593,1.7014893076561386
5.096512079238892,-0.04408550262451172,-0.06807845830917358,-0.05531030893325806,-0.5597603917121887,0.15873964130878448,0.24783457815647125,0.011679523527629824,1.5413836020298601,1.7068274886536872
5.106615781784058,-0.03325819969177246,-0.06869877874851227,-0.04882723093032837,-0.6085084676742554,0.11908331513404846,0.27447792887687683,0.014111169744723174,1.542697496007423,1.7127537814593952
5.117247819900513,-0.01679283380508423,-0.06678549945354462,-0.0478319488465786,-0.6343250274658203,0.08285748958587646,0.30093127489089966,0.016802962802276004,1.5436088890811988,1.7190668760564216
5.126646995544434,0.0025200247764587402,-0.06281410902738571,-0.04876875504851341,-0.640320897102356,0.04628722369670868,0.33865174651145935,0.019813556302725955,1.5441325076546661,1.7255462072164525
5.136622905731201,0.02086848020553589,-0.05726466327905655,-0.052180349826812744,-0.6331055760383606,0.01763276383280754,0.3738262355327606,0.023212303154911504,1.5443074048034333,1.7320260906368385
5.146730899810791,0.032073378562927246,-0.04281886667013168,-0.05680609121918678,-0.6118359565734863,-0.012621278874576092,0.40003761649131775,0.026917080346522498,1.5441698230433993,1.738363182908853
5.156609773635864,0.03135800361633301,-0.033951275050640106,-0.060302734375,-0.5950800180435181,-0.033120203763246536,0.4141014814376831,0.030827193512211217,1.543756851192271,1.7445088925853707
5.166722059249878,0.02340245246887207,-0.03258968144655228,-0.05984479561448097,-0.5891936421394348,-0.04156855121254921,0.4169026017189026,0.03481545674223063,1.5431727117292302,1.7505325515775012
5.176660776138306,0.009939730167388916,-0.0357198603451252,-0.05612409487366676,-0.5961065292358398,-0.04976567253470421,0.40130752325057983,0.03873749070551826,1.5424837976663517,1.756589868468372
5.1867101192474365,-0.0003230571746826172,-0.043406520038843155,-0.044030189514160156,-0.6132562160491943,-0.05350395292043686,0.3842662274837494,0.04248275183865616,1.5417065769568283,1.762747008261739
5.1974937915802,-0.012165963649749756,-0.04809563234448433,-0.033592939376831055,-0.6334809064865112,-0.04445510730147362,0.3673593997955322,0.04605213649710833,1.5409223484940906,1.7691005506670954
5.206849813461304,-0.021718978881835938,-0.04439849779009819,-0.02949083223938942,-0.6471450328826904,-0.027109939604997635,0.35274025797843933,0.04943270332422562,1.5402322676103177,1.7756304075239073
5.216610908508301,-0.02445065975189209,-0.03672705590724945,-0.032433513551950455,-0.6350167989730835,-0.00470685213804245,0.3462899625301361,0.05271389177840722,1.5397356359630041,1.7821908486630011
5.226804971694946,-0.017352819442749023,-0.02560136467218399,-0.04189622402191162,-0.5625662803649902,0.025758910924196243,0.3541334867477417,0.05601670054604903,1.5395335592763317,1.7883130571325552
5.23668098449707,-0.012508630752563477,-0.01266435906291008,-0.05236440896987915,-0.5095076560974121,0.036092109978199005,0.339862197637558,0.05931563541691785,1.53952823126846,1.7938192916750046
5.246977090835571,-0.011307597160339355,0.0006070323288440704,-0.0496903620660305,-0.4520092308521271,0.031151946634054184,0.33651381731033325,0.06252216744144998,1.539564285546801,1.798733018144805
5.256724119186401,-0.01721864938735962,-0.003119461238384247,-0.044962700456380844,-0.40466880798339844,0.04155478626489639,0.34471991658210754,0.06579092800571962,1.5396214918270645,1.8031384472128136
5.26685094833374,-0.022038161754608154,-0.006114006042480469,-0.04840010032057762,-0.3365912139415741,0.06470617651939392,0.3457023501396179,0.06912109665340853,1.5398940837388406,1.80697893716142
5.277662992477417,-0.027566492557525635,-0.001698322594165802,-0.050477202981710434,-0.2586759328842163,0.07798442989587784,0.35233116149902344,0.07250767094195724,1.540393655013147,1.8100661507093412
5.2868688106536865,-0.030012547969818115,0.009645655751228333,-0.04710281267762184,-0.19425594806671143,0.08137596398591995,0.35723963379859924,0.07598771613710707,1.5410113109680859,1.8124304676136753
5.297106981277466,-0.032691895961761475,0.014412008225917816,-0.045870061963796616,-0.16278326511383057,0.09468591213226318,0.35357481241226196,0.07948287229784134,1.5417261836570388,1.8143200787175284
5.30699896812439,-0.03841710090637207,0.007407493889331818,-0.04516780376434326,-0.1317659616470337,0.1089165136218071,0.35134950280189514,0.08295734653302843,1.5426213008595595,1.8159024203728569
5.316839933395386,-0.04199951887130737,0.003850184381008148,-0.04594123363494873,-0.1029588058590889,0.11730560660362244,0.3414008617401123,0.08640090830161322,1.5436501673962275,1.8171848243762827
5.327089071273804,-0.04005950689315796,0.012143261730670929,-0.04754340276122093,-0.06983574479818344,0.11420462280511856,0.32415422797203064,0.08970188770096481,1.5447304136190654,1.8181410792447785
5.336909055709839,-0.03590744733810425,0.016311191022396088,-0.048933565616607666,-0.047059573233127594,0.11020468175411224,0.31280267238616943,0.09286062906650615,1.545782200927624,1.818793815737536
5.347109079360962,-0.03204458951950073,0.013087727129459381,-0.049559175968170166,-0.03982829302549362,0.1073353961110115,0.29898005723953247,0.0959068276753551,1.5468177397122476,1.8192962691659234
5.3573668003082275,-0.031163513660430908,0.0167696475982666,-0.04777592420578003,-0.038608018308877945,0.10130791366100311,0.27947065234184265,0.09877836458353469,1.5478253293809372,1.819756181886257
5.366956949234009,-0.027469515800476074,0.019732043147087097,-0.04705667495727539,-0.039868224412202835,0.08453266322612762,0.2551296353340149,0.10143361807657397,1.5487068837856885,1.8202091669993923
5.376901865005493,-0.02337801456451416,0.0203830748796463,-0.043684959411621094,-0.04953313246369362,0.06865311414003372,0.22927698493003845,0.10383679401847906,1.5494077613481456,1.8207117812526414
5.386997938156128,-0.025345027446746826,0.0159124955534935,-0.03881758451461792,-0.06599519401788712,0.0553937703371048,0.20757170021533966,0.10600042480965863,1.5499556098799758,1.8213314348720453
5.396899938583374,-0.030411481857299805,0.010308504104614258,-0.03498750925064087,-0.08926349133253098,0.042795997112989426,0.18331600725650787,0.10793006137379865,1.5503503459248895,1.8221596861248033
5.407254934310913,-0.031941354274749756,0.010589204728603363,-0.030226705595850945,-0.1109946146607399,0.02862185426056385,0.16293829679489136,0.10962458234995731,1.5505921738041268,1.8231970812337568
5.416972875595093,-0.033653199672698975,0.00673791766166687,-0.02688288502395153,-0.13634422421455383,0.021389197558164597,0.1445263773202896,0.11113834031439788,1.55067873395571,1.824473672728791
5.427049875259399,-0.036694347858428955,0.006628379225730896,-0.02632736973464489,-0.1566833257675171,0.017896994948387146,0.13201643526554108,0.11247144909129521,1.5507155646059632,1.825978995245235
5.437144994735718,-0.0358390212059021,0.007686644792556763,-0.026342688128352165,-0.16523845493793488,0.013479076325893402,0.11850035935640335,0.11369009074026673,1.5506821181748989,1.8276295168832846
5.44710898399353,-0.03068023920059204,0.01141262799501419,-0.021669207140803337,-0.16543500125408173,0.0035827700048685074,0.10211285948753357,0.11475270165385733,1.5505677830019642,1.8293284840575486
5.457331895828247,-0.02663654088973999,0.01221020519733429,-0.01790153793990612,-0.1598190814256668,-0.004304403904825449,0.08522708714008331,0.11564776772442432,1.5503672325384017,1.8309833210982291
5.46711802482605,-0.025641322135925293,0.010947160422801971,-0.013014674186706543,-0.15794341266155243,-0.011892016977071762,0.06568774580955505,0.11588165836286622,1.5493023928276901,1.832700905799837
5.477111101150513,-0.028720617294311523,0.006796635687351227,-0.007736740633845329,-0.15763002634048462,-0.012488208711147308,0.05591069534420967,0.11611194669047523,1.548289277589755,1.8343724373347803
5.487131834030151,-0.03063255548477173,-0.0007432401180267334,-0.0013858657330274582,-0.16837109625339508,-0.007122471928596497,0.0485723577439785,0.11629424640327748,1.5474096868865854,1.8360999204762063
5.497020959854126,-0.02752465009689331,-0.00020707398653030396,0.0025228261947631836,-0.17183366417884827,-0.0013051517307758331,0.03955494239926338,0.11649609751745203,1.5466690035745914,1.837892625293344
5.507426023483276,-0.019993901252746582,-0.00018893182277679443,0.004386726766824722,-0.16474300622940063,-0.0007248488254845142,0.0361892394721508,0.11668333082597385,1.5459745911155796,1.83966796401822
5.517287969589233,-0.012698948383331299,-0.0009499117732048035,0.0076028723269701,-0.1483960896730423,0.00011267093941569328,0.029822424054145813,0.1168082223647873,1.545286161577213,1.8413222753048948
5.52715277671814,-0.008061647415161133,-0.0003851950168609619,0.009256841614842415,-0.12314480543136597,0.002530555007979274,0.02330273762345314,0.11680837245895746,1.5447421598661462,1.842749112626576
5.537134885787964,-0.004750430583953857,0.001169644296169281,0.007508100941777229,-0.08864887803792953,0.001751934876665473,0.014848053455352783,0.11671461770950542,1.5443214382837462,1.843864024769208
5.547210931777954,0.000278472900390625,-0.00015975534915924072,0.008099142462015152,-0.06529588252305984,0.0016288969200104475,0.006721950601786375,0.11658980558100054,1.5440185716342179,1.8446630594233753
5.557991981506348,0.006114006042480469,-0.0029740408062934875,0.008472863584756851,-0.04737412929534912,-0.0007106452248990536,-0.0042307255789637566,0.11647555649121318,1.5438422877973395,1.8452244549529324
5.567232847213745,0.011640191078186035,-0.0077367424964904785,0.011345211416482925,-0.04043925553560257,-0.005443614907562733,-0.016770752146840096,0.11648894850850662,1.54380776988776,1.845651586731583
5.5772459506988525,0.015013158321380615,-0.014335758984088898,0.01613927260041237,-0.052784569561481476,-0.014634540304541588,-0.03258034214377403,0.11637413644192102,1.54385145823722,1.8460742603844236
5.587244987487793,0.014459371566772461,-0.022726930677890778,0.02044147439301014,-0.07366828620433807,-0.024585440754890442,-0.054979924112558365,0.11608342511850586,1.543899211039654,1.8466561326926627
5.597408056259155,0.011949300765991211,-0.03282666206359863,0.027286287397146225,-0.09665713459253311,-0.035715989768505096,-0.06935832649469376,0.11565491728994366,1.5440453030198165,1.8474348180072593
5.607456922531128,0.008490264415740967,-0.04309834539890289,0.033105190843343735,-0.12709280848503113,-0.03758259862661362,-0.08019313216209412,0.11505330392691282,1.5441340333892393,1.848473855651314
5.617293119430542,0.003795027732849121,-0.04944884777069092,0.032025277614593506,-0.16048553586006165,-0.037152454257011414,-0.08766649663448334,0.1142670876999212,1.544025429749104,1.8498560176134948
5.627377986907959,-0.0015091896057128906,-0.052158258855342865,0.02810799703001976,-0.17503651976585388,-0.03261682391166687,-0.08722095191478729,0.1134905223880279,1.54393136790904,1.851479950712569
5.637324094772339,-0.007265806198120117,-0.05836791545152664,0.020415009930729866,-0.17945370078086853,-0.020806770771741867,-0.07425891607999802,0.11290761382831957,1.5439049643511265,1.8531971721747627
5.6473047733306885,-0.015119850635528564,-0.06221334636211395,0.013080298900604248,-0.16917575895786285,-0.002059714403003454,-0.06106535345315933,0.11258492438373073,1.5441008575075932,1.8548891631896263
5.6574318408966064,-0.0185929536819458,-0.05816762149333954,0.005383552983403206,-0.13950255513191223,0.0077719660475850105,-0.039695560932159424,0.11261778211545163,1.5445987121831295,1.85637585932826
5.667346000671387,-0.014341652393341064,-0.050519511103630066,-0.00015920214354991913,-0.10010535269975662,0.01381334662437439,-0.020569805055856705,0.11314338198407435,1.5453537221260678,1.8574913172108662
5.677248954772949,-0.010815143585205078,-0.042239174246788025,-0.0035133957862854004,-0.05366018787026405,0.014905154705047607,-0.002963433740660548,0.11421323024165765,1.5464847388890637,1.8581553222972107
5.6873979568481445,-0.010760366916656494,-0.0407911092042923,-0.0045171380043029785,-0.019191689789295197,0.01148725301027298,0.016894426196813583,0.11591670079720058,1.547936366732363,1.858362485514243
5.697400808334351,-0.010036945343017578,-0.041529685258865356,-0.002013685181736946,-0.004466540180146694,0.012616612017154694,0.03573676943778992,0.11792316093481939,1.5492671310311767,1.858333580657128
5.707538843154907,-0.012859225273132324,-0.04069866985082626,-0.0019459128379821777,0.0054481420665979385,0.015438497066497803,0.05176660045981407,0.12005094234468083,1.5503770268211547,1.8582203548193565
5.717399835586548,-0.013608753681182861,-0.04111132025718689,-0.0008467454463243484,0.004191296175122261,0.02066441811621189,0.07021788507699966,0.12243288995725479,1.551139455310195,1.858107008994919
5.727376937866211,-0.015196800231933594,-0.035977572202682495,-0.0047472696751356125,0.0049987668171525,0.028865355998277664,0.08147986233234406,0.12497680150320739,1.551650447764927,1.8580448530104483
5.737279891967773,-0.016256272792816162,-0.025436729192733765,-0.00934225507080555,0.011851878836750984,0.03383108600974083,0.0933154821395874,0.12738864582235154,1.5519082268168882,1.8579896643695828
5.747349977493286,-0.011299312114715576,-0.016537517309188843,-0.013427376747131348,0.023595888167619705,0.03342548757791519,0.09876058250665665,0.1295305997149227,1.5520064487089185,1.8578582972449071
5.757491827011108,-0.0060860514640808105,-0.00842997431755066,-0.016726968809962273,0.03570261597633362,0.026513785123825073,0.09862370043992996,0.13136710906998536,1.5520056754370026,1.8576177907285283
5.7673499584198,-0.0005928277969360352,-0.0030708760023117065,-0.014147099107503891,0.0385332889854908,0.014377759769558907,0.09077350050210953,0.1330944257173378,1.5519386000437463,1.8573019750845101
5.7773377895355225,0.002280294895172119,-0.0007706135511398315,-0.010206162929534912,0.031052203848958015,0.0029991380870342255,0.08127346634864807,0.13472265188252808,1.5518994852172758,1.85698168615322
5.787348031997681,0.0035550594329833984,-0.0024319887161254883,-0.004898488521575928,0.004482646007090807,-0.008554985746741295,0.06877738237380981,0.13623368993930346,1.5517593334010724,1.8568288451350705
5.797414064407349,0.0016463398933410645,-0.0007215291261672974,0.0004943609237670898,-0.020730765536427498,-0.012782133184373379,0.061543866991996765,0.13765224252088226,1.5515795952067506,1.8569241513452284
5.807718992233276,-0.002981722354888916,0.00019140541553497314,0.0015141963958740234,-0.043997786939144135,-0.016469236463308334,0.05834301561117172,0.1388974981363665,1.551224314183466,1.8572952847934459
5.817713975906372,-0.002749323844909668,0.006155610084533691,-0.000762641429901123,-0.052950501441955566,-0.0184987410902977,0.05165645480155945,0.13983540796595018,1.5506856305167127,1.8578549326734821
5.82762885093689,-0.0009328722953796387,0.014326691627502441,-0.0026856679469347,-0.04219559207558632,-0.022204531356692314,0.047650258988142014,0.14050575294378712,1.550005986146405,1.8584277571407417
5.837630033493042,0.0010662674903869629,0.02139127254486084,-0.0057683587074279785,-0.020025942474603653,-0.028020253404974937,0.04215072840452194,0.1409370028011273,1.5492343339837453,1.8588138819749176
5.847823858261108,0.0036919116973876953,0.025000452995300293,-0.005770562216639519,-0.0008863364346325397,-0.036674462258815765,0.0268521998077631,0.1411609473823338,1.5485267493267147,1.8589741804436997
5.85775899887085,0.001641392707824707,0.025810271501541138,-0.001913607120513916,0.0027318508364260197,-0.04340493306517601,0.016579214483499527,0.14123913704684224,1.5479134603969025,1.8589904883755068
5.867594957351685,-0.004655897617340088,0.020522505044937134,0.0037294644862413406,-0.004802231676876545,-0.04098784923553467,0.012031600810587406,0.14130786612230778,1.5474688141189674,1.858991194107539
5.877665996551514,-0.00989675521850586,0.014461830258369446,0.007557988166809082,-0.027209501713514328,-0.03822011500597,0.0042868624441325665,0.1413203299474462,1.5471927371266874,1.8591303888654762
5.88769793510437,-0.00802069902420044,0.014199525117874146,0.008655847981572151,-0.035564638674259186,-0.03923557698726654,-0.0059159742668271065,0.1412711556603833,1.5469315981425005,1.8594374386542456
5.897705793380737,-0.006946146488189697,0.01646806299686432,0.00587892159819603,-0.03347748517990112,-0.04628673940896988,-0.00961553119122982,0.14103491733568346,1.5465468386061498,1.8597777360968775
5.907839059829712,-0.005517363548278809,0.01784878969192505,4.2378902435302734e-05,-0.03299625217914581,-0.052586447447538376,-0.020124100148677826,0.14058006936000728,1.5460320572811814,1.8601105006229677
5.917649984359741,-0.005596816539764404,0.019988223910331726,0.00015741586685180664,-0.031301647424697876,-0.06296806782484055,-0.03042893297970295,0.1398898592964219,1.5453479091135691,1.8604377332173219
