timestamp,accel_x,accel_y,accel_z,rotation_x,rotation_y,rotation_z, pitch,roll,yaw
0.04575490951538086,-0.01908034086227417,-0.014759093523025513,0.0034683947451412678,-0.09158724546432495,-0.01851463131606579,0.1359485387802124,-0.2492817850001953,1.5758933202519247,2.893565320571031
0.05931687355041504,-0.026614248752593994,-0.008895054459571838,0.004184722900390625,-0.1033579558134079,-0.026967862620949745,0.13954752683639526,-0.24649098491841365,1.5762840215611864,2.8946563078745604
0.07227897644042969,-0.027388334274291992,-0.002744153141975403,0.0055869813077151775,-0.1131269633769989,-0.034549612551927567,0.14617186784744263,-0.24386252292595176,1.5765178237962751,2.895836139607055
0.08007311820983887,-0.026031076908111572,0.004012927412986755,0.0059604644775390625,-0.12176164239645004,-0.03882323205471039,0.14562475681304932,-0.2414444132353896,1.5766011812398435,2.8970744040577725
0.08162903785705566,-0.023795664310455322,0.0066774338483810425,0.00459945248439908,-0.13220442831516266,-0.03865625336766243,0.1421101838350296,-0.23936087289403185,1.5766170622928677,2.8983991089389116
0.09012007713317871,-0.021027803421020508,0.011843204498291016,0.0033303499221801758,-0.14805880188941956,-0.03584173321723938,0.13844168186187744,-0.23757788506673977,1.576601471815215,2.8998418842144904
0.09467101097106934,-0.015608072280883789,0.016949936747550964,0.0056105852127075195,-0.16390939056873322,-0.02976493537425995,0.1337377279996872,-0.2360917460732101,1.576718089208112,2.901456105092234
0.1037590503692627,-0.008467316627502441,0.018122971057891846,0.005897402763366699,-0.17733421921730042,-0.018190747126936913,0.12563389539718628,-0.2347755957224601,1.57695483371845,2.9032178194520637
0.11339211463928223,-0.0007496476173400879,0.021108463406562805,0.009080171585083008,-0.1905011534690857,-0.0034091374836862087,0.11638607084751129,-0.23369855822813282,1.5773675373237017,2.9051272150291547
0.12336397171020508,0.0036370158195495605,0.025360167026519775,0.008161783218383789,-0.19661563634872437,0.01793791726231575,0.10579334199428558,-0.23292000869610854,1.5780122382982145,2.9071439750089008
0.13472795486450195,0.007797122001647949,0.03007464110851288,0.004829405806958675,-0.19768595695495605,0.04146694391965866,0.09014168381690979,-0.23240305782481152,1.5789270172877032,2.90920349905156
0.14336395263671875,0.011060535907745361,0.034284889698028564,0.0008158665150403976,-0.19189505279064178,0.0687708780169487,0.07806669920682907,-0.23215333018807455,1.5800715958572746,2.911226922500946
0.1533668041229248,0.01593160629272461,0.03769788146018982,-0.004984498023986816,-0.17516721785068512,0.09137684851884842,0.061189714819192886,-0.23204872974243437,1.5813592247520452,2.913124829974816
0.16335391998291016,0.02122396230697632,0.040523067116737366,-0.008711457252502441,-0.14807868003845215,0.11155841499567032,0.0483921580016613,-0.23217179367045954,1.5827276468579903,2.914787265276383
0.1734178066253662,0.020392179489135742,0.04311834275722504,-0.0134276133030653,-0.11707442998886108,0.13366159796714783,0.03853606432676315,-0.2324527446251676,1.584266521935755,2.916151269901194
0.18554186820983887,0.014900505542755127,0.042685508728027344,-0.02253139205276966,-0.07896645367145538,0.15827976167201996,0.02985197864472866,-0.23275639079874083,1.5859239898998785,2.917150733938449
0.19345998764038086,0.0032796859741210938,0.04289674758911133,-0.031194690614938736,-0.040166065096855164,0.1833137422800064,0.024235637858510017,-0.23311950185447208,1.587803677735634,2.9177640626757757
0.20354580879211426,-0.006536364555358887,0.04408334195613861,-0.040967702865600586,-0.004430470988154411,0.19990967214107513,0.02432623878121376,-0.23354674894393967,1.589742496017513,2.9179790673244375
0.21388792991638184,-0.0068852901458740234,0.04446585476398468,-0.05440187454223633,0.027881396934390068,0.2031792402267456,0.022916626185178757,-0.23406326425291754,1.5915558163767736,2.917811453635218
0.22365689277648926,-0.005023777484893799,0.04047422111034393,-0.06669199466705322,0.04657893255352974,0.20470952987670898,0.023115938529372215,-0.23463734189783228,1.593197622479834,2.9173405324985886
0.23503589630126953,-0.008805572986602783,0.03511863946914673,-0.07802414894104004,0.04484787583351135,0.2066248655319214,0.021324962377548218,-0.23515488030362536,1.5947332523553366,2.9167571317914858
0.2436530590057373,-0.019868910312652588,0.03242214024066925,-0.08568692207336426,0.0202541034668684,0.20238375663757324,0.0195690356194973,-0.23551133416933734,1.5963236042440767,2.9163197455035985
0.25357699394226074,-0.03404885530471802,0.026050597429275513,-0.08971309661865234,-0.01965363137423992,0.20331959426403046,0.015502386726439,-0.23583402812659618,1.5979717471630783,2.9162216578993725
0.2636280059814453,-0.04939037561416626,0.01664753258228302,-0.09052789211273193,-0.06356140226125717,0.20164898037910461,0.013307728804647923,-0.23613601335895446,1.5996285076453767,2.9165379685461335
0.27362895011901855,-0.06354564428329468,0.012089252471923828,-0.09171795845031738,-0.1049080416560173,0.19691574573516846,0.012750595808029175,-0.23647706625871054,1.6012638483295942,2.9172660162706516
0.28558897972106934,-0.07083755731582642,0.013931423425674438,-0.09337425231933594,-0.13714554905891418,0.19360920786857605,0.01720835454761982,-0.2368737261975578,1.6027829438739707,2.9183543214946233
0.2936980724334717,-0.0736578106880188,0.018293187022209167,-0.09410357475280762,-0.1557762324810028,0.19051142036914825,0.0290631502866745,-0.2370644101034232,1.6043361125713063,2.919692882634414
0.30388593673706055,-0.07391536235809326,0.021223917603492737,-0.09607875347137451,-0.15244722366333008,0.19270125031471252,0.0529075488448143,-0.23698488841264495,1.6058660501482562,2.921097243611108
0.3139607906341553,-0.07305276393890381,0.0273265540599823,-0.09482121467590332,-0.13930638134479523,0.1969929337501526,0.07714817672967911,-0.2366090331365775,1.6073170464325162,2.922379736568011
0.3239600658416748,-0.07036799192428589,0.03477339446544647,-0.09361231327056885,-0.11405355483293533,0.20216648280620575,0.10577923059463501,-0.23601204963262906,1.608627388664803,2.9234188315224743
0.3346059322357178,-0.06404995918273926,0.041472405195236206,-0.09222221374511719,-0.07305099815130234,0.1890658587217331,0.12578223645687103,-0.23508579728280796,1.6099363540841374,2.9241482635925315
0.3439359664916992,-0.054871976375579834,0.04438772797584534,-0.08560800552368164,-0.053832776844501495,0.18846891820430756,0.13400310277938843,-0.23398673172525297,1.6112060089593148,2.924580349417308
0.35370898246765137,-0.04983675479888916,0.0422787219285965,-0.08568572998046875,-0.022119320929050446,0.16339151561260223,0.13507714867591858,-0.23271965968432526,1.6124194950205746,2.924720974207282
0.36372995376586914,-0.04236787557601929,0.052072376012802124,-0.0924074649810791,-0.012298563495278358,0.17055892944335938,0.1206749901175499,-0.2316873920257708,1.613547265618633,2.9247279883060955
0.3737790584564209,-0.04362165927886963,0.06212742626667023,-0.09884285926818848,0.009962799027562141,0.1361788511276245,0.12006165832281113,-0.23070031053735532,1.6145060705883694,2.9245256772613635
0.3847367763519287,-0.04923123121261597,0.07069416344165802,-0.10259556770324707,0.009715856984257698,0.14909039437770844,0.07633218169212341,-0.22991000149696536,1.6152813655434917,2.9242615445497377
0.3937709331512451,-0.04856759309768677,0.08069990575313568,-0.10807251930236816,0.05936703458428383,0.18056656420230865,0.02589830383658409,-0.22972605871697013,1.6164079099693789,2.9238101123138134
0.40374207496643066,-0.06506532430648804,0.058710336685180664,-0.11693847179412842,0.06805215030908585,0.1295216977596283,-0.0011831694282591343,-0.22986879041607333,1.6173198919013547,2.9230442022679872
0.4140360355377197,-0.07697862386703491,0.04469601809978485,-0.09929764270782471,0.06818690896034241,0.14643757045269012,-0.038737472146749496,-0.23033024478054784,1.618107693494926,2.9222445566243707
0.42386698722839355,-0.06803232431411743,0.058390602469444275,-0.10242223739624023,0.04857345670461655,0.16399596631526947,-0.07271184027194977,-0.23120030577647593,1.6191810340562338,2.9216036079416936
0.4347717761993408,-0.07695239782333374,0.05996273458003998,-0.11278235167264938,0.05044619366526604,0.17371676862239838,-0.07035840302705765,-0.23217186970445985,1.6204002246844011,2.921024080757259
0.44376301765441895,-0.08979493379592896,0.06334273517131805,-0.10524344444274902,0.07166897505521774,0.17269399762153625,-0.09502358734607697,-0.2332615153843877,1.6216210808635125,2.9203839261246305
0.4538228511810303,-0.09071934223175049,0.06777507066726685,-0.10460364818572998,0.11212265491485596,0.15819068253040314,-0.11989298462867737,-0.23465010393168037,1.622644447890018,2.9193496238531482
0.4637420177459717,-0.09155535697937012,0.05183030664920807,-0.08679544925689697,0.1614474356174469,0.11635126173496246,-0.1338542252779007,-0.23635981595960256,1.6232775020755892,2.9179133429480233
0.4739189147949219,-0.0810808539390564,0.04932861030101776,-0.07686246186494827,0.19819745421409607,0.07515881955623627,-0.13922742009162903,-0.23813293086721862,1.6233319470045133,2.916024285948214
0.48450684547424316,-0.056909024715423584,0.05759936571121216,-0.07941770553588867,0.21344093978405,0.016578907147049904,-0.14935815334320068,-0.24000142112002137,1.6227811290510588,2.913832629851966
0.4938538074493408,-0.04313713312149048,0.05453895032405853,-0.07822573184967041,0.21574218571186066,-0.039258792996406555,-0.15732792019844055,-0.24188017730848502,1.62162308082582,2.911577441813386
0.5039339065551758,-0.030656278133392334,0.06143707036972046,-0.08531057834625244,0.19251161813735962,-0.07139080762863159,-0.14492297172546387,-0.24384397385240653,1.6200626206080724,2.9094378068803537
0.5140249729156494,-0.015452802181243896,0.07222533226013184,-0.09984612464904785,0.1537703573703766,-0.09024173021316528,-0.12219022959470749,-0.2456209004152322,1.618172603435199,2.9075433381670743
0.5241758823394775,0.002566039562225342,0.0884895920753479,-0.1116870641708374,0.10889381170272827,-0.09011305123567581,-0.14143690466880798,-0.2474635336546237,1.6162882224688413,2.9060653643101495
0.5353119373321533,-0.00103837251663208,0.09195376932621002,-0.10511124134063721,0.03941406309604645,-0.12009331583976746,-0.14913955330848694,-0.24954110055980164,1.614279653401649,2.905165190306961
0.544104814529419,-0.011042296886444092,0.07009302079677582,-0.09655976295471191,-0.06696317344903946,-0.11613675206899643,-0.19327767193317413,-0.25177242710985737,1.612484224044534,2.905204751840051
0.5540919303894043,-0.022327780723571777,0.058068662881851196,-0.08830153942108154,-0.17145736515522003,-0.10454587638378143,-0.2525119483470917,-0.25445225564974633,1.6111211816210174,2.9064081472742522
0.5641388893127441,-0.04023247957229614,0.0574072003364563,-0.08851301670074463,-0.24397191405296326,-0.1123046800494194,-0.3405534029006958,-0.25791213411060654,1.61000263321958,2.9085330321564618
0.57417893409729,-0.0508686900138855,0.058014363050460815,-0.0864567756652832,-0.3349737524986267,-0.12632755935192108,-0.4291232228279114,-0.26211547210226555,1.6088487959551647,2.911489134333093
0.5850298404693604,-0.06382793188095093,0.0624503493309021,-0.08150935173034668,-0.4325999915599823,-0.13327574729919434,-0.514198362827301,-0.26725798416267765,1.6078375373472882,2.9154210326732333
0.5941951274871826,-0.08427488803863525,0.07463595271110535,-0.0884167030453682,-0.5849482417106628,-0.13189010322093964,-0.6110023856163025,-0.27267897124538004,1.6079673253725062,2.920905064013186
0.6041369438171387,-0.10527640581130981,0.09054046869277954,-0.0925905704498291,-0.7519977688789368,-0.1057620495557785,-0.7049678564071655,-0.2790014421580048,1.6087573205563683,2.9281270719724666
0.6141729354858398,-0.12735974788665771,0.10146832466125488,-0.09789562225341797,-0.8993531465530396,-0.06727617979049683,-0.7924093008041382,-0.28616474568659234,1.6103751264869812,2.937059819620269
0.6242578029632568,-0.1507677435874939,0.09643751382827759,-0.10316312313079834,-1.0050450563430786,-0.040162935853004456,-0.8854292035102844,-0.2941539860014454,1.6128187633189746,2.947396115639728
0.6354978084564209,-0.16483968496322632,0.10458269715309143,-0.10996508598327637,-1.057094693183899,-0.02177727036178112,-1.0108946561813354,-0.30316176280333595,1.6158444553408855,2.95865171580701
0.644294023513794,-0.16927778720855713,0.1312291920185089,-0.12511670589447021,-1.0369713306427002,-0.014627926051616669,-1.16696298122406,-0.31355010882409956,1.6191891435383488,2.970220845148529
0.6547558307647705,-0.1689717173576355,0.16578125953674316,-0.14588499069213867,-0.9754197597503662,-0.03141596168279648,-1.3271853923797607,-0.32550144334439696,1.62251035715477,2.981493619364797
0.6643187999725342,-0.16430115699768066,0.19952023029327393,-0.17105376720428467,-0.8407649993896484,-0.062011778354644775,-1.5678930282592773,-0.33941477765395034,1.6255219550227253,2.9919520011389134
0.6743459701538086,-0.13718557357788086,0.2600749135017395,-0.1883988380432129,-0.6460258960723877,-0.22725585103034973,-1.8087352514266968,-0.35589603790239477,1.6271663001940817,3.0008608946972037
0.6854839324951172,-0.0774039626121521,0.31274688243865967,-0.16895616054534912,-0.566022515296936,-0.38600391149520874,-2.0669286251068115,-0.3748981656718934,1.6267536602453794,3.008415209290429
0.6942319869995117,0.0014004707336425781,0.35717007517814636,-0.12556731700897217,-0.6534724831581116,-0.4928209185600281,-2.3338780403137207,-0.3965663787621496,1.6252848967681803,3.016192339115289
0.7042548656463623,0.08541393280029297,0.4111063778400421,-0.09296953678131104,-0.8583757877349854,-0.6153477430343628,-2.6199605464935303,-0.42088168620840444,1.623579920920964,3.0258214991456276
0.714324951171875,0.2036442756652832,0.4918840825557709,-0.05979585647583008,-1.077984094619751,-0.6980205178260803,-2.9541234970092773,-0.4482381510815126,1.6221515694651951,3.038135126315651
0.7245290279388428,0.32009559869766235,0.5724239945411682,-0.04908585548400879,-1.23330557346344,-0.7162712216377258,-3.2628440856933594,-0.47870102605591713,1.621633815875226,3.0529102398594485
0.735759973526001,0.40959060192108154,0.6475052833557129,-0.0746232271194458,-1.1965675354003906,-0.7539421916007996,-3.6536827087402344,-0.5126054951805954,1.6219023278969413,3.068915031470576
0.7443909645080566,0.5094420313835144,0.7847881317138672,-0.09639978408813477,-0.9966859221458435,-0.834903359413147,-4.0493316650390625,-0.5505782637293085,1.6215901027758548,3.0839738694289127
0.7543618679046631,0.6231767535209656,0.9175298810005188,-0.09798038005828857,-0.7912270426750183,-0.8834514617919922,-4.455077171325684,-0.5926299089624844,1.6200663758609197,3.0971013829102154
0.7643630504608154,0.7350301742553711,1.011958122253418,-0.06974506378173828,-0.6504502892494202,-0.922720730304718,-4.8768696784973145,-0.6389829198687313,1.617706115290745,3.1086263920263058
0.7745587825775146,0.8577945828437805,1.0849190950393677,-0.03863847255706787,-0.5513671040534973,-0.9464457631111145,-5.306818008422852,-0.6895578450550376,1.6149384961428543,3.1192902141461225
0.785485029220581,1.0603363513946533,1.245071530342102,-0.0016051530838012695,-0.4425060451030731,-0.9157463312149048,-5.756613254547119,-0.744677029262949,1.6121912135904806,3.1291712523181703
0.7944538593292236,1.2960853576660156,1.4223666191101074,-0.010369297116994858,-0.41328877210617065,-0.7820940017700195,-6.165821075439453,-0.8041294150896319,1.610102236120327,3.1384699936271687
0.8044040203094482,1.4613161087036133,1.5511915683746338,-0.03900933265686035,-0.33158525824546814,-0.5133658647537231,-6.576684474945068,-0.8677562115300098,1.6105393661283078,-3.135308030122889
0.8143119812011719,1.5379056930541992,1.6110966205596924,-0.05810869112610817,-0.093532495200634,-0.21610727906227112,-6.877511501312256,-0.9350506415729724,1.6132164019812727,-3.127316870696285
0.8244919776916504,1.4868013858795166,1.50710928440094,-0.1002969741821289,0.12141203135251999,0.06812789291143417,-7.129380702972412,-1.0050879769731442,1.616846167049035,-3.122017088613696
0.8352909088134766,1.358147382736206,1.3348498344421387,-0.11598718166351318,0.4464322030544281,0.2839701771736145,-7.275416851043701,-1.0773940254699677,1.6196682672073897,-3.120826033659908
0.844376802444458,1.2418217658996582,1.1427452564239502,-0.09048926830291748,0.8984795212745667,0.42516085505485535,-7.264252185821533,-1.150454407979686,1.6169670089028527,-3.127862512362693
0.8543319702148438,1.1271519660949707,0.9235268831253052,-0.05823683738708496,1.4845257997512817,0.4575941562652588,-7.12114953994751,-1.2229838641545425,1.5983153610914071,3.1304508066073473
0.8643820285797119,0.9774300456047058,0.6394432187080383,-0.030126750469207764,1.956356406211853,0.44876524806022644,-6.930325508117676,-1.2933884676163483,1.5501466600449278,3.0750901058880498
0.8745279312133789,0.8314414620399475,0.322365939617157,0.008600534871220589,2.3370587825775146,0.3793763220310211,-6.702434062957764,-1.3600798231985765,1.4481753071893362,2.965770964497717
0.8858320713043213,0.7311348915100098,-0.020234882831573486,0.0663837194442749,2.5925588607788086,0.29401054978370667,-6.370265483856201,-1.4186691098597093,1.2391694492296164,2.7499990127159255
0.8945178985595703,0.6615097522735596,-0.36166614294052124,0.1211443617939949,2.7284622192382812,0.22558170557022095,-5.946550369262695,-1.4589018156341274,0.8282167823282677,2.3330151650714055
0.9046070575714111,0.5982879400253296,-0.6303036212921143,0.1749076396226883,2.7518224716186523,0.13092456758022308,-5.478865623474121,-1.4647123077843804,0.2434299252955928,1.7431494006133776
0.9145359992980957,0.5652381181716919,-0.8124344944953918,0.24161690473556519,2.641958236694336,0.0696505531668663,-4.985932350158691,-1.438084179525643,-0.20089258885398265,1.29481286024182
0.9245889186859131,0.5608206987380981,-0.9259910583496094,0.3170396089553833,2.400089979171753,0.05802173167467117,-4.4487175941467285,-1.398865958368942,-0.44100615318232733,1.0513360631170932
0.9358007907867432,0.5615260004997253,-1.0086294412612915,0.3741225004196167,2.087430477142334,0.07388138771057129,-3.8897266387939453,-1.358851941102933,-0.5720394161575315,0.9171931718397953
0.9445478916168213,0.5526338219642639,-1.0931556224822998,0.40621769428253174,1.6538821458816528,0.07939213514328003,-3.446117877960205,-1.322368114008167,-0.6529966819485507,0.8332652574113765
0.9544799327850342,0.515605628490448,-1.2519938945770264,0.4415794014930725,0.9746090173721313,0.10271823406219482,-3.1269617080688477,-1.291235848306443,-0.7152068772047995,0.7679280026276148
0.9644777774810791,0.445473849773407,-1.5463556051254272,0.5111833810806274,0.06940089166164398,0.13104338943958282,-2.7541041374206543,-1.2673067747286468,-0.7742302409748759,0.7050197734310756
0.9745581150054932,0.38037198781967163,-1.911626935005188,0.5748910903930664,-0.9350012540817261,0.15601851046085358,-2.238217353820801,-1.2522204698112922,-0.83671415371861,0.6379823068267241
0.9850261211395264,0.3420282006263733,-2.22308349609375,0.6132721900939941,-1.9332605600357056,0.3015487492084503,-1.5222944021224976,-1.2469822162368858,-0.9040817931378636,0.5645686173396823
0.9945909976959229,0.33753615617752075,-2.376288890838623,0.6223105192184448,-2.8184359073638916,0.42075610160827637,-0.5495806932449341,-1.2525176795214585,-0.9771728180760835,0.48372843532944604
1.0044968128204346,0.4106370806694031,-2.308661699295044,0.6154807806015015,-3.5330111980438232,0.591952383518219,0.6394302845001221,-1.269690116516483,-1.0567435517946178,0.39494034076708334
1.0148160457611084,0.5594121217727661,-2.0693202018737793,0.5335516333580017,-3.9553699493408203,0.7852142453193665,1.8962428569793701,-1.298249840515995,-1.1442445111756763,0.2964951276043333
1.0248479843139648,0.6490461230278015,-1.79909086227417,0.3932375907897949,-3.963747024536133,0.9913421273231506,3.0227818489074707,-1.3360272562593811,-1.2433471798342537,0.18487500138302518
1.0354950428009033,0.6625498533248901,-1.6779314279556274,0.21509480476379395,-3.5776784420013428,1.023825764656067,3.907090902328491,-1.3798530051805953,-1.3597565314514606,0.05526498616216426
1.0447049140930176,0.678248405456543,-1.6755644083023071,0.043092191219329834,-2.9506657123565674,1.0107457637786865,4.509511470794678,-1.4263824883983742,-1.5075542164638127,-0.10486914189434263
1.054870843887329,0.6690492630004883,-1.5998172760009766,-0.08243215084075928,-2.1207611560821533,0.9387547969818115,4.968462944030762,-1.472966063117879,-1.7245406679570727,-0.3333803867687827
1.0648000240325928,0.5971867442131042,-1.4340429306030273,-0.17950069904327393,-1.3145285844802856,0.6857321262359619,5.3277106285095215,-1.5156731808429815,-2.1801415688869135,-0.798379321882384
1.074922800064087,0.5168871879577637,-1.295563817024231,-0.20234525203704834,-0.49029067158699036,0.6265218257904053,5.434499263763428,-1.529485846690334,2.932353270290929,-1.9766424747930864
1.0855448246002197,0.4607914984226227,-1.2878696918487549,-0.17053747177124023,0.31975969672203064,0.6011502146720886,5.428282737731934,-1.4956073433236978,2.156485921016898,-2.7597966832674024
1.094938039779663,0.36494240164756775,-1.3352867364883423,-0.14641332626342773,1.1544891595840454,0.5596004128456116,5.422910690307617,-1.4489813401428853,1.8598985492445839,-3.0635829446743497
1.1049079895019531,0.2881583273410797,-1.307335615158081,-0.11615383625030518,1.82941734790802,0.5298855304718018,5.366379261016846,-1.3989369137357983,1.6913880917747717,3.0437882298663577
1.1148009300231934,0.23709823191165924,-1.246673583984375,-0.06686687469482422,2.3145694732666016,0.4198210835456848,5.317927837371826,-1.3467492103729097,1.5752745187688078,2.920337036312939
1.1247649192810059,0.22269123792648315,-1.1783668994903564,0.011628987267613411,2.4399564266204834,0.25732889771461487,5.213237285614014,-1.2930538321248788,1.4922975967683716,2.8312398341082052
1.1349718570709229,0.24054959416389465,-1.1086339950561523,0.07982128858566284,2.093092918395996,0.1255333125591278,5.157148838043213,-1.2390878753644807,1.4386487537689097,2.7731044439306625
1.1447770595550537,0.271323025226593,-1.0730421543121338,0.1113775297999382,1.2838408946990967,0.060028113424777985,5.289901256561279,-1.1849539650302514,1.4143347394552395,2.7462139522261997
1.154869794845581,0.2978420555591583,-1.0676653385162354,0.11089450120925903,0.13489696383476257,0.03212510794401169,5.540170669555664,-1.1302849108776873,1.4174094803059756,2.74910940760241
1.1647861003875732,0.34952735900878906,-1.0589245557785034,0.08320045471191406,-1.1823045015335083,-0.039741888642311096,5.845702171325684,-1.0746430584304703,1.4434059448380665,2.778214376311149
1.174980878829956,0.4726375937461853,-1.0205717086791992,0.06271785497665405,-2.4158220291137695,-0.27563485503196716,6.268634796142578,-1.0162633475865628,1.4841200923112217,2.8270467798159675
1.1847889423370361,0.7108910083770752,-0.9424599409103394,0.06196576729416847,-3.3933019638061523,-0.6667463183403015,6.710282802581787,-0.9533408242350402,1.5298293768376852,2.8874018198211515
1.195019006729126,1.0210844278335571,-0.8185041546821594,0.05857276916503906,-4.049644470214844,-1.1905120611190796,7.214874744415283,-0.8843305044046306,1.5713354821145364,2.951310903544891
1.205082893371582,1.3636566400527954,-0.6248721480369568,0.05671334266662598,-4.506966590881348,-1.6313450336456299,7.817530632019043,-0.8084464588050665,1.604214557934044,3.0140827127920984
1.2151648998260498,1.72275972366333,-0.31142812967300415,0.04903543367981911,-4.760913848876953,-2.1111369132995605,8.498722076416016,-0.7245418020261689,1.626954442163285,3.0736829414779927
1.225024938583374,2.1431055068969727,0.1882838010787964,0.09363220632076263,-4.644967079162598,-2.6989939212799072,8.788969039916992,-0.6350597354924429,1.6366667773358623,3.1274015046545722
1.2362549304962158,2.55342435836792,0.7187535166740417,0.24845242500305176,-4.366833686828613,-3.177854299545288,8.956206321716309,-0.543354333786827,1.633343302599519,-3.1085878699244005
1.245054006576538,2.739445209503174,1.0181466341018677,0.2719573974609375,-4.08485221862793,-3.296480655670166,8.900885581970215,-0.4515739350516764,1.6209135546868358,-3.066226867924289
1.2551748752593994,2.7310166358947754,1.111568570137024,0.1874924898147583,-3.7494938373565674,-3.01985502243042,8.735819816589355,-0.3616079944398551,1.6044174731341694,-3.027531302739435
1.264962911605835,2.672706127166748,1.1424963474273682,0.0258179884403944,-3.1224279403686523,-2.5154147148132324,8.45108699798584,-0.27462359942016923,1.5873634955809712,-2.993274760350994
1.27498197555542,2.5601038932800293,1.248374581336975,-0.13694310188293457,-2.045541286468506,-1.9361785650253296,8.075095176696777,-0.19157684160478347,1.5711338893492601,-2.96709669828591
1.2849469184875488,2.423921585083008,1.382127285003662,-0.26267898082733154,-0.6016545295715332,-1.3428901433944702,7.653960227966309,-0.11284776925844675,1.556912828592071,-2.9529903025262167
1.2949450016021729,2.2866997718811035,1.51966392993927,-0.3370664119720459,0.9230190515518188,-0.8191480040550232,7.184795379638672,-0.03842049484574722,1.5462090769572816,-2.9531669018672626
1.30495285987854,2.1248161792755127,1.6493664979934692,-0.33291274309158325,2.246626377105713,-0.4324765205383301,6.680737018585205,0.03166558023002607,1.5399805137400102,-2.9672907011030056
1.3149659633636475,1.9673311710357666,1.7149298191070557,-0.21357417106628418,3.066591501235962,-0.20202679932117462,6.163717746734619,0.09716274125807395,1.538546597309607,-2.9923417791971434
1.3248450756072998,1.7775547504425049,1.706560730934143,-0.0032302122563123703,3.066429376602173,-0.10618811100721359,5.470369815826416,0.15658646415221683,1.5408496345419271,-3.021991019478529
1.3357629776000977,1.5380463600158691,1.608908772468567,0.27618807554244995,2.4184088706970215,-0.15574847161769867,4.575235366821289,0.20775110021922782,1.5444822274758878,-3.0486931161817314
1.3449699878692627,1.2565701007843018,1.331207036972046,0.5488496422767639,1.4686871767044067,-0.3333956301212311,3.725006580352783,0.24976570098379924,1.546316228896033,-3.067674999627443
1.3550679683685303,1.0187780857086182,0.9981826543807983,0.6722685098648071,0.4711255431175232,-0.4270765781402588,2.866560697555542,0.2830284644597619,1.5448152194825062,-3.0768146290790277
1.365116834640503,0.8382423520088196,0.8818310499191284,0.5916925668716431,-0.33489951491355896,-0.4376412630081177,2.1033692359924316,0.30781146631984596,1.5404318034495097,-3.07666254780766
1.375330924987793,0.6261250972747803,0.923004150390625,0.43709874153137207,-0.9638867974281311,-0.44186532497406006,1.4781239032745361,0.3254795971988488,1.5336079999930423,-3.069069412602981
1.385279893875122,0.41685712337493896,1.0169328451156616,0.31939059495925903,-1.439249873161316,-0.37698689103126526,0.9656290411949158,0.3371092552042226,1.525142810977393,-3.0557261989167093
1.3952248096466064,0.20266127586364746,1.0723754167556763,0.25221455097198486,-1.7113219499588013,-0.27564188838005066,0.6022766828536987,0.3440782678683398,1.516078510994624,-3.0384410702056703
1.4053549766540527,-0.01844477653503418,1.079253911972046,0.21602344512939453,-1.722129225730896,-0.15820111334323883,0.3502863943576813,0.3477566566398225,1.5075484285971017,-3.019713228522896
1.4152238368988037,-0.23317956924438477,1.0873708724975586,0.18378883600234985,-1.4850703477859497,-0.0485241524875164,0.17322933673858643,0.349265791081056,1.5006214717927688,-3.002341267575603
1.425205945968628,-0.42845064401626587,1.1088753938674927,0.13626450300216675,-1.1281217336654663,0.041411906480789185,0.03630167245864868,0.34936842558803616,1.4958244349505243,-2.9883447712385283
1.4358408451080322,-0.609329342842102,1.1415141820907593,0.07455796003341675,-0.7514745593070984,0.1347314715385437,-0.06811340898275375,0.3484756152539017,1.4932926296269644,-2.978371344754909
1.445235013961792,-0.7971041202545166,1.1731065511703491,0.012211740016937256,-0.38482150435447693,0.2286948561668396,-0.1610187441110611,0.3469084599817096,1.4931075822894206,-2.972444078986066
1.455359935760498,-0.9873731136322021,1.1900910139083862,-0.03671639412641525,0.0003706589341163635,0.3113678991794586,-0.254592627286911,0.34467174512810955,1.4952118079635204,-2.9705697001962634
1.465235948562622,-1.142364501953125,1.180924654006958,-0.05781631916761398,0.358042448759079,0.37562963366508484,-0.3461935520172119,0.34182421711824107,1.4993780354578548,-2.9727229966060698
1.4753749370574951,-1.2433326244354248,1.1486892700195312,-0.06301403045654297,0.6633507013320923,0.4402123689651489,-0.4354456663131714,0.338270302029896,1.5054285711627735,-2.9784831295605634
1.4857261180877686,-1.3001295328140259,1.1158416271209717,-0.08456748723983765,0.9063493013381958,0.4782247543334961,-0.5210193395614624,0.3339755731404459,1.5129303747646181,-2.9871536859790253
1.4954109191894531,-1.3244719505310059,1.103198528289795,-0.12626343965530396,1.0902035236358643,0.4505646228790283,-0.6209230422973633,0.3288186248984982,1.521196196290054,-2.9980746853299904
1.5053699016571045,-1.3185228109359741,1.093773603439331,-0.16437667608261108,1.21165931224823,0.37010958790779114,-0.709902822971344,0.32265543946143754,1.5293327566996577,-3.0105950697979686
1.5153148174285889,-1.2943413257598877,1.0645086765289307,-0.16649430990219116,1.2222965955734253,0.26740264892578125,-0.7708088159561157,0.31569841774541435,1.536685259701764,-3.023790050513857
1.5254299640655518,-1.2669751644134521,1.0219454765319824,-0.13019537925720215,1.1212975978851318,0.15246185660362244,-0.8170324563980103,0.30809231864901776,1.5426822658751687,-3.036448873857664
1.5363519191741943,-1.2421568632125854,0.9840711951255798,-0.06423544883728027,0.8961353302001953,0.0354449637234211,-0.8646178245544434,0.2999502055437532,1.546880149247626,-3.0473445500182716
1.5454208850860596,-1.2058188915252686,0.9571593999862671,0.0029553771018981934,0.6256569027900696,-0.057404015213251114,-0.9112797379493713,0.2911823585517054,1.5491360712505797,-3.0554737586096823
1.5556180477142334,-1.1483975648880005,0.9179341793060303,0.0590093731880188,0.4156053960323334,-0.15079174935817719,-0.8768226504325867,0.28232672211908894,1.5496763684743111,-3.0610668525160576
1.5654470920562744,-1.0581367015838623,0.8926445841789246,0.08813536167144775,0.309683233499527,-0.23402370512485504,-0.8973896503448486,0.2735457846909723,1.5487971607173747,-3.064942879264672
1.5755369663238525,-0.9347298741340637,0.906134307384491,0.10058242082595825,0.3617951571941376,-0.30830538272857666,-0.8831760883331299,0.2646512308544203,1.5470525999572344,-3.068576212040869
1.5857579708099365,-0.7731074094772339,0.9093154072761536,0.1037566065788269,0.5197943449020386,-0.4073639512062073,-0.8099984526634216,0.2562576668996799,1.5447069148034713,-3.073298955117292
1.595649003982544,-0.55079185962677,0.9369468688964844,0.09966284036636353,0.7418543100357056,-0.5195125937461853,-0.7184549570083618,0.24877002044592705,1.5417222164474162,-3.0799843240600078
1.605545997619629,-0.2893749475479126,0.9933911561965942,0.09249746799468994,1.0426777601242065,-0.6494176983833313,-0.6257566809654236,0.24232257108172045,1.5382087300792568,-3.089395799928171
1.6155240535736084,-0.002064228057861328,1.0747369527816772,0.10568726062774658,1.358964443206787,-0.8281062245368958,-0.5525839328765869,0.2368890301661563,1.5338477777935042,-3.1019657826369373
1.6255390644073486,0.32472729682922363,1.182625412940979,0.1739463210105896,1.606637716293335,-1.0876929759979248,-0.645089328289032,0.2316270710801517,1.528097891206192,-3.1175942181445944
1.6358540058135986,0.7382479906082153,1.2818818092346191,0.3128688335418701,1.5611515045166016,-1.6630116701126099,-0.9670892357826233,0.22449777326023063,1.5182274866810166,-3.134453844328476
1.645542860031128,1.3274495601654053,1.3532649278640747,0.5514759421348572,1.296912670135498,-2.192458391189575,-1.7087424993515015,0.2122775628775608,1.502194762487555,3.1331479986017023
1.6555979251861572,2.027297019958496,1.275516152381897,0.8838749527931213,0.6553294658660889,-2.4911742210388184,-2.723489761352539,0.19098175778526544,1.4809769707226246,3.1210895203661777
1.665503978729248,2.3701658248901367,0.9741029739379883,1.1540677547454834,-0.5812668800354004,-2.3925375938415527,-3.8853211402893066,0.15832690692977067,1.4570098444743247,3.1168103376823137
1.6765468120574951,2.254782199859619,0.5915024876594543,1.283624291419983,-2.21240496635437,-1.8458150625228882,-5.114288330078125,0.11169313765546421,1.4344940607871386,3.1250279209220992
1.6855528354644775,2.115703821182251,0.24182596802711487,1.1888091564178467,-3.819929361343384,-1.016170620918274,-5.9893622398376465,0.05206068531123505,1.418254215391126,-3.136093992683426
1.6956918239593506,2.0862486362457275,0.15023481845855713,0.9031860828399658,-4.801474094390869,-0.0037093209102749825,-6.664123058319092,-0.017460134020805502,1.412485719968317,-3.1028091997077176
1.7056920528411865,2.0768699645996094,0.3997156620025635,0.6015048623085022,-4.907368183135986,1.1638741493225098,-6.9816107749938965,-0.09291061132256323,1.4203488843289778,-3.0647731427894658
1.7156908512115479,2.1107218265533447,0.6513738632202148,0.32910841703414917,-4.122466564178467,2.3764286041259766,-6.966161727905273,-0.16863817365249928,1.4427903137897569,-3.028924255876898
1.7257330417633057,2.236567497253418,0.7842802405357361,0.13157784938812256,-2.6564714908599854,3.428555727005005,-6.880657196044922,-0.24145067468145762,1.4775193794606036,-3.002121646334923
1.7362658977508545,2.3217580318450928,0.7857682704925537,0.07033061981201172,-1.024510145187378,4.121237277984619,-6.9486894607543945,-0.31283039982819527,1.520126681198909,-2.987973248568803
1.7455570697784424,2.3185174465179443,0.7547764778137207,0.16088485717773438,0.6824127435684204,4.4748029708862305,-7.120657444000244,-0.38350759528788514,1.5633469593156433,-2.9882022261167873
1.755748987197876,2.2965145111083984,0.7402783632278442,0.2880833148956299,2.460392475128174,4.506041049957275,-7.165032386779785,-0.45536552297980326,1.601794373658545,-3.004426195718516
1.7656137943267822,2.2874906063079834,0.766938328742981,0.3736917972564697,3.967702865600586,4.332370758056641,-7.243238925933838,-0.5289268760376847,1.6303884202282062,-3.0376121959781512
1.7758018970489502,2.2665820121765137,0.7834550738334656,0.4116617441177368,4.691075325012207,4.1243062019348145,-7.303093910217285,-0.6046493908545053,1.6479243781034798,-3.0836356814902923
1.785810947418213,2.1309571266174316,0.6194044947624207,0.4147840738296509,4.6247239112854,4.012209415435791,-7.362067222595215,-0.6817699412088989,1.658234879881336,-3.1344698101792083
1.7959420680999756,1.9375431537628174,0.29217296838760376,0.40217864513397217,4.08246374130249,3.935892105102539,-7.368582725524902,-0.7592425257735734,1.6654710395009837,3.09945743627516
1.8059329986572266,1.685988187789917,-0.08250826597213745,0.36832916736602783,3.3885114192962646,3.88590145111084,-7.360730171203613,-0.8363347121452466,1.6741462360700776,3.056749831453165
1.8155758380889893,1.4493674039840698,-0.2790055274963379,0.30878376960754395,2.8054230213165283,3.8005576133728027,-7.350216388702393,-0.9129143724251023,1.6854820826213572,3.021329151474727
1.825692892074585,1.2656376361846924,-0.3698633909225464,0.22584950923919678,2.4348294734954834,3.675649642944336,-7.333276748657227,-0.9890710303739401,1.6992461993012755,2.9921899776499368
1.8363919258117676,1.1621644496917725,-0.4589093327522278,0.17751193046569824,2.284996509552002,3.5067832469940186,-7.286427021026611,-1.0647770510234564,1.713053036829153,2.9662806134341118
1.8457069396972656,1.1313269138336182,-0.5570487976074219,0.14930510520935059,2.302448272705078,3.3115992546081543,-7.215169906616211,-1.1399834115570158,1.723652168621291,2.939874492379356
1.8557679653167725,1.1508785486221313,-0.6392554640769958,0.12466608732938766,2.495496988296509,3.0490357875823975,-7.129624843597412,-1.214641323786285,1.7251412912577357,2.906975770123016
1.865757942199707,1.2317935228347778,-0.6908665299415588,0.13271629810333252,2.9405713081359863,2.6899986267089844,-7.059834957122803,-1.2888649320243581,1.703657698197743,2.8540351508916886
1.8758018016815186,1.3447036743164062,-0.7768233418464661,0.16799890995025635,3.388160228729248,2.2226357460021973,-7.072250843048096,-1.362314672203525,1.6288517574232246,2.7516114687621642
1.8857810497283936,1.4571959972381592,-0.9237343668937683,0.2125059962272644,3.627901315689087,1.750115990638733,-7.281432628631592,-1.4330081923300837,1.4297126462452316,2.529439238801175
1.895636796951294,1.5393552780151367,-1.1391081809997559,0.30198991298675537,3.518483877182007,1.3092981576919556,-7.546408176422119,-1.4882038164402827,0.8635048775943245,1.9447730053892327
1.9056589603424072,1.5968166589736938,-1.508915901184082,0.3838192820549011,3.0160093307495117,0.9714630246162415,-7.711480140686035,-1.4836534682127553,-0.147447559133474,0.9194547964842289
1.915661096572876,1.6611098051071167,-1.9200806617736816,0.44166064262390137,2.150592803955078,0.8155301809310913,-7.624725341796875,-1.427299061019717,-0.6662731604910787,0.38861930292716296
1.9256761074066162,1.6957002878189087,-2.222801923751831,0.45812034606933594,1.0018078088760376,0.5405007600784302,-7.158510684967041,-1.363175486154075,-0.893753339840468,0.15024813521008387
1.935966968536377,1.706512689590454,-2.3455162048339844,0.47937220335006714,-0.15422506630420685,0.0599043183028698,-6.513181209564209,-1.304485601838808,-1.0383758047889342,-0.0015113102164585575
1.9457159042358398,1.767261266708374,-2.350560188293457,0.5859113335609436,-1.0587557554244995,-0.19143442809581757,-5.779281139373779,-1.2524120227002091,-1.151431343840798,-0.11875778220808987
1.9556999206542969,1.7510590553283691,-2.427417755126953,0.536516010761261,-1.682242751121521,-0.3105592131614685,-4.838672161102295,-1.207833401020777,-1.2454187521167552,-0.21574488367924888
1.9658358097076416,1.5827516317367554,-2.4413416385650635,0.40721070766448975,-1.8797013759613037,-0.3845196068286896,-3.819638729095459,-1.1714286528634144,-1.3231283321223986,-0.29570856194533457
1.975740909576416,1.4098970890045166,-2.3815433979034424,0.22920924425125122,-1.6520154476165771,-0.5289055109024048,-2.7988555431365967,-1.1429560234730576,-1.3839370018651902,-0.3571512975422766
1.9858667850494385,1.27125084400177,-2.3551573753356934,0.02044791728258133,-1.0686753988265991,-0.7652594447135925,-1.7040965557098389,-1.122901934429993,-1.427500507150806,-0.3981459487163199
1.9957168102264404,1.144905686378479,-2.3077473640441895,-0.163021981716156,-0.22066505253314972,-1.1005789041519165,-0.5116907954216003,-1.1127542282686502,-1.4532302278797864,-0.4163863844964967
2.0058469772338867,0.9797884225845337,-2.2143139839172363,-0.26968681812286377,0.7148546576499939,-1.4324592351913452,0.8054342865943909,-1.1138506116751925,-1.4604993333859047,-0.41032668533294986
2.016134023666382,0.7946035265922546,-2.170673370361328,-0.2897334694862366,1.2953400611877441,-1.744796872138977,2.216789722442627,-1.127706380913867,-1.4516065599394776,-0.3827448143086003
2.026189088821411,0.6360714435577393,-2.1045947074890137,-0.21194666624069214,1.5371403694152832,-1.9601086378097534,3.6220498085021973,-1.1548385275442816,-1.4310016739901266,-0.33958103418954416
2.0362319946289062,0.4922564625740051,-1.924302101135254,-0.025759942829608917,1.5615119934082031,-2.064159631729126,5.00653076171875,-1.195144246971791,-1.3981799877812313,-0.28207656438135376
2.0459258556365967,0.3351227641105652,-1.738436222076416,0.11834120750427246,1.4121079444885254,-2.0081028938293457,6.20857572555542,-1.2474697281287082,-1.3482095510903682,-0.20706724222893988
2.0561211109161377,0.20825375616550446,-1.5506281852722168,0.21372509002685547,1.1160640716552734,-1.7897690534591675,7.053576469421387,-1.3086469102414116,-1.2689155102927232,-0.10434620489741006
2.0659279823303223,0.14301075041294098,-1.4006400108337402,0.2572076916694641,0.7087327241897583,-1.7333217859268188,7.700538635253906,-1.3743382891238918,-1.1358421972267427,0.05013227531235572
2.0759150981903076,0.15798325836658478,-1.3411245346069336,0.26324450969696045,0.268584668636322,-1.7761331796646118,8.555418014526367,-1.4406722416492137,-0.8591055124553678,0.3483769784402075
2.086210012435913,0.27081233263015747,-1.2761331796646118,0.2785346508026123,-0.5439936518669128,-1.7145609855651855,9.305000305175781,-1.4872984291657467,-0.1282269145308278,1.1004251540872205
2.0961339473724365,0.4660688042640686,-1.0117723941802979,0.266251802444458,-1.5838872194290161,-1.658045768737793,9.799290657043457,-1.4599123883522427,0.8540614325947021,2.1036014113359696
2.1060540676116943,0.726370096206665,-0.5133639574050903,0.2246236801147461,-2.5907576084136963,-1.5987788438796997,10.08419132232666,-1.3808122037309507,1.2800409431999036,2.550491750349775
2.1162331104278564,0.9727314114570618,-0.09127700328826904,0.12261700630187988,-3.4699997901916504,-1.5779308080673218,10.446946144104004,-1.2855007621043557,1.4706097595624374,2.762630944718879
2.1261329650878906,1.2220382690429688,0.18497025966644287,0.058994412422180176,-3.8932130336761475,-1.6553267240524292,10.381608963012695,-1.1825642172293676,1.576067065863571,2.891283949388973
2.1363108158111572,1.511452078819275,0.5815215706825256,0.06371378898620605,-3.246471643447876,-2.2667195796966553,9.788750648498535,-1.080013747377058,1.626395470127223,2.9680624392905433
2.146135091781616,1.7994722127914429,0.8390769362449646,0.05888235941529274,-2.506206512451172,-3.0021164417266846,8.670732498168945,-0.9859653295821884,1.6389286840920378,3.013536587500861
2.1567070484161377,2.2605834007263184,1.3762837648391724,0.40131354331970215,-1.342693567276001,-3.3806419372558594,8.081318855285645,-0.9015421133155757,1.6261273040513724,3.037435173275063
2.166227102279663,2.448892116546631,2.158938407897949,0.46342408657073975,-0.7539528012275696,-3.182758092880249,7.836051940917969,-0.8214202740131286,1.6003928946752792,3.047357281092228
2.176470994949341,2.0757665634155273,2.3375542163848877,0.12562119960784912,-1.1018798351287842,-2.471827745437622,7.6163249015808105,-0.7439727789577335,1.5794091312989549,3.05792177247339
2.186314821243286,1.682466983795166,2.047736406326294,-0.10992246866226196,-1.6754053831100464,-1.7569504976272583,7.403443336486816,-0.6686890106538355,1.5700359032418536,3.07599459463613
2.196377992630005,1.4669954776763916,1.7708752155303955,-0.22362583875656128,-2.08160138130188,-1.247627854347229,7.131175994873047,-0.595911145616184,1.569184284005216,3.0997801798092577
2.206360101699829,1.2989193201065063,1.528099536895752,-0.1956954002380371,-2.098208427429199,-0.9746288657188416,6.799322605133057,-0.5261814313404997,1.5712218391988584,3.1244307458588936
2.2163779735565186,1.141461968421936,1.3544601202011108,-0.013960003852844238,-2.259549856185913,-0.8293635845184326,6.387766361236572,-0.46000885176036055,1.5739620857894925,-3.1341057638722427
2.226425886154175,0.9271762371063232,1.2252275943756104,0.1990199089050293,-2.371443510055542,-0.7862900495529175,5.922971725463867,-0.3982374853185323,1.5764587800852248,-3.108858767322506
2.2369799613952637,0.6392156481742859,1.0438504219055176,0.33542633056640625,-2.3572428226470947,-0.8157308101654053,5.469883441925049,-0.34103293205453095,1.5775403123172305,-3.083752376135304
2.246332883834839,0.3676483631134033,0.9483234286308289,0.38512611389160156,-2.1766114234924316,-0.8798141479492188,5.001143932342529,-0.2884320273751493,1.5763892240482422,-3.0600623510231304
2.256321907043457,0.10804396867752075,0.8942893743515015,0.40366530418395996,-1.7461988925933838,-0.9094588160514832,4.53209924697876,-0.24059339882141387,1.572735201083348,-3.0397487056322405
2.2664310932159424,-0.1413571834564209,0.7809908390045166,0.40340447425842285,-1.1142152547836304,-0.8996256589889526,4.10192346572876,-0.1973849103852068,1.566898364716721,-3.024918560518592
2.2767488956451416,-0.3818390369415283,0.6415448188781738,0.3705936074256897,-0.3598509430885315,-0.7871204614639282,3.723828077316284,-0.1582481048670271,1.55979121515513,-3.0170604140670325
2.286608934402466,-0.5901612639427185,0.5345675349235535,0.30608487129211426,0.5062126517295837,-0.5632839798927307,3.401959180831909,-0.12259970380896602,1.553014217387081,-3.0171875563337966
2.2963078022003174,-0.7473731637001038,0.4725870192050934,0.22248661518096924,1.4259138107299805,-0.31167492270469666,3.1914567947387695,-0.0894064042254307,1.5477091114688406,-3.026273154835358
2.3065218925476074,-0.8585750460624695,0.4859262704849243,0.12489277124404907,2.344843864440918,-0.038634102791547775,2.999929904937744,-0.05795991167808884,1.544642365009355,-3.0443882217442004
2.316951036453247,-0.9299917817115784,0.5654976963996887,0.04502445459365845,3.149427652359009,0.23814503848552704,2.867171049118042,-0.027874408484868135,1.5445272271323702,-3.0712457131047635
2.3265488147735596,-0.9866119027137756,0.6219149231910706,-0.022649109363555908,3.809767961502075,0.49260035157203674,2.734058380126953,0.0010348153764776118,1.5477741032054566,-3.1054604112383988
2.3366200923919678,-1.0313920974731445,0.6441017985343933,-0.05632120370864868,4.275943279266357,0.6995628476142883,2.620023250579834,0.02864248899381327,1.5544022341295838,3.1376431819183606
2.3465709686279297,-1.07974374294281,0.5910568237304688,-0.05328589677810669,4.523394584655762,0.8889299035072327,2.5097081661224365,0.054829425405287895,1.5641817514369838,3.0936918485575866
2.3565380573272705,-1.126389741897583,0.5258572697639465,-0.02405571937561035,4.508378028869629,1.0971992015838623,2.399291753768921,0.07942283654946335,1.5771722522913878,3.04828449399827
2.366637945175171,-1.14900541305542,0.48994141817092896,-0.028200984001159668,4.332614898681641,1.3478108644485474,2.314676523208618,0.10234841525042587,1.5935184497095443,3.003358120314092
2.3766469955444336,-1.1221442222595215,0.4795583486557007,-0.051224708557128906,4.030263900756836,1.5450904369354248,2.2467243671417236,0.1238106242322047,1.6128492702695103,2.96054833895471
2.386835813522339,-1.0154216289520264,0.5173769593238831,-0.08764148503541946,3.8350765705108643,1.680266261100769,2.2699649333953857,0.14425000752475917,1.63453032318325,2.9197427948206722
2.3972737789154053,-0.8159469366073608,0.5995414853096008,-0.14064240455627441,3.8129045963287354,1.7237279415130615,2.3348309993743896,0.16438299000802986,1.6578192874645679,2.8794729213490875
2.4070188999176025,-0.5239399075508118,0.7597066760063171,-0.2271941751241684,3.9912352561950684,1.6470866203308105,2.3466124534606934,0.18388272725353594,1.6820342810852358,2.8377187323689
2.4168808460235596,-0.15291732549667358,0.9390634298324585,-0.3052722215652466,4.198361873626709,1.3763751983642578,2.2833967208862305,0.20189155542365,1.7058117339779817,2.79338049190231
2.4270718097686768,0.3017338514328003,1.0842658281326294,-0.3213539123535156,4.404726028442383,0.9710761308670044,2.1539833545684814,0.21766394461492758,1.7274025400175286,2.7464864089172734
2.437196969985962,0.8137935400009155,1.1795423030853271,-0.2640281915664673,4.484497547149658,0.34440022706985474,1.878549575805664,0.23029385967346258,1.7449887760414524,2.6978121424195813
2.447009801864624,1.3016083240509033,1.1906509399414062,-0.17226339876651764,4.000476360321045,-0.5086365342140198,1.342246174812317,0.23868729018172305,1.755079397780981,2.651481076143173
2.4569828510284424,1.6068098545074463,1.119787573814392,0.047630295157432556,2.925734519958496,-1.4552513360977173,0.675757884979248,0.2421263084639815,1.7542141589843334,2.6140121518339505
2.4671289920806885,1.701585292816162,0.9306989908218384,0.35867762565612793,1.0674598217010498,-2.3134279251098633,-0.04768909886479378,0.2416530545018267,1.7403873530998177,2.5925919458869133
2.477383852005005,1.6505649089813232,0.6804127097129822,0.6284449100494385,-1.4824010133743286,-3.078768014907837,-0.862055778503418,0.23746294581721875,1.7123785966906406,2.595313305614158
2.487185001373291,1.539790391921997,0.5213244557380676,0.8373184204101562,-3.87800931930542,-3.3928074836730957,-1.6823278665542603,0.22800684540370258,1.6730662056041319,2.6244666821122866
2.497174024581909,1.4601023197174072,0.4432460069656372,0.8571068048477173,-5.76970100402832,-3.2822072505950928,-2.5095839500427246,0.21087283433868279,1.6282002237041773,2.67594503574963
2.5070459842681885,1.3844419717788696,0.4631789028644562,0.6760631799697876,-6.949460506439209,-2.92708158493042,-3.2167909145355225,0.1843289978749645,1.5839520662835844,2.7422885913165977
2.516960859298706,1.3589938879013062,0.5484844446182251,0.44780176877975464,-7.482837200164795,-2.336310386657715,-3.920457124710083,0.1480542754893143,1.5453054081962108,2.8156661388157973
2.5270469188690186,1.3868052959442139,0.6174601316452026,0.30229103565216064,-7.525853157043457,-1.5631883144378662,-4.578017234802246,0.10238015213605663,1.51637812204779,2.8898445535797035
2.5370748043060303,1.3692688941955566,0.6054158210754395,0.20162874460220337,-7.167632102966309,-0.6394407749176025,-5.154210567474365,0.0488709372510704,1.4999597795799156,2.9605970551471246
2.546998977661133,1.315303087234497,0.5252562761306763,0.13362425565719604,-6.507075786590576,0.3313789367675781,-5.559979438781738,-0.009869632620984406,1.497176121231008,3.025188944658076
2.5571720600128174,1.2589219808578491,0.42140859365463257,0.08427697420120239,-5.4916839599609375,1.2668789625167847,-5.8303704261779785,-0.07138886549759385,1.5077713485727382,3.081450526502077
2.567073106765747,1.189582109451294,0.37210512161254883,0.03335976600646973,-4.1754469871521,1.9969818592071533,-5.92816686630249,-0.13344808437412373,1.5293509213093166,3.1271280086133637
2.5770890712738037,1.127493143081665,0.38332539796829224,-0.01809138059616089,-2.7120845317840576,2.55041241645813,-6.018507957458496,-0.19435773431875555,1.5577427792022336,-3.1227250938553786
2.5871009826660156,1.0927597284317017,0.4252912998199463,-0.03450775146484375,-1.207454800605774,2.9155569076538086,-6.0774312019348145,-0.2549677550334064,1.5897752481200254,-3.1024501736752446
2.5971438884735107,1.0527369976043701,0.40967875719070435,-0.05654274672269821,0.11245796829462051,3.105816125869751,-6.1442413330078125,-0.3159978136522523,1.6222003315120566,-3.094677856432817
2.607179880142212,1.0042777061462402,0.3510839343070984,-0.09667718410491943,1.13394296169281,3.1941258907318115,-6.265819549560547,-0.3784185563907167,1.6530056636755162,-3.0970609007107606
2.617238998413086,0.9670082926750183,0.3120901584625244,-0.12404870986938477,1.9401323795318604,3.209372043609619,-6.439822673797607,-0.44331651389292537,1.6810971107876258,-3.107173587388067
2.627189874649048,0.9401372075080872,0.2508104145526886,-0.14280641078948975,2.536431074142456,3.105442762374878,-6.581821918487549,-0.510764360220741,1.7053235811254843,-3.123423919707477
2.6374189853668213,0.920383870601654,0.14384794235229492,-0.15935291349887848,2.8664939403533936,2.9313621520996094,-6.870405197143555,-0.5812680937882768,1.725141025268757,3.1396153460345166
2.6472461223602295,0.9033337831497192,0.03492450714111328,-0.14365361630916595,2.946366548538208,2.6845016479492188,-7.207569599151611,-0.6556030967779032,1.7409257567247487,3.1182401847849124
2.6571719646453857,0.8765878677368164,-0.12591999769210815,-0.1257416158914566,2.83868408203125,2.404230833053589,-7.528326988220215,-0.7333289212474751,1.7534621821716132,3.097962066100375
2.668718099594116,0.8844922780990601,-0.29076051712036133,-0.11037538945674896,2.6861257553100586,2.08414626121521,-7.843852519989014,-0.8141342840730613,1.7634622035253626,3.0800353801306524
2.6772329807281494,0.9224543571472168,-0.4164627194404602,-0.11526870727539062,2.452592372894287,1.7259013652801514,-8.041045188903809,-0.8972602256863776,1.7713454640712258,3.0652075140593937
2.687371015548706,0.9807584285736084,-0.47942960262298584,-0.13366687297821045,2.2009856700897217,1.4330673217773438,-8.210494995117188,-0.9816300393887774,1.7787098683628626,3.0547415863279093
2.69744610786438,1.0706226825714111,-0.4949367046356201,-0.12717781960964203,2.0777697563171387,1.0866446495056152,-8.303189277648926,-1.0670515089013426,1.7856195300652122,3.0479477497881993
2.7076079845428467,1.1850563287734985,-0.6110121011734009,-0.09907817095518112,1.9396090507507324,0.6790054440498352,-8.354507446289062,-1.1528258293362939,1.7911801686135158,3.044283572425101
2.718794107437134,1.3256361484527588,-0.7382107377052307,-0.03089667111635208,1.863952398300171,0.3017185926437378,-8.4157075881958,-1.238943868562161,1.7964328819287465,3.044650338720312
2.727565050125122,1.443900227546692,-0.8210477232933044,0.04936658591032028,1.9198709726333618,-0.10335264354944229,-8.352859497070312,-1.3250592416234348,1.7993198714925351,3.046590859110974
2.7375969886779785,1.5607056617736816,-0.9241034388542175,0.10244059562683105,2.030522584915161,-0.5231859087944031,-8.253300666809082,-1.4105210539138122,1.7926597349650482,3.0429853797504602
2.7475509643554688,1.688936710357666,-1.0067765712738037,0.15705955028533936,2.0726218223571777,-0.9146980047225952,-8.185622215270996,-1.49526017161354,1.7564526543742924,3.0138718393190294
2.757520914077759,1.7995798587799072,-1.0603563785552979,0.22525739669799805,2.0879428386688232,-1.2461730241775513,-8.104470252990723,-1.5604942615937882,-0.7914786509373598,0.47657162184932184
2.768789052963257,1.9006456136703491,-1.1379315853118896,0.27409082651138306,1.9986294507980347,-1.534859538078308,-7.948241233825684,-1.4787372787152266,-1.2719495234747171,0.009841729752574491
2.7775790691375732,1.9956905841827393,-1.2401840686798096,0.30327868461608887,1.7667864561080933,-1.7221593856811523,-7.742602348327637,-1.3979718078287382,-1.3137006086312026,-0.01573267065797218
2.787666082382202,2.062805652618408,-1.3310084342956543,0.33802103996276855,1.4343674182891846,-1.818327784538269,-7.455800533294678,-1.320200756061465,-1.3438602527375612,-0.02843273988218132
2.797743082046509,2.067852735519409,-1.417923927307129,0.3536677956581116,1.0403783321380615,-1.9287043809890747,-7.084600925445557,-1.2464101711964743,-1.3734761109834746,-0.03977419284104222
2.807663917541504,1.9768468141555786,-1.5105834007263184,0.34603190422058105,0.6513863801956177,-2.033318281173706,-6.617300510406494,-1.177468917193208,-1.404629585021154,-0.05181445662396656
2.8189709186553955,1.7922745943069458,-1.6179487705230713,0.3423241972923279,0.3917252719402313,-2.1346304416656494,-6.040816307067871,-1.1142524471443487,-1.4355159164260465,-0.06274793465246908
2.827619791030884,1.5349583625793457,-1.7204551696777344,0.2785717844963074,0.1550992727279663,-2.2580628395080566,-5.558609485626221,-1.0563622156848156,-1.4658338480470943,-0.0721018750039476
2.837744951248169,1.1897059679031372,-1.8089410066604614,0.17808979749679565,-0.06008494645357132,-2.3141281604766846,-4.922490119934082,-1.0038559426509228,-1.4958527411013676,-0.08036914305319512
2.847698926925659,0.79082190990448,-1.9058341979980469,0.05704176425933838,-0.43313315510749817,-2.2624361515045166,-3.675841808319092,-0.9606447309781448,-1.526222261886926,-0.08920914580639047
2.8577919006347656,0.4242127537727356,-1.8679289817810059,-0.07323265075683594,-1.0328269004821777,-1.9598439931869507,-1.9390851259231567,-0.9325216512046206,-1.5587181130300907,-0.10317046736360228
2.8687961101531982,0.13200408220291138,-1.5941662788391113,-0.14961421489715576,-1.5774301290512085,-1.6242173910140991,0.13628078997135162,-0.9233001722619222,-1.5941002215921576,-0.12500437298405823
2.877742052078247,-0.05080527067184448,-1.208935022354126,-0.21804463863372803,-1.7383042573928833,-1.3577888011932373,2.143524646759033,-0.9341670236077017,-1.6324310407193912,-0.15431462819694636
2.887917995452881,-0.11993217468261719,-0.9872158765792847,-0.2490917444229126,-1.485797643661499,-1.2574690580368042,3.8388662338256836,-0.9629236017141727,-1.671328448948439,-0.18624103198276445
2.897834062576294,-0.15344268083572388,-1.2021788358688354,-0.33509278297424316,-1.2667829990386963,-1.2840498685836792,5.169305801391602,-1.0063107943487137,-1.7127321550120729,-0.22075920902933724
2.907871961593628,-0.1633417010307312,-1.377995252609253,-0.3639495372772217,-1.0362741947174072,-1.3573718070983887,6.14862060546875,-1.060393843141639,-1.7609320446443724,-0.26147619291558066
2.9188249111175537,-0.14750012755393982,-1.2333015203475952,-0.3535245954990387,-0.6286205649375916,-1.450836181640625,6.975944519042969,-1.1227276946119615,-1.8183375631523035,-0.31036481581574155
2.927992105484009,-0.06825536489486694,-0.9913324117660522,-0.3409179449081421,-0.11896167695522308,-1.600816249847412,7.739907264709473,-1.192569078984894,-1.8887372339985045,-0.3705525835126549
2.9382150173187256,0.06530401110649109,-0.7430340051651001,-0.23661579191684723,0.2925366759300232,-1.6203891038894653,8.125319480895996,-1.2676394566631182,-1.9830357865721153,-0.4531604929110392
2.9479799270629883,0.1900268793106079,-0.5004338026046753,-0.09985780715942383,0.6002241373062134,-2.059311628341675,8.316302299499512,-1.34222226710401,-2.1268502753087573,-0.5835296121172101
2.9581000804901123,0.26849523186683655,-0.40492498874664307,-0.02454458177089691,0.8211075067520142,-2.5000598430633545,8.777228355407715,-1.4135253216519081,-2.402673948100741,-0.8409858432721551
2.9692089557647705,0.3846808671951294,-0.4371660351753235,0.052157893776893616,0.4947976768016815,-2.497102737426758,8.836852073669434,-1.4591713703867044,-3.0063339103711,-1.424079003992563
2.97820782661438,0.40905171632766724,-0.6379007697105408,0.018489480018615723,-0.17657193541526794,-2.125971794128418,8.866593360900879,-1.4386335981043463,2.532309820093046,-2.1502180913197124
2.988142967224121,0.42016756534576416,-0.8187119364738464,-0.07238899171352386,-1.1374808549880981,-1.9922664165496826,8.909101486206055,-1.369607623441451,2.1650996176123662,-2.501617409972248
2.9981179237365723,0.5675144195556641,-0.7124728560447693,-0.06541252136230469,-1.969993233680725,-2.128011465072632,8.593805313110352,-1.2854299358955517,2.0231575520844425,-2.626524993505516
3.008098840713501,0.7778482437133789,-0.3805895447731018,0.10267341136932373,-2.237740993499756,-2.4650189876556396,8.224532127380371,-1.1998825007796647,1.9565653037333994,-2.67260965805568
3.0190560817718506,0.9083102941513062,-0.16064077615737915,0.208075150847435,-2.4815220832824707,-2.770653009414673,7.922309398651123,-1.1160158924046066,1.9146044497963568,-2.68959951850977
3.02817702293396,0.9169743061065674,-0.04457235336303711,0.20678569376468658,-2.7751388549804688,-2.847698926925659,7.732302188873291,-1.0333932897832854,1.8855542459369998,-2.6904946786600843
3.0382888317108154,0.8383884429931641,0.10922527313232422,0.13637256622314453,-2.988152503967285,-2.841189384460449,7.5393805503845215,-0.9517549858057315,1.8643006520394312,-2.681825566293867
3.0482358932495117,0.7746265530586243,0.296550989151001,0.041573747992515564,-3.071660041809082,-2.7524044513702393,7.355932235717773,-0.8716622645928424,1.8467735499207867,-2.6684404347380495
3.0583608150482178,0.7148001790046692,0.37972819805145264,-0.054415956139564514,-3.085766077041626,-2.5306453704833984,7.204973220825195,-0.7932011153625123,1.831790797609181,-2.6528714470753147
3.0692150592803955,0.608944833278656,0.34545648097991943,-0.14568983018398285,-2.931706190109253,-2.2969110012054443,7.083904266357422,-0.7163472406918922,1.8182558006362743,-2.637386095823493
3.0783488750457764,0.49989503622055054,0.30931442975997925,-0.19060015678405762,-2.6913721561431885,-2.094268321990967,6.89243221282959,-0.6415983964076063,1.8048584947560982,-2.6237548505723884
3.0883119106292725,0.4187333583831787,0.31911736726760864,-0.185054212808609,-2.485354423522949,-1.868625521659851,6.566582679748535,-0.5700542488908903,1.791973350614513,-2.6114844550200687
3.0983428955078125,0.3203052282333374,0.3092806041240692,-0.14265456795692444,-2.1903979778289795,-1.6265777349472046,6.239352703094482,-0.5024071044540137,1.779970805758114,-2.6007715013796577
3.10827898979187,0.20191919803619385,0.22829797863960266,-0.09962677955627441,-1.8304691314697266,-1.4235329627990723,5.9110941886901855,-0.4387337393825697,1.7685315926304541,-2.5923699915041123
3.1192080974578857,0.09322857856750488,0.1816643476486206,-0.07031644880771637,-1.4057124853134155,-1.2341567277908325,5.55427885055542,-0.37925741920917005,1.7573974140147728,-2.5869563983037724
3.128861904144287,0.0019113421440124512,0.23966360092163086,-0.06687891483306885,-0.9055258631706238,-1.0626487731933594,5.22115421295166,-0.32411752427044577,1.7465442941017733,-2.585129199090131
3.1384479999542236,-0.061238110065460205,0.35743746161460876,-0.08820751309394836,-0.29489949345588684,-0.8909912705421448,4.9471659660339355,-0.2729374983522322,1.735953922889246,-2.5878912966464838
3.148364782333374,-0.09531879425048828,0.49289470911026,-0.11521674692630768,0.4123120903968811,-0.7290671467781067,4.70427131652832,-0.22531544694479474,1.7257827185339103,-2.5963583233386194
3.1584088802337646,-0.1241254210472107,0.6212823390960693,-0.1442495435476303,1.189176321029663,-0.574073314666748,4.469760417938232,-0.18109746680465683,1.7162346589796287,-2.6114711325052085
3.1695199012756348,-0.1582927703857422,0.7220537662506104,-0.17357802391052246,1.9172978401184082,-0.40792930126190186,4.197684288024902,-0.14028326036826888,1.707830159005286,-2.633297779023049
3.1783759593963623,-0.19069373607635498,0.7982393503189087,-0.18791888654232025,2.515566349029541,-0.27386364340782166,3.876711368560791,-0.10314273503455448,1.7010735281102505,-2.661014301439353
3.1885199546813965,-0.20404601097106934,0.823915421962738,-0.1634981483221054,2.9082562923431396,-0.14014147222042084,3.525618314743042,-0.06986387333512196,1.696247768387747,-2.6929258272524184
3.198582887649536,-0.19509387016296387,0.7907294631004333,-0.08788523077964783,3.1148393154144287,-0.02520635724067688,3.171529769897461,-0.04032085650885825,1.693589899190535,-2.7271518674945683
3.2086689472198486,-0.1318495273590088,0.7160429954528809,0.021010279655456543,3.1396777629852295,-0.0010013291612267494,2.8058955669403076,-0.014456736098376161,1.6925710040762474,-2.762003665306755
3.2194740772247314,0.03968513011932373,0.6252472996711731,0.14644598960876465,3.042250633239746,-0.0491185262799263,2.4713211059570312,0.007983631886863152,1.6922462121300763,-2.7959579348245933
3.228724956512451,0.32699054479599,0.5485514998435974,0.27008676528930664,2.870847225189209,-0.22734792530536652,2.1634907722473145,0.027467365017210938,1.6915360747486274,-2.828223321062708
3.23865008354187,0.710777997970581,0.49065935611724854,0.3806445598602295,2.5715768337249756,-0.5304228663444519,1.7838114500045776,0.04385034792098373,1.688830101401854,-2.8577243056692003
3.248586893081665,1.1294927597045898,0.4517410695552826,0.4865543842315674,2.147151231765747,-0.8012791872024536,1.4462367296218872,0.05716470859908231,1.6834032369085914,-2.8831923875777354
3.2586779594421387,1.461456298828125,0.4115256667137146,0.5668630599975586,1.5119142532348633,-0.9964950680732727,1.1242485046386719,0.06795007088997829,1.6756008401129427,-2.902949616244732
3.2694480419158936,1.594454050064087,0.38149958848953247,0.6013718843460083,0.7404642701148987,-1.125697374343872,0.8065328001976013,0.07644406719270493,1.6658132973114506,-2.915230821059289
3.2787139415740967,1.580085039138794,0.3626827299594879,0.6097556352615356,-0.07519588619470596,-1.2095438241958618,0.4783453345298767,0.08257946250390298,1.654400793913253,-2.919146831238478
3.288662910461426,1.5011472702026367,0.359256774187088,0.6047536134719849,-0.8758805990219116,-1.224176287651062,0.07378315925598145,0.08575656954622352,1.6417628395630468,-2.9145636183329544
3.2987329959869385,1.3604869842529297,0.3647981882095337,0.5891648530960083,-1.5844212770462036,-1.1170485019683838,-0.3895970284938812,0.08500863817902211,1.6289078359039253,-2.9020396970619946
3.308734893798828,1.167137861251831,0.35098809003829956,0.5464082956314087,-2.1388869285583496,-0.9144063591957092,-0.8464822769165039,0.07978676542653666,1.6171119995871488,-2.882959034826996
3.319730043411255,1.0158782005310059,0.3119085431098938,0.46633434295654297,-2.5173604488372803,-0.6151285767555237,-1.2582266330718994,0.07017542649124198,1.6076129092341476,-2.859008883908734
3.328933000564575,0.9207772612571716,0.27387696504592896,0.36377084255218506,-2.7040162086486816,-0.2823961079120636,-1.6060118675231934,0.056713816073812894,1.6014279168880592,-2.832270133018169
3.3388750553131104,0.8084135055541992,0.28690624237060547,0.2517256736755371,-2.6807963848114014,0.08360770344734192,-1.9135454893112183,0.03981597519630137,1.5991112290889011,-2.8046406959266
3.348870038986206,0.6925665736198425,0.3288399279117584,0.16152501106262207,-2.5490400791168213,0.4137592315673828,-2.1313316822052,0.020323934983808314,1.60081064644425,-2.777823026768608
3.358894109725952,0.6073670983314514,0.3623444437980652,0.10215198993682861,-2.3021492958068848,0.7306810021400452,-2.296731472015381,-0.0010893332781866348,1.6063321767230054,-2.7527541274487057
3.369605779647827,0.533376157283783,0.39157402515411377,0.07638168334960938,-1.905294418334961,0.9897322654724121,-2.4018778800964355,-0.023787634687034116,1.6152765324910794,-2.7306703289747287
3.378774881362915,0.4397343397140503,0.4028323292732239,0.055860526859760284,-1.3759578466415405,1.1751569509506226,-2.4900522232055664,-0.047426485812302056,1.626829537642366,-2.7129809871368025
3.3887529373168945,0.3325768709182739,0.40774768590927124,0.04285240173339844,-0.7776627540588379,1.3095823526382446,-2.610109329223633,-0.07224979632180059,1.6400729043012277,-2.7005782491862624
3.3988020420074463,0.2199639081954956,0.3994809091091156,0.01693248748779297,-0.16651254892349243,1.4164584875106812,-2.7460219860076904,-0.09868021453683476,1.6543889915914587,-2.693774830946812
3.408883810043335,0.11045122146606445,0.36953631043434143,-0.028030142188072205,0.4230295717716217,1.5030421018600464,-2.9184272289276123,-0.12709768516427125,1.6692672470397698,-2.6924902782427194
3.419766902923584,0.015266120433807373,0.3383011221885681,-0.09165047109127045,0.950036346912384,1.5688512325286865,-3.117241382598877,-0.15799128544032687,1.684272810180555,-2.6961959106543714
3.42887282371521,-0.06147456169128418,0.3194834887981415,-0.16665399074554443,1.4111562967300415,1.6475226879119873,-3.3627467155456543,-0.19176035413390394,1.6991172451211214,-2.704148821211111
3.439030885696411,-0.12358754873275757,0.3096957206726074,-0.24138665199279785,1.795758843421936,1.6993962526321411,-3.6532864570617676,-0.22885682378576724,1.7136113706226417,-2.7155862050336914
3.449058771133423,-0.15948528051376343,0.2785505950450897,-0.3183330297470093,2.0875649452209473,1.7016311883926392,-3.9906539916992188,-0.2697054964623783,1.727280062553849,-2.7295933798584726
3.4595999717712402,-0.16126090288162231,0.21909546852111816,-0.36981725692749023,2.2987043857574463,1.6496663093566895,-4.324385166168213,-0.31445800367075943,1.7396164008046682,-2.7452299533668816
3.469722032546997,-0.13441359996795654,0.15504547953605652,-0.3895705044269562,2.3838272094726562,1.5650743246078491,-4.659497261047363,-0.36289210945337647,1.75035078968256,-2.76149991395901
3.479275941848755,-0.08516865968704224,0.10916617512702942,-0.3870368003845215,2.4317033290863037,1.439646601676941,-5.01051664352417,-0.41497057279623806,1.759374778838706,-2.777525735363063
3.4892518520355225,-0.018282294273376465,0.07001769542694092,-0.3580120801925659,2.497546672821045,1.2251112461090088,-5.312108993530273,-0.4705129000330188,1.7660040758093236,-2.793387727548379
3.4993770122528076,0.08419346809387207,0.021739661693572998,-0.317022442817688,2.5263819694519043,0.9217566847801208,-5.615009784698486,-0.5291094991574818,1.769133816095617,-2.8093540541935775
3.5093109607696533,0.21337532997131348,-0.0015230178833007812,-0.27067625522613525,2.572587728500366,0.5983343124389648,-5.970231056213379,-0.5910678913866225,1.7682461258489324,-2.825333210221167
3.5197019577026367,0.33253180980682373,-0.04019308090209961,-0.2327788919210434,2.687333583831787,0.28774288296699524,-6.1841020584106445,-0.6560440041679799,1.7624964724466703,-2.842687092183079
3.5291388034820557,0.4243582487106323,-0.1494508981704712,-0.23479270935058594,2.7424824237823486,0.001288057304918766,-6.298428058624268,-0.7225802295815228,1.751386419418843,-2.8623578078841354
3.539461851119995,0.5081225037574768,-0.21384167671203613,-0.24243474006652832,2.8066823482513428,-0.3093092441558838,-6.471706867218018,-0.7903820879840299,1.7342716254075985,-2.8850410396319393
3.5492098331451416,0.5987474918365479,-0.22239649295806885,-0.20835506916046143,2.84501314163208,-0.6862197518348694,-6.689285755157471,-0.8598833980922931,1.709458958638904,-2.9118901506052826
3.5594449043273926,0.7058890461921692,-0.28920596837997437,-0.14952516555786133,2.757169008255005,-1.0451040267944336,-6.829069137573242,-0.9307007639743925,1.6758952426571732,-2.943601852721443
3.5698277950286865,0.8338592648506165,-0.38721901178359985,-0.11517786979675293,2.636336088180542,-1.350396752357483,-6.889636039733887,-1.001502791681811,1.63292341266965,-2.981042353020999
3.5794570446014404,0.9558488130569458,-0.4790290594100952,-0.08248603343963623,2.3923728466033936,-1.6328396797180176,-6.836132049560547,-1.0711276291700977,1.579166537987026,-3.0260636333356135
3.5893399715423584,1.0582106113433838,-0.5655336380004883,-0.04797506332397461,1.9642952680587769,-1.864034652709961,-6.786283493041992,-1.1387816981527732,1.5148675041194493,-3.078372234679821
3.599395990371704,1.1953628063201904,-0.5982374548912048,0.01563120260834694,1.594291090965271,-2.1033365726470947,-6.5483479499816895,-1.2037226980631952,1.4379485386422595,-3.140271482214536
3.6094810962677,1.3390978574752808,-0.708636999130249,0.10567879676818848,1.0704976320266724,-2.403785467147827,-6.077743053436279,-1.2634641676922351,1.3453052398560148,3.0686841617319933
3.6198339462280273,1.4309523105621338,-0.838310956954956,0.22257375717163086,0.3437342047691345,-2.70802640914917,-5.625269889831543,-1.3174214902552588,1.2393705977765321,2.985091895900818
3.629427909851074,1.4153783321380615,-0.8545271158218384,0.3697448968887329,-0.42619118094444275,-3.0802645683288574,-5.117947101593018,-1.367418750216012,1.1247382328038242,2.89714248669738
3.6394808292388916,1.2992463111877441,-0.8362703919410706,0.510779082775116,-1.11429762840271,-3.3785228729248047,-4.406482696533203,-1.4129068508444704,1.0020929792994304,2.805402615514662
3.6494457721710205,1.1389915943145752,-0.8540793061256409,0.6040757894515991,-1.8932287693023682,-3.5491080284118652,-3.6227176189422607,-1.4541905166206888,0.884825757521187,2.7221449460163902
3.6594808101654053,0.962385356426239,-0.7894067764282227,0.6415165066719055,-2.5844545364379883,-3.5623459815979004,-3.0152969360351562,-1.493947140886945,0.7944916188183,2.667253480820122
3.6699979305267334,0.7601902484893799,-0.6732463240623474,0.6256778240203857,-3.0640246868133545,-3.4327244758605957,-2.407360553741455,-1.533279289913275,0.7738274435783193,2.6817278334164656
3.6798319816589355,0.549876868724823,-0.6577068567276001,0.49410486221313477,-3.3130621910095215,-3.1307175159454346,-1.7883498668670654,-1.5640215387675964,2.332586061436255,-2.0097093435610573
3.6896159648895264,0.39285773038864136,-0.6754303574562073,0.29327964782714844,-3.349175214767456,-2.740851402282715,-1.229127287864685,-1.5313461260625116,-2.8980550446742974,-0.9275755516248171
3.6996679306030273,0.2838538587093353,-0.6810228824615479,0.1002337858080864,-3.186302661895752,-2.3328752517700195,-0.6663637757301331,-1.497184544753475,-2.900112679756065,-0.9041989702782666
3.709709882736206,0.23812460899353027,-0.6610885262489319,-0.040158867835998535,-2.83817458152771,-1.9309858083724976,-0.06920328736305237,-1.4668270229963658,-2.953661095005906,-0.9365481202648077
3.7198328971862793,0.2423168569803238,-0.621249794960022,-0.14198099076747894,-2.330307960510254,-1.5352027416229248,0.5605248808860779,-1.4415332166715809,-3.0252703438070334,-0.9911851226652494
3.729707956314087,0.2385035753250122,-0.5813199877738953,-0.2225191742181778,-1.721662998199463,-1.1493479013442993,1.1844375133514404,-1.4218509260747656,-3.111916618864654,-1.0651238486461598
3.7396938800811768,0.21050041913986206,-0.5495816469192505,-0.2827267646789551,-0.9889328479766846,-0.7764363288879395,1.7723785638809204,-1.407897408166848,3.069210659476851,-1.158717963628313
3.7495601177215576,0.16008763015270233,-0.5742810368537903,-0.32896995544433594,-0.25095048546791077,-0.4987286329269409,2.3781487941741943,-1.3989846177322542,2.945735254565098,-1.2775462624841816
3.7597479820251465,0.1059328243136406,-0.639541506767273,-0.34239065647125244,0.34895214438438416,-0.21126703917980194,2.897728681564331,-1.392406935431852,2.7966215076250696,-1.4252997869742743
3.7706658840179443,0.08243119716644287,-0.6321892738342285,-0.30017876625061035,0.9465978741645813,0.06290552765130997,3.3399198055267334,-1.385254224393003,2.6266893797320643,-1.5975229201630416
3.779683828353882,0.07407020032405853,-0.5290015935897827,-0.20988033711910248,1.4863529205322266,0.1204758733510971,3.7033512592315674,-1.375067240165254,2.4408998900922874,-1.7877438812213748
3.7897539138793945,0.07671740651130676,-0.35609138011932373,-0.10333025455474854,1.9376294612884521,0.1124342828989029,3.9164743423461914,-1.3597431583031299,2.252206795567213,-1.9815269384286145
3.7999207973480225,0.08118638396263123,-0.23439937829971313,-0.010437235236167908,2.2182209491729736,0.14612433314323425,4.052357196807861,-1.3382939958144133,2.0771835634387976,-2.162232776115022
3.8099429607391357,0.005790501832962036,-0.276597261428833,0.03630887717008591,2.2555060386657715,0.2112797200679779,4.122147560119629,-1.3104253243017445,1.9290277805370835,-2.316778597324979
3.819973945617676,-0.09633961319923401,-0.37748193740844727,0.03965044021606445,2.0641555786132812,0.33225274085998535,4.101639747619629,-1.277463478404202,1.815534709588062,-2.4375330935214885
3.8298919200897217,-0.16762763261795044,-0.47601258754730225,0.029278632253408432,1.732724666595459,0.4671631455421448,4.087799549102783,-1.2411796752096937,1.7355080234803615,-2.5257624826078358
3.8400847911834717,-0.2122468650341034,-0.5684076547622681,0.019670840352773666,1.2223637104034424,0.6222927570343018,4.075127601623535,-1.20274915100275,1.684652289252801,-2.5856195500807786
3.8500959873199463,-0.2582404315471649,-0.6308658123016357,0.014230608940124512,0.6005176901817322,0.7933719158172607,4.078692436218262,-1.1630992055043503,1.6593250436299247,-2.620633707232804
3.8600618839263916,-0.30312177538871765,-0.6743606328964233,0.020265579223632812,-0.00981944426894188,0.9147455096244812,4.131075382232666,-1.122384763802682,1.6537746699382903,-2.6361641401239573
3.869966983795166,-0.32584136724472046,-0.7049789428710938,0.02185928449034691,-0.5418591499328613,0.9813916683197021,4.164893627166748,-1.0807293346734022,1.6617397795076663,-2.6378763002780734
3.8803160190582275,-0.3386005759239197,-0.7069433331489563,0.02663123607635498,-0.9145216345787048,0.9876604676246643,4.201574802398682,-1.0383061503366842,1.6773872833206436,-2.6312944194581123
3.8902738094329834,-0.3466547131538391,-0.6802539229393005,0.019950270652770996,-1.1014704704284668,0.926362931728363,4.226164817810059,-0.9952022786039315,1.695513154811305,-2.621272832875599
3.900347948074341,-0.34942275285720825,-0.626944363117218,-0.002926953136920929,-1.1322896480560303,0.8561952710151672,4.244132041931152,-0.9516657550903507,1.712567360773961,-2.6114328957429014
3.910823106765747,-0.3627045154571533,-0.5630858540534973,-0.040838368237018585,-1.0479964017868042,0.8091081976890564,4.263033390045166,-0.9079015249389247,1.7269534601774155,-2.603863933682329
3.9201319217681885,-0.38660764694213867,-0.4926419258117676,-0.08984947204589844,-0.8846468329429626,0.7997090816497803,4.283538341522217,-0.8640982782252842,1.7382924490578815,-2.599604075967108
3.93037486076355,-0.41192448139190674,-0.4336497187614441,-0.13903534412384033,-0.6641458868980408,0.8084018230438232,4.297329425811768,-0.8204317090679197,1.7466838291096003,-2.599134133267865
3.9403960704803467,-0.42839479446411133,-0.3893939256668091,-0.18922710418701172,-0.4208040237426758,0.8497122526168823,4.301457405090332,-0.7770895055959894,1.752605671627387,-2.602431663817705
3.9503490924835205,-0.4566711187362671,-0.35719364881515503,-0.22450211644172668,-0.17105960845947266,0.9011079668998718,4.278494358062744,-0.7342893740056522,1.7567246065837767,-2.6092354606501154
3.9604008197784424,-0.490469753742218,-0.34045714139938354,-0.23718369007110596,0.10847349464893341,0.9448509216308594,4.226754188537598,-0.6923784915243714,1.7594055457368731,-2.6192888297472505
3.9705698490142822,-0.5163000226020813,-0.3333934545516968,-0.22678889334201813,0.39037275314331055,0.9758757948875427,4.1679534912109375,-0.6515683752096894,1.7607853358274455,-2.632532723069983
3.9802658557891846,-0.5264045596122742,-0.32442599534988403,-0.2127266228199005,0.6358866691589355,1.0174005031585693,4.1213459968566895,-0.6117907724918947,1.761311760613085,-2.648527807119488
3.9902050495147705,-0.5074424147605896,-0.29471641778945923,-0.20402933657169342,0.8316991329193115,1.0628241300582886,4.11960506439209,-0.5727247811563171,1.7615962390701934,-2.6666925500923715
4.000297784805298,-0.44694244861602783,-0.2632611393928528,-0.2035093456506729,0.9129276871681213,1.1072100400924683,4.203011512756348,-0.5335308915586513,1.7622285525622177,-2.686156314823474
4.010312795639038,-0.33144867420196533,-0.2276897430419922,-0.19505737721920013,0.8644787073135376,1.160685420036316,4.340055465698242,-0.4932876784616349,1.764004933784341,-2.7056434414368047
4.020241022109985,-0.1343168020248413,-0.1887253224849701,-0.16806042194366455,0.7097607851028442,1.199256181716919,4.56915283203125,-0.4511255408327938,1.7674688019207394,-2.7240666914068337
4.030375003814697,0.15469074249267578,-0.16362890601158142,-0.1279916614294052,0.4686417281627655,1.18255615234375,4.877732753753662,-0.4059493994471328,1.7724106379616411,-2.7407317631361843
4.040453910827637,0.49715906381607056,-0.1224333643913269,-0.04752457141876221,0.12492270767688751,1.13926362991333,5.159420967102051,-0.35731363633498,1.7788122042155774,-2.754929571810699
4.050585031509399,0.8307945728302002,-0.07071518898010254,0.0860191285610199,-0.21392831206321716,0.9753450155258179,5.449068546295166,-0.30530991919569,1.7858018979748227,-2.7662523662553835
4.060425043106079,1.161696195602417,-0.006335735321044922,0.25958770513534546,-0.47834688425064087,0.6173242926597595,5.753486156463623,-0.24976928642758797,1.7913543073136196,-2.7752581486791907
4.070359945297241,1.4348797798156738,0.0769578367471695,0.4576367139816284,-0.6675839424133301,0.200980082154274,5.946044445037842,-0.19124996001756986,1.7938105921406198,-2.7827265497212053
4.080275774002075,1.5746335983276367,0.19189241528511047,0.6214762926101685,-0.7345587015151978,-0.28070130944252014,6.000770092010498,-0.131268642066339,1.7924382889149806,-2.7890997839755616
4.090556859970093,1.6325292587280273,0.31090331077575684,0.7017964124679565,-0.5894190669059753,-0.7530816793441772,5.880753993988037,-0.07155819000630687,1.786562576172357,-2.7954255518647515
4.100296974182129,1.621214509010315,0.4088074266910553,0.7408410310745239,-0.1393163949251175,-1.042785882949829,5.478500843048096,-0.014960166301318209,1.7771023351034452,-2.803655407962045
4.110305070877075,1.4991800785064697,0.47715502977371216,0.6833227872848511,0.55335932970047,-1.2020418643951416,4.8316168785095215,0.03537473175084285,1.7659525508594862,-2.815908301577727
4.120266914367676,1.301793098449707,0.5101927518844604,0.549690842628479,1.267225742340088,-1.2374571561813354,4.049036502838135,0.07737818595587304,1.7546509369480043,-2.8333686114061
4.13034200668335,1.0710036754608154,0.46195873618125916,0.43779730796813965,1.7338078022003174,-1.1159038543701172,3.2498674392700195,0.11062177749272799,1.7448130857093922,-2.8549110132102657
4.140501976013184,0.8357325196266174,0.34283995628356934,0.3752857446670532,1.9472628831863403,-0.9108231067657471,2.4582786560058594,0.13565992118066342,1.7375256531652667,-2.8782562665729725
4.150431871414185,0.6746177673339844,0.21520856022834778,0.3588353395462036,1.8898718357086182,-0.683578372001648,1.674356460571289,0.1529070667522768,1.7328003809183117,-2.900966356834574
4.160399913787842,0.568757176399231,0.11900390684604645,0.37632614374160767,1.620010256767273,-0.4449348747730255,0.8946015238761902,0.1627822832883952,1.7302804461441452,-2.9207363880986845
4.1705029010772705,0.4657081961631775,0.05596578121185303,0.3956981897354126,1.1436059474945068,-0.17721857130527496,0.17354144155979156,0.16580965820722945,1.7295531146729568,-2.935579498680994
4.180638074874878,0.3450198173522949,0.013400152325630188,0.3874082565307617,0.5128085613250732,0.1514916718006134,-0.44091400504112244,0.16310932809670534,1.7307388476853454,-2.943684085301569
4.190723896026611,0.23898500204086304,-0.0019903182983398438,0.34298884868621826,-0.13379532098770142,0.45279085636138916,-0.907533586025238,0.15608292150669162,1.7339223840364748,-2.94443963805978
4.200656890869141,0.1917385458946228,0.0038346797227859497,0.27423012256622314,-0.6820096969604492,0.7245475053787231,-1.2947009801864624,0.14590768239392302,1.7389399692193606,-2.9384606954957992
4.210770845413208,0.15504419803619385,0.04312893748283386,0.20987941324710846,-1.1430989503860474,0.9964184761047363,-1.618289828300476,0.13305988196909818,1.7459350157523819,-2.926795360127476
4.222135782241821,0.08935487270355225,0.0934157520532608,0.1425933688879013,-1.5082879066467285,1.2650033235549927,-1.8431593179702759,0.11836546105075689,1.7552062179846777,-2.9104050956314507
4.230650901794434,0.018574237823486328,0.10469398647546768,0.08255136013031006,-1.7730165719985962,1.5349531173706055,-1.9565743207931519,0.1027844798337049,1.767051482143582,-2.8904938734669283
4.240704774856567,-0.05370068550109863,0.06259679049253464,0.030767828226089478,-1.879346251487732,1.7782174348831177,-1.984087347984314,0.0871517291438034,1.781576886040959,-2.8683679897826644
4.250662088394165,-0.12731146812438965,0.020168550312519073,-0.019521400332450867,-1.8331348896026611,1.9731929302215576,-1.9388483762741089,0.07203447343543334,1.798587496201954,-2.8458092795888277
4.260743856430054,-0.1898859739303589,0.020564090460538864,-0.06228625774383545,-1.675774335861206,2.149038076400757,-1.8757476806640625,0.05764441629053222,1.8178644498860363,-2.824161856504338
4.270864963531494,-0.21945858001708984,0.05489125847816467,-0.08678123354911804,-1.4759726524353027,2.210038900375366,-1.8169968128204346,0.04382747673236041,1.838761872312691,-2.804099351845304
4.280825853347778,-0.19890356063842773,0.07860257476568222,-0.08603012561798096,-1.2094619274139404,2.088752269744873,-1.716829776763916,0.030496407872170055,1.8597232185918577,-2.7862649888075177
4.290805101394653,-0.14683735370635986,0.095197893679142,-0.055428385734558105,-0.9391123056411743,1.8563220500946045,-1.615838885307312,0.017745277681668527,1.8792005580711797,-2.7710710521768136
4.300899982452393,-0.11725538969039917,0.10824627429246902,-0.019579440355300903,-0.668807327747345,1.589841604232788,-1.505937933921814,0.005432638160431605,1.8963158033459042,-2.7585407337588363
4.310797929763794,-0.13309216499328613,0.0971456989645958,0.013531535863876343,-0.40326619148254395,1.3000987768173218,-1.3907170295715332,-0.006507239381653286,1.91078448284532,-2.748714458414061
4.321120977401733,-0.17712730169296265,0.04321392625570297,0.030040860176086426,-0.17048276960849762,1.0172889232635498,-1.2426679134368896,-0.017959464962705812,1.9224657462572483,-2.7415985868729065
4.330856084823608,-0.22995561361312866,-0.04237794876098633,0.028194308280944824,-0.039776191115379333,0.7723881602287292,-1.0901317596435547,-0.028542045219836887,1.9315145784193777,-2.7365973370412466
4.341314077377319,-0.2786303758621216,-0.10258232057094574,0.022808074951171875,-0.003362526884302497,0.5853087902069092,-0.9300450086593628,-0.037924609087469516,1.9384140694862289,-2.7328447800142848
4.350977897644043,-0.3004416823387146,-0.12265752255916595,0.018616557121276855,-0.02882005088031292,0.3966985046863556,-0.7690505385398865,-0.045784412157609866,1.9435004844593553,-2.729643086283824
4.360994100570679,-0.2698093056678772,-0.1253960132598877,0.02353408932685852,-0.10364368557929993,0.153316468000412,-0.602382481098175,-0.05191769544780277,1.9464366329360208,-2.7265454318468
4.371315956115723,-0.2032967209815979,-0.1334766149520874,0.04130256175994873,-0.21375621855258942,-0.09425200521945953,-0.4329359531402588,-0.05614398714807301,1.9468969433481496,-2.7231739635539483
4.3809919357299805,-0.14670968055725098,-0.14046093821525574,0.0639142096042633,-0.33481794595718384,-0.28686246275901794,-0.26519009470939636,-0.05837122989778374,1.9451751523507688,-2.719323012920387
4.391035795211792,-0.12421542406082153,-0.13839828968048096,0.07200518250465393,-0.4378555119037628,-0.4322635531425476,-0.12111788243055344,-0.058720068388524144,1.9418145764522745,-2.715003401789417
4.401066064834595,-0.12221497297286987,-0.13061508536338806,0.07629778981208801,-0.5245690941810608,-0.5588265657424927,0.010179952718317509,-0.05748079413605048,1.937128022662369,-2.710296693684642
4.411129951477051,-0.11884480714797974,-0.12713271379470825,0.08202579617500305,-0.6105272173881531,-0.6622280478477478,0.1136494055390358,-0.05484876254358316,1.9312771958206156,-2.7052017375563073
4.421451807022095,-0.10734617710113525,-0.12442685663700104,0.09111347794532776,-0.6870587468147278,-0.7132315635681152,0.1948382705450058,-0.05108475934498967,1.924669582861139,-2.699630246902628
4.431092023849487,-0.0895342230796814,-0.11637484282255173,0.10672831535339355,-0.7155070304870605,-0.7604932188987732,0.24890097975730896,-0.046552116087533416,1.9175893097642,-2.693768602808427
4.441244840621948,-0.059033215045928955,-0.11623802036046982,0.121941477060318,-0.7258712649345398,-0.7983095645904541,0.2981231212615967,-0.04151233558604576,1.9100330959224494,-2.6878955104693634
4.4511449337005615,-0.029902279376983643,-0.12075068056583405,0.13778850436210632,-0.7167600989341736,-0.7973683476448059,0.3278721570968628,-0.03614849466241344,1.9022379549758581,-2.682093971127218
4.461187124252319,-0.017362475395202637,-0.11263545602560043,0.15498661994934082,-0.7042019367218018,-0.7509409189224243,0.3463968336582184,-0.030624182805988935,1.89465927964417,-2.6764493138978507
4.471364974975586,-0.01191413402557373,-0.10517892241477966,0.16354438662528992,-0.6945236921310425,-0.684069037437439,0.3536704182624817,-0.025072838288337205,1.8876144553183036,-2.670895224023115
4.481254816055298,-0.0065514445304870605,-0.10044924914836884,0.16371390223503113,-0.6675503849983215,-0.5783987641334534,0.3800583481788635,-0.01945675538623717,1.8813945315943823,-2.6655281774919257
4.49127984046936,-0.010528206825256348,-0.09708703309297562,0.1580888032913208,-0.625403642654419,-0.4398227632045746,0.40472108125686646,-0.0137286296826913,1.8763778745891257,-2.6605250033463044
4.501248121261597,-0.013953328132629395,-0.08326952904462814,0.14522385597229004,-0.5557715892791748,-0.28812965750694275,0.4210561215877533,-0.007982676068184775,1.8727780161978593,-2.6561115484800175
4.51128888130188,-0.004487216472625732,-0.06416372209787369,0.12945696711540222,-0.4556322395801544,-0.12326488643884659,0.43808403611183167,-0.002350295169940883,1.8707287382253541,-2.6525372343496456
4.521742105484009,0.00971895456314087,-0.04810101538896561,0.10635584592819214,-0.3365412652492523,0.04995989799499512,0.45304036140441895,0.0031075572999127443,1.8703612505570175,-2.650059829206871
4.53131890296936,0.023475348949432373,-0.04276716709136963,0.08712062239646912,-0.19227606058120728,0.22386671602725983,0.461600661277771,0.008304170432858344,1.871737790592322,-2.648879384372186
4.541515111923218,0.034331321716308594,-0.03511391952633858,0.073720782995224,-0.04371720552444458,0.3905126750469208,0.4540175795555115,0.013058519975292053,1.8748255735015973,-2.649117339256067
4.551336050033569,0.03935760259628296,-0.03032718226313591,0.05886074900627136,0.10727860033512115,0.5444021224975586,0.45370227098464966,0.017311694123984832,1.8795496811529495,-2.6507922782917186
4.561428785324097,0.04180276393890381,-0.025478370487689972,0.04942253232002258,0.254615843296051,0.679679811000824,0.44509732723236084,0.021062573657531374,1.8857550860268164,-2.65390612943924
4.57187294960022,0.045276105403900146,-0.020000869408249855,0.038961440324783325,0.38631486892700195,0.7850274443626404,0.4367210268974304,0.024267337110277617,1.8932132544849805,-2.658347780425792
4.5814368724823,0.04599034786224365,-0.010819852352142334,0.03158065676689148,0.5105289220809937,0.8722422122955322,0.42465317249298096,0.02693372116458839,1.9016607295797332,-2.663983541680446
4.591625928878784,0.04741716384887695,-0.003267008811235428,0.02445724606513977,0.622141420841217,0.9340694546699524,0.4132383167743683,0.029055274163992766,1.91092584616477,-2.670735195310297
4.601499795913696,0.06007295846939087,-0.003363894298672676,0.015290975570678711,0.7224200963973999,0.9583372473716736,0.39812779426574707,0.03062228910898768,1.920654746452053,-2.678457885941601
4.61151909828186,0.08040750026702881,-0.007984522730112076,0.011605173349380493,0.789125382900238,0.9568663835525513,0.3824702799320221,0.03167844257949956,1.930525541438265,-2.6869362066988627
4.6217200756073,0.09100842475891113,-0.012012306600809097,0.010700136423110962,0.8147106170654297,0.936549961566925,0.3579537570476532,0.03228964839912247,1.9403099494827118,-2.69577575433916
4.63166880607605,0.08617180585861206,-0.01768149435520172,0.0069189369678497314,0.8712400794029236,0.9225190281867981,0.34363099932670593,0.03251046396409214,1.9499379403624497,-2.704866145799015
4.64165186882019,0.08491349220275879,-0.027983423322439194,0.002537935972213745,0.8586581945419312,0.7271977663040161,0.3141940236091614,0.03235554257346029,1.9586629937849742,-2.7142762975717525
4.651652097702026,0.09004873037338257,-0.03711625933647156,0.011832773685455322,0.6368334889411926,0.38226041197776794,0.24644148349761963,0.0319963235067165,1.9644844115182856,-2.722505491692439
4.661539793014526,0.11049705743789673,-0.06751824915409088,0.033989161252975464,0.028923025354743004,0.12007991224527359,0.21543057262897491,0.03282952526386434,1.9670421445369706,-2.7265663850691864
4.671700954437256,0.1496567726135254,-0.12315294146537781,-0.0026031136512756348,-0.47529366612434387,-0.0078045520931482315,0.20952150225639343,0.03571396700467752,1.9675322936740802,-2.7251261029052762
4.681674957275391,0.15132838487625122,-0.1661369502544403,-0.09947061538696289,-0.6240983605384827,-0.1327209174633026,0.20280048251152039,0.03991314779005017,1.9666603755648366,-2.7206399031182813
4.691787958145142,0.12817531824111938,-0.11515527963638306,-0.18770051002502441,-0.4984513819217682,-0.21068811416625977,0.14497196674346924,0.043748524008770766,1.964712661291766,-2.716032197846362
4.701836824417114,0.11646735668182373,-0.010319817811250687,-0.25375574827194214,-0.36086422204971313,-0.20677539706230164,0.11634164303541183,0.046597136293215456,1.9624347055896554,-2.7125980614105596
4.711834907531738,0.09892129898071289,0.0051590800285339355,-0.2892382740974426,-0.3130260109901428,-0.15745152533054352,0.10040641576051712,0.048895074855112505,1.9604872731482195,-2.709938217099614
4.722095966339111,0.06919258832931519,-0.03181525692343712,-0.27200496196746826,-0.3092406094074249,-0.12657217681407928,0.08869969099760056,0.05098583630672834,1.9589712795572238,-2.7074351213693655
4.731797933578491,0.046437859535217285,-0.044356320053339005,-0.2102629542350769,-0.3125077486038208,-0.12405846267938614,0.0601140633225441,0.05288215296629419,1.9575870091480454,-2.7048295562489097
4.7418129444122314,0.034497857093811035,-0.01872086524963379,-0.1369662582874298,-0.3109298348426819,-0.13448844850063324,0.051486752927303314,0.054594289372710283,1.9561633684850777,-2.7021340603093864
4.751791954040527,0.023080885410308838,0.0035818107426166534,-0.07718002796173096,-0.3111148774623871,-0.15017034113407135,0.04763198643922806,0.05625437491878134,1.9545826000305755,-2.699436782106323
4.761837005615234,0.012391507625579834,0.011621378362178802,-0.02715018391609192,-0.30344709753990173,-0.14461365342140198,0.04354003816843033,0.05785733528201472,1.9529427529992784,-2.6967373299014237
4.771928071975708,-0.0031746625900268555,0.0061149075627326965,0.0065940916538238525,-0.26387861371040344,-0.12590664625167847,0.05102943629026413,0.05938781239235649,1.9514395718592212,-2.6942527616266374
4.781875848770142,-0.020301759243011475,0.0042860247194767,0.019484788179397583,-0.19286221265792847,-0.09087063372135162,0.05427982285618782,0.06076575833761678,1.9502248482180287,-2.6923040074679236
4.791966915130615,-0.031327664852142334,0.014164306223392487,0.02084752917289734,-0.0971345454454422,-0.04859796538949013,0.05546035245060921,0.06184173256025322,1.9494562430899478,-2.6911416764504934
4.8019068241119385,-0.03342580795288086,0.021564394235610962,0.013944119215011597,-0.0018801948754116893,-0.00158784631639719,0.06950532644987106,0.06263629863986817,1.949186704569295,-2.690915372831738
4.811908960342407,-0.03196084499359131,0.026931457221508026,0.008567065000534058,0.09278679639101028,0.046899616718292236,0.07989442348480225,0.06319795180308528,1.949470491027431,-2.6916280395201486
4.822049856185913,-0.033368706703186035,0.029733747243881226,0.0024583041667938232,0.17412452399730682,0.0845005214214325,0.08242655545473099,0.06348311596675175,1.950240363943986,-2.693180107421533
4.832052946090698,-0.033219873905181885,0.03175634145736694,-0.003521353006362915,0.23488643765449524,0.11131855100393295,0.08413130044937134,0.06353743824523611,1.9513758885832586,-2.695412404030615
4.842069864273071,-0.031452298164367676,0.032289206981658936,-0.007477909326553345,0.2672201693058014,0.12518243491649628,0.08391718566417694,0.06341391999574322,1.952744779326269,-2.6980868619243004
4.852001905441284,-0.022654414176940918,0.027402080595493317,-0.010628849267959595,0.2710818648338318,0.1280408501625061,0.07802180200815201,0.06318025791463078,1.9541974426813953,-2.7009100950107063
4.862065076828003,-0.012298285961151123,0.018105879426002502,-0.015185356140136719,0.2631555199623108,0.11832297593355179,0.06943070888519287,0.06288616435754138,1.955618355304887,-2.703663984765693
4.872112989425659,-0.006264030933380127,0.012352082878351212,-0.017376959323883057,0.2605030834674835,0.09558508545160294,0.059537116438150406,0.06251800888138115,1.9568732455122781,-2.706335759487027
4.882066965103149,0.0005121231079101562,0.009449522942304611,-0.0200842022895813,0.2548758387565613,0.06614357233047485,0.04254907742142677,0.06204065643259743,1.9578419861289111,-2.7089219855635736
4.892143964767456,0.008452236652374268,0.007637694478034973,-0.020430147647857666,0.24825531244277954,0.04149415343999863,0.029957331717014313,0.0607451969005389,1.9588608065046256,-2.711419857068414
4.902134895324707,0.003521263599395752,0.002576638013124466,-0.02250570058822632,0.24079181253910065,0.020657315850257874,0.017630092799663544,0.05870173882984254,1.9596371601056317,-2.7137920375751556
4.912157773971558,-0.004567384719848633,-0.004864998161792755,-0.02139371633529663,0.23207806050777435,0.005682450253516436,0.012338178232312202,0.056704163715042985,1.9599552909909794,-2.716047580455957
4.922363996505737,-0.009786903858184814,-0.015489857643842697,-0.017041385173797607,0.22011061012744904,-0.008735371753573418,0.006379355676472187,0.05488077180746577,1.9599591624387112,-2.718181877719309
4.932185888290405,-0.014154374599456787,-0.021655108779668808,-0.009405761957168579,0.20693373680114746,-0.0221518874168396,0.003244069404900074,0.05339780094589677,1.9596221878939377,-2.720163370078244
4.942267894744873,-0.01651376485824585,-0.02275501936674118,0.002494305372238159,0.19121043384075165,-0.03218534588813782,0.000338028185069561,0.05235747227133895,1.958924370345084,-2.721987544409781
4.952340841293335,-0.016239047050476074,-0.024401213973760605,0.016112416982650757,0.17812630534172058,-0.0429905466735363,0.0015695272013545036,0.05161053642944694,1.9580097085346067,-2.72367160430829
4.962309122085571,-0.013471722602844238,-0.02840755134820938,0.027075469493865967,0.16502168774604797,-0.051555272191762924,-0.0027032485231757164,0.051021391186587564,1.9568017994524178,-2.725226670697109
4.97246789932251,-0.012525558471679688,-0.028709866106510162,0.03641435503959656,0.1498468816280365,-0.05041317641735077,-0.006398277822881937,0.050489504929605085,1.955405436459726,-2.726622210958403
4.982398986816406,-0.01288515329360962,-0.02808724343776703,0.04445299506187439,0.14190001785755157,-0.05077936127781868,-0.013170164078474045,0.050180957017678045,1.95395204261379,-2.727884549962253
4.992309808731079,-0.0108720064163208,-0.03114357218146324,0.04918059706687927,0.1312502920627594,-0.04573284834623337,-0.016512537375092506,0.05013054017169841,1.9529327846104512,-2.729068553769822
5.002382040023804,-0.007076561450958252,-0.03554437309503555,0.05219563841819763,0.12357134371995926,-0.03886162489652634,-0.019807135686278343,0.05030761596785995,1.9523668515320995,-2.7301625517880868
5.012452840805054,-0.0068051815032958984,-0.041285328567028046,0.054090142250061035,0.1169070228934288,-0.02907135896384716,-0.014948836527764797,0.05054840170265408,1.952204460223891,-2.731221329030425
5.0224449634552,-0.009352803230285645,-0.04597584158182144,0.053880929946899414,0.1048082783818245,-0.020015545189380646,-0.014945906586945057,0.05075622268955637,1.9524673229743177,-2.732221031597121
5.032434940338135,-0.005919516086578369,-0.04607243463397026,0.058629006147384644,0.09644825011491776,-0.012919374741613865,-0.009806058369576931,0.05098035411588347,1.9530947972549377,-2.7331432240699955
5.0424277782440186,-0.0014664530754089355,-0.04336901754140854,0.05949053168296814,0.0927126333117485,-0.005720850080251694,-0.0065423548221588135,0.05133437739934693,1.9539839302387347,-2.7340375063814717
5.052561044692993,-0.0019246339797973633,-0.04121296480298042,0.055615633726119995,0.09523741155862808,0.0036607556976377964,-0.001801608712412417,0.05175147844970494,1.9551945861778186,-2.734949470839462
5.062506914138794,-0.0036507248878479004,-0.04074879735708237,0.052172303199768066,0.10839156806468964,0.009545009583234787,0.001357166562229395,0.052262124388922006,1.956832036636187,-2.7359731197646986
5.072474002838135,-0.0057901740074157715,-0.03916465491056442,0.04613327980041504,0.12524640560150146,0.018619731068611145,0.00447381054982543,0.053084466921036806,1.959024141438926,-2.7371654075320992
5.082535028457642,-0.006773650646209717,-0.037643320858478546,0.0380377471446991,0.13605351746082306,0.028302187100052834,0.005881824064999819,0.05422597049231108,1.9615526539606212,-2.7385339675044924
5.092525959014893,-0.006154417991638184,-0.03313270956277847,0.028301894664764404,0.13792110979557037,0.03327301889657974,0.0019913185387849808,0.05530498676026628,1.9637935412440304,-2.739921806433761
5.10254693031311,-0.005296170711517334,-0.028692930936813354,0.022006452083587646,0.13142405450344086,0.03879215568304062,0.007557325530797243,0.05634367167768995,1.9658133374004914,-2.741279684965269
5.112571954727173,-0.0035424232482910156,-0.025516368448734283,0.0139923095703125,0.1184404194355011,0.033497702330350876,0.008031954057514668,0.057278694456625506,1.967744141687165,-2.7425521225325418
5.122619867324829,0.003441452980041504,-0.021577928215265274,0.008876502513885498,0.10621917247772217,0.025796638801693916,0.005595960188657045,0.058044585163421106,1.969441689867182,-2.7436995417711367
5.132611989974976,0.010396957397460938,-0.014605451375246048,0.004215061664581299,0.10360605269670486,0.013425813056528568,-0.00014235283015295863,0.05867047041984647,1.9708423134866104,-2.7447407490721907
5.1427037715911865,0.016816377639770508,-0.00597773864865303,-0.0034059882164001465,0.10615842044353485,-0.0018282406963407993,-0.006765900645405054,0.059181375946024656,1.971974764573079,-2.7457519014765013
5.152673006057739,0.021061062812805176,0.0009393505752086639,-0.012358814477920532,0.11280088126659393,-0.016352055594325066,-0.01412900909781456,0.059568390126657746,1.9728269477652312,-2.7467771513630015
5.162678956985474,0.020390450954437256,0.005483489483594894,-0.021189004182815552,0.12252222001552582,-0.02956026792526245,-0.020485974848270416,0.0598711270740178,1.973411025843343,-2.747838477953641
5.172636985778809,0.0191459059715271,0.011227462440729141,-0.026592910289764404,0.14221139252185822,-0.04087688773870468,-0.02677316591143608,0.060000107878173746,1.9736827899470168,-2.748990931830195
5.1828248500823975,0.01892906427383423,0.0183522030711174,-0.03311389684677124,0.17727030813694,-0.053499735891819,-0.031355131417512894,0.05981555960970363,1.9737005660685756,-2.750361870985162
5.192821979522705,0.02154916524887085,0.02634267881512642,-0.03458291292190552,0.22276371717453003,-0.06731648743152618,-0.0372447669506073,0.05930597027019936,1.9734097409476568,-2.7520804797178817
5.204231023788452,0.02514171600341797,0.034400638192892075,-0.03237035870552063,0.2731797397136688,-0.08298492431640625,-0.044258732348680496,0.05846660293388737,1.9728404683321947,-2.754216378887633
5.213047981262207,0.027055323123931885,0.038207873702049255,-0.02914375066757202,0.3204294443130493,-0.0985850989818573,-0.048730555921792984,0.05725166239075532,1.9720058531513738,-2.7567768803347077
5.222908973693848,0.031206369400024414,0.03956923261284828,-0.02378883957862854,0.3685794174671173,-0.11455261707305908,-0.055840130895376205,0.05560443826663129,1.9708554659594324,-2.759738474765008
5.232834100723267,0.034442126750946045,0.04110480099916458,-0.020183563232421875,0.4143008887767792,-0.1284852921962738,-0.06285137683153152,0.05359696182451991,1.9694278608988658,-2.7630987743651882
5.2429587841033936,0.03528255224227905,0.04306880757212639,-0.020014822483062744,0.46139997243881226,-0.13901729881763458,-0.07046988606452942,0.051300601327076874,1.967785125480485,-2.76686645930887
5.254235029220581,0.0356563925743103,0.04445560276508331,-0.019000470638275146,0.5074366331100464,-0.14702485501766205,-0.07756257057189941,0.04870161515581033,1.9660171758173652,-2.771042548297317
5.262887954711914,0.03581798076629639,0.0436982624232769,-0.01849880814552307,0.5477792620658875,-0.14892128109931946,-0.08947888761758804,0.045758973429994625,1.9641082156006309,-2.775573444266289
5.272907972335815,0.03379786014556885,0.03724367544054985,-0.018116861581802368,0.575251042842865,-0.15688812732696533,-0.09918323159217834,0.042734646437772486,1.962779355693338,-2.7804079089837606
5.28300404548645,0.030235767364501953,0.034952085465192795,-0.01649653911590576,0.5903596878051758,-0.15876992046833038,-0.11041831225156784,0.03952481947148616,1.961400014245669,-2.7854118387394253
5.2929089069366455,0.027098536491394043,0.0311797596514225,-0.016590505838394165,0.6082664728164673,-0.1599302589893341,-0.11832262575626373,0.0361773413065784,1.959996907771591,-2.7905209389375516
5.304311990737915,0.02799314260482788,0.02681436389684677,-0.017771780490875244,0.6244020462036133,-0.1723531037569046,-0.13089939951896667,0.032679613433967414,1.9585027237388548,-2.7957685239102497
5.312962770462036,0.028372764587402344,0.02710597589612007,-0.01977360248565674,0.6270682215690613,-0.1763818860054016,-0.13651980459690094,0.029063258281046535,1.956910819391994,-2.801067815980753
5.323023080825806,0.023744940757751465,0.02496802806854248,-0.020218104124069214,0.6261278390884399,-0.176874577999115,-0.13752087950706482,0.025428601032800553,1.9552749791267914,-2.8063721695140282
5.333039999008179,0.018047332763671875,0.021101128309965134,-0.02339419722557068,0.612576425075531,-0.18140888214111328,-0.14845678210258484,0.02177430000547488,1.953596615277334,-2.811609445140989
5.343147039413452,0.018403232097625732,0.021460942924022675,-0.02400839328765869,0.6029080748558044,-0.17091256380081177,-0.1547785848379135,0.018074531406352016,1.9519100189850898,-2.816673144372289
5.354398012161255,0.015426933765411377,0.01743069477379322,-0.026745468378067017,0.5759299993515015,-0.16913250088691711,-0.16974715888500214,0.014379496643322992,1.9502488347582778,-2.8215582907302568
5.363111972808838,0.012100577354431152,0.0190352164208889,-0.03201398253440857,0.5455345511436462,-0.15414182841777802,-0.1879304200410843,0.010627886529006349,1.9486744439852874,-2.826118544027648
5.373116970062256,0.008539259433746338,0.019783517345786095,-0.033562153577804565,0.5088528990745544,-0.1427329033613205,-0.20187866687774658,0.00685943561834905,1.9472081940340653,-2.8303199103454553
5.383178949356079,0.011113107204437256,0.017217984423041344,-0.033689677715301514,0.47212788462638855,-0.1336059719324112,-0.22155436873435974,0.0030731526031031985,1.9458287137188046,-2.834116743054894
5.393101930618286,0.01524198055267334,0.02069505676627159,-0.031542569398880005,0.4250032603740692,-0.13194797933101654,-0.24534763395786285,-0.000758749776474654,1.944487399552505,-2.837435978150894
5.405756950378418,0.01768726110458374,0.021242735907435417,-0.02649417519569397,0.3823351562023163,-0.11551521718502045,-0.2617170214653015,-0.00460561759055016,1.9432157955603329,-2.8402528413960395
5.4131669998168945,0.016714096069335938,0.02111268788576126,-0.02184581756591797,0.36618655920028687,-0.10950352996587753,-0.2722901403903961,-0.008458891571152571,1.9420687093677451,-2.842765553707697
5.423219919204712,0.014471948146820068,0.023550519719719887,-0.021943330764770508,0.37040233612060547,-0.11263807117938995,-0.2850554883480072,-0.012399458200983657,1.9409122635169263,-2.8451732977868853
5.433218002319336,0.014642775058746338,0.027077097445726395,-0.016186922788619995,0.3879695236682892,-0.1261875182390213,-0.29029422998428345,-0.016456914731023255,1.9396707208828754,-2.8476603633525044
5.443295955657959,0.014833450317382812,0.028133166953921318,-0.014997720718383789,0.41014617681503296,-0.14221549034118652,-0.2938804626464844,-0.020620068407967516,1.9382620561532111,-2.85032802912803
5.454602003097534,0.015012919902801514,0.025290988385677338,-0.012888789176940918,0.43910446763038635,-0.1591111570596695,-0.2961556315422058,-0.024912963009427302,1.9366775653424404,-2.853236147679451
5.46349310874939,0.011073291301727295,0.02139846235513687,-0.012973785400390625,0.47296443581581116,-0.1713944524526596,-0.30012133717536926,-0.02932590522010673,1.9349024910160477,-2.8564207436741604
5.473323106765747,0.010378241539001465,0.017937812954187393,-0.01662936806678772,0.4745197296142578,-0.17761719226837158,-0.3096865713596344,-0.03387219417279483,1.9330393404290176,-2.8598420352871363
5.483332872390747,0.010399580001831055,0.012054238468408585,-0.016602128744125366,0.4287378489971161,-0.17950484156608582,-0.3387099802494049,-0.03852287748459042,1.9310988176740802,-2.8628815017034714
5.493452787399292,0.006539046764373779,0.008817143738269806,-0.006927490234375,0.3940739035606384,-0.1741546392440796,-0.32877135276794434,-0.043106569873632775,1.9292108402994597,-2.86560759311708
5.50451397895813,0.008867204189300537,-0.00715159997344017,-0.006592392921447754,0.342966228723526,-0.16590896248817444,-0.3562506437301636,-0.04760533076853392,1.9273800753668011,-2.867853708752533
5.513406038284302,0.012683629989624023,-0.003637786954641342,0.0005434751510620117,0.2943471372127533,-0.1531580239534378,-0.3697551190853119,-0.05215381865754366,1.925677146304517,-2.869586007533013
5.523461103439331,0.006449639797210693,-0.0047204382717609406,0.007767379283905029,0.25324100255966187,-0.14116154611110687,-0.37634485960006714,-0.05661525516703807,1.9241145458601527,-2.870849176495703
5.53339695930481,0.005720198154449463,-0.01175805926322937,0.013148277997970581,0.23489440977573395,-0.13375897705554962,-0.38088342547416687,-0.061005436826929306,1.9226682431504412,-2.871821933735478
5.543536901473999,0.006859898567199707,-0.015454411506652832,0.01778838038444519,0.23226188123226166,-0.13130994141101837,-0.38516178727149963,-0.06541249815606627,1.9212707803082432,-2.872690372279569
5.554605960845947,0.0016993880271911621,-0.013340458273887634,0.021463483572006226,0.24097049236297607,-0.12727870047092438,-0.3826705515384674,-0.06985473177963471,1.9199015598636535,-2.873591576410879
5.563570976257324,-0.004623711109161377,-0.01649806648492813,0.022774547338485718,0.2538261115550995,-0.12454044073820114,-0.3797791600227356,-0.07429034329555588,1.918554318951055,-2.874615946332656
5.573559999465942,-0.01069188117980957,-0.01916775107383728,0.023576855659484863,0.27439695596694946,-0.12016794085502625,-0.37356895208358765,-0.07874308767655,1.9172198733014458,-2.8758223952689974
5.583509922027588,-0.013615071773529053,-0.024187080562114716,0.022240906953811646,0.3018709421157837,-0.11924674361944199,-0.3606044054031372,-0.08318186880060813,1.9158778640996246,-2.8772985895766237
5.593665838241577,-0.016131937503814697,-0.027320832014083862,0.02067244052886963,0.3368363678455353,-0.11783500760793686,-0.3425114154815674,-0.0875828786089763,1.9145127499399435,-2.879126724166791
5.604532957077026,-0.022979319095611572,-0.029107190668582916,0.016996800899505615,0.36847633123397827,-0.11015710979700089,-0.32648879289627075,-0.09193496431074705,1.9131541899881308,-2.881330778240866
5.613595962524414,-0.02887016534805298,-0.033253565430641174,0.014141947031021118,0.3970243036746979,-0.10253167897462845,-0.30650898814201355,-0.0962070737019675,1.911835058155088,-2.8838904798105105
5.623607873916626,-0.03605395555496216,-0.0381690114736557,0.013516038656234741,0.4243986904621124,-0.09416242688894272,-0.2816060185432434,-0.10036438649877083,1.9105491728467678,-2.886790750754889
5.6335508823394775,-0.04151272773742676,-0.04164481908082962,0.011620789766311646,0.44949719309806824,-0.08605985343456268,-0.25902050733566284,-0.10438001018794509,1.9092991957872385,-2.890033376167529
5.643758058547974,-0.04731619358062744,-0.04337935894727707,0.0088481605052948,0.47258439660072327,-0.07321835309267044,-0.2351761758327484,-0.10825740578379998,1.908106039335572,-2.8935902603411616
5.655394792556763,-0.05603289604187012,-0.04426103085279465,0.00397220253944397,0.4880889654159546,-0.06495381146669388,-0.21105319261550903,-0.11195384340016667,1.9069730988284816,-2.8974172043466937
5.663657903671265,-0.06636840105056763,-0.04981730133295059,-0.0008387863636016846,0.5012401342391968,-0.05408758297562599,-0.18601521849632263,-0.1154728688100831,1.9058981831099653,-2.9014696766670687
5.674085855484009,-0.07504880428314209,-0.05318395048379898,-0.005261272192001343,0.5098806023597717,-0.048030223697423935,-0.16407924890518188,-0.11878595193546727,1.904876030165325,-2.9057084153390242
5.683774948120117,-0.08320486545562744,-0.05400116741657257,-0.0074374377727508545,0.5190269351005554,-0.03874804079532623,-0.14374442398548126,-0.12192999172170242,1.9038953729446957,-2.9100994004498135
5.69402003288269,-0.0878744125366211,-0.059574440121650696,-0.010284453630447388,0.5241032838821411,-0.03284164145588875,-0.12058956176042557,-0.12488601715344001,1.9029742113834307,-2.9146345562209577
5.704729795455933,-0.09127575159072876,-0.06784196197986603,-0.014761000871658325,0.5282631516456604,-0.029819216579198837,-0.09650207310914993,-0.12763644294133536,1.9020593730975266,-2.9192980556972374
5.713915109634399,-0.0902673602104187,-0.06994752585887909,-0.01649606227874756,0.5360472798347473,-0.02490968070924282,-0.07146254926919937,-0.13015969583691514,1.9011583682021407,-2.924100219997011
5.723879098892212,-0.08954465389251709,-0.06724876165390015,-0.020181626081466675,0.5448208451271057,-0.028365133330225945,-0.04731060937047005,-0.132485798914336,1.9002310888712635,-2.9290699584223154
5.733979940414429,-0.08712780475616455,-0.06479619443416595,-0.023024916648864746,0.5504541397094727,-0.033020779490470886,-0.022413570433855057,-0.1345991853953586,1.8992272564005672,-2.934204328062173
5.743896961212158,-0.08225142955780029,-0.06275099515914917,-0.024353981018066406,0.5522634983062744,-0.04495653510093689,-0.0025045766960829496,-0.13649287464453091,1.8981130336385967,-2.939444868922728
5.7552809715271,-0.08009558916091919,-0.06719104945659637,-0.025239616632461548,0.5506758689880371,-0.05674533173441887,0.018225256353616714,-0.1381870938343514,1.8968594396669434,-2.9447572375267
5.763945817947388,-0.07853573560714722,-0.07559150457382202,-0.02538403868675232,0.5398722290992737,-0.06772474199533463,0.03918486461043358,-0.1396589600889554,1.895489173491146,-2.95008086563587
5.7739129066467285,-0.07746076583862305,-0.08078590035438538,-0.02337023615837097,0.5245435833930969,-0.08283863216638565,0.06490220874547958,-0.14086741494879246,1.8939863395937089,-2.955353142667192
5.783955812454224,-0.07417279481887817,-0.08356834948062897,-0.016685962677001953,0.49862200021743774,-0.10394658148288727,0.08650097995996475,-0.14178211799432047,1.8923064124940017,-2.960512809525736
5.793980836868286,-0.06696325540542603,-0.08752968907356262,-0.008797317743301392,0.45635557174682617,-0.12143893539905548,0.10960134863853455,-0.1423618551622129,1.890466289294759,-2.9654259384195543
5.804962873458862,-0.06207931041717529,-0.09590962529182434,0.0014812946319580078,0.398572713136673,-0.13336589932441711,0.14166714251041412,-0.1425189054418878,1.8885320110951387,-2.969929558592733
5.813988924026489,-0.058268845081329346,-0.10682377219200134,0.011523127555847168,0.3433167636394501,-0.1454727202653885,0.17836667597293854,-0.14215309334914966,1.886550400468148,-2.973996267895848
5.824055910110474,-0.050664663314819336,-0.10762889683246613,0.018734663724899292,0.3097979724407196,-0.16311189532279968,0.2163151204586029,-0.14128630383841678,1.8844577734383272,-2.9777418425351505
5.834167957305908,-0.038750410079956055,-0.10112404823303223,0.02817520499229431,0.288388192653656,-0.17710480093955994,0.2592815160751343,-0.1399409033348115,1.8822309575920517,-2.981353591242984
5.8441689014434814,-0.028150558471679688,-0.09279215335845947,0.03435942530632019,0.27078282833099365,-0.19031062722206116,0.3017365634441376,-0.1381222363440978,1.879879476288559,-2.984911939289748
5.855165004730225,-0.020364224910736084,-0.08567184209823608,0.04050448536872864,0.2665562927722931,-0.2021786868572235,0.3389412760734558,-0.13587900192490918,1.8774097382566053,-2.9884816082550354
5.8641440868377686,-0.014817416667938232,-0.08675491809844971,0.04742833971977234,0.27392154932022095,-0.2002071589231491,0.3816905915737152,-0.13324561345801858,1.8748794772844384,-2.992172655380125
5.874138116836548,-0.014111578464508057,-0.08909855782985687,0.053160160779953,0.28872352838516235,-0.19904299080371857,0.4170425832271576,-0.13025327134534537,1.8723425031514893,-2.9960876076039162
5.884205102920532,-0.017800867557525635,-0.08621695637702942,0.053212523460388184,0.3117425739765167,-0.19482241570949554,0.4538322985172272,-0.12697842428152264,1.8698205361097642,-3.0002833253221257
5.894208908081055,-0.02424412965774536,-0.08170974254608154,0.05415865778923035,0.33154332637786865,-0.18642756342887878,0.4881674647331238,-0.1234199099990371,1.8673343261191524,-3.0047931626871955
5.906400918960571,-0.03218132257461548,-0.07287045568227768,0.05489146709442139,0.3481958210468292,-0.17291921377182007,0.5103211998939514,-0.1196185220025403,1.8649431051721612,-3.009541272356485
5.914236783981323,-0.04817396402359009,-0.07017561793327332,0.054246753454208374,0.37323927879333496,-0.1589059680700302,0.5388360023498535,-0.11562963866816518,1.8626704426809746,-3.0145382605946827
5.924268007278442,-0.07473617792129517,-0.0748658999800682,0.052049070596694946,0.41721951961517334,-0.14210034906864166,0.5535163879394531,-0.11150429195799212,1.8605583208816001,-3.019930722655859
5.934272050857544,-0.10104513168334961,-0.07314499467611313,0.05288785696029663,0.48888319730758667,-0.139823317527771,0.5606350302696228,-0.10745502832615772,1.8584888435517837,-3.0258829986949456
5.944263935089111,-0.12441325187683105,-0.07188243418931961,0.05796724557876587,0.6586158275604248,-0.11840642988681793,0.594687819480896,-0.10353088278645364,1.8564006883201043,-3.032937576863535
5.955238103866577,-0.15249645709991455,-0.07593724876642227,0.053148865699768066,1.0570189952850342,-0.07900922000408173,0.6920745372772217,-0.09975369623490496,1.8544146569659863,-3.0429143620793204
5.964261770248413,-0.18136733770370483,-0.07006246596574783,0.03402402997016907,1.5649802684783936,-0.12782789766788483,0.7566386461257935,-0.09638044454504904,1.8519774183639837,-3.057556180162082
5.974258899688721,-0.19786041975021362,-0.027646638453006744,0.024026066064834595,2.091110944747925,-0.19269664585590363,0.8237076997756958,-0.09387023542197968,1.8484837171322277,-3.0774667791723394
5.984246015548706,-0.21257078647613525,-0.007225759327411652,0.021566390991210938,2.51455020904541,-0.24985474348068237,0.8955262303352356,-0.09185805759994639,1.8439589625727684,-3.1021735714106184
5.994311094284058,-0.2330220341682434,-0.02599199116230011,0.03456994891166687,2.828991174697876,-0.2588319778442383,0.9793747663497925,-0.09001729354470503,1.8387573650389368,-3.130638630593236
6.005143880844116,-0.2613834738731384,-0.06406768411397934,0.061184704303741455,3.016646385192871,-0.18988248705863953,1.0939661264419556,-0.08769380306698364,1.8336969101467262,3.1213934690408
6.0149290561676025,-0.28473377227783203,-0.08865883201360703,0.07797524333000183,3.11826753616333,-0.08710984885692596,1.1674230098724365,-0.08465529204746026,1.8294359245072236,3.0886186286383
