timestamp,accel_x,accel_y,accel_z,rotation_x,rotation_y,rotation_z, pitch,roll,yaw
0.046044111251831055,0.006563544273376465,-0.014075309038162231,0.032134249806404114,-0.021166374906897545,0.025380603969097137,0.00858400110155344,-0.2741492869721632,1.4054186823573664,0.2325962908684402
0.05354022979736328,0.00747448205947876,-0.01442977786064148,0.034147441387176514,-0.020074661821126938,0.027994805946946144,0.004924764856696129,-0.27410540994540444,1.4057592177391571,0.23282886800457425
0.06563806533813477,0.003830134868621826,-0.014193594455718994,0.03487624228000641,-0.016817616298794746,0.030172206461429596,0.0017553368816152215,-0.2740977950522654,1.4061168655995648,0.233030020308955
0.07274818420410156,-0.0008167624473571777,-0.014687150716781616,0.032836899161338806,-0.014060262590646744,0.0348636768758297,-0.0019628622103482485,-0.2741191855603046,1.4064958819076714,0.23318791925343346
0.07522821426391602,-0.0034336447715759277,-0.016747981309890747,0.030710116028785706,-0.011915884912014008,0.03838011249899864,-0.003277931362390518,-0.27416761749868496,1.4069174471590304,0.23332185564991334
0.08231925964355469,-0.006826281547546387,-0.01899886131286621,0.028071880340576172,-0.010548585094511509,0.044960785657167435,0.00022338004782795906,-0.27419161457258534,1.4073806209855426,0.2334332139719904
0.09077620506286621,-0.009170353412628174,-0.020769059658050537,0.023853853344917297,-0.010867364704608917,0.05233054980635643,0.005798441357910633,-0.2741759357279628,1.4079023943781839,0.23354419135074117
0.10102510452270508,-0.010992646217346191,-0.02176511287689209,0.02135021984577179,-0.007140470668673515,0.05772087723016739,0.012652618810534477,-0.27410109155452855,1.408501395196245,0.23366235157506565
0.11098527908325195,-0.012779831886291504,-0.020794272422790527,0.019563913345336914,-0.0010282499715685844,0.06280378997325897,0.017980271950364113,-0.27394852769865197,1.4091358202508246,0.23373717968227423
0.12093830108642578,-0.012300372123718262,-0.01768273115158081,0.017097309231758118,0.005582381505519152,0.06707300990819931,0.025869514793157578,-0.27372793330267353,1.4097986663807993,0.23375284237657665
0.1307992935180664,-0.012730419635772705,-0.014539927244186401,0.015100181102752686,0.010998185724020004,0.07063152641057968,0.03129250928759575,-0.27342735414786196,1.4104848024322236,0.2337149859555298
0.14098715782165527,-0.009929060935974121,-0.0123215913772583,0.011060371994972229,0.019738564267754555,0.07548065483570099,0.03511979058384895,-0.2730726603515712,1.411203157585148,0.23360939804064962
0.15108108520507812,-0.008616209030151367,-0.00820741057395935,0.008275732398033142,0.025811104103922844,0.07553444802761078,0.03457703813910484,-0.2726825297310027,1.4119186482265869,0.23343707727337668
0.16167831420898438,-0.005354762077331543,-0.007209807634353638,0.003495931625366211,0.02804659493267536,0.07857781648635864,0.03600209578871727,-0.2722803974952951,1.4126465525415002,0.23322922690817166
0.17108416557312012,-0.0027666687965393066,-0.005353182554244995,-0.0013845711946487427,0.03146369755268097,0.07906677573919296,0.035133104771375656,-0.27187370050149007,1.4133840454967412,0.2329908943401292
0.18130207061767578,-0.0005190372467041016,-0.0007799267768859863,-0.0065644532442092896,0.04054710641503334,0.07521620392799377,0.03225545585155487,-0.2714822422288227,1.4140823868278685,0.23268270173226344
0.19144415855407715,0.0019301176071166992,0.003984332084655762,-0.010859131813049316,0.04577968269586563,0.07125208526849747,0.027113156393170357,-0.27097174623268944,1.4149618257319012,0.23236794840685304
0.20111608505249023,0.003590822219848633,0.006718307733535767,-0.014448300004005432,0.05290895327925682,0.0643429160118103,0.024046633392572403,-0.2705256424725801,1.415722096276598,0.23195316592940038
0.21111631393432617,0.001571953296661377,0.006792604923248291,-0.018214240670204163,0.058519698679447174,0.055256474763154984,0.016482990235090256,-0.27016353144657723,1.4163435676598675,0.23144957174898861
0.2211441993713379,0.0011102557182312012,0.007129102945327759,-0.020857468247413635,0.0706697329878807,0.04400533437728882,0.010147010907530785,-0.269861891649279,1.4167607572249032,0.23084614672011863
0.23102331161499023,0.00010120868682861328,0.00598520040512085,-0.024001076817512512,0.07489936798810959,0.03785049915313721,0.004216417670249939,-0.26965554283097926,1.4170262175673414,0.2301251968190882
0.2410120964050293,-0.003160536289215088,0.010322034358978271,-0.028273463249206543,0.08974193036556244,0.028195030987262726,0.0007322035962715745,-0.2694779184693959,1.4170978465148614,0.2292640505295287
0.2510232925415039,-0.0036607980728149414,0.0117206871509552,-0.03310304880142212,0.11160515248775482,0.020302487537264824,-0.0018049899954348803,-0.26929330075580044,1.4169537849058416,0.22820433707693688
0.26119112968444824,-0.006722569465637207,0.012896448373794556,-0.037254512310028076,0.13787707686424255,0.008364557288587093,-0.005728411953896284,-0.26914998891147607,1.4165605352188855,0.22687356049817906
0.27112317085266113,-0.010706543922424316,0.01188609004020691,-0.04060755670070648,0.16803817451000214,0.003661947324872017,-0.009226207621395588,-0.2690425603387938,1.415968363276137,0.225234140238928
0.28122711181640625,-0.01601773500442505,0.014195621013641357,-0.04780048131942749,0.20430825650691986,0.009369323961436749,-0.012201650999486446,-0.268926137417604,1.4152587840204438,0.2232343252684876
0.291135311126709,-0.021429717540740967,0.016823619604110718,-0.05640672147274017,0.24950261414051056,0.013212798163294792,-0.011177132837474346,-0.268764202823151,1.4144330293012497,0.22081050873815541
0.3012380599975586,-0.024805545806884766,0.018512308597564697,-0.06315898895263672,0.3039041757583618,0.016275210306048393,-0.00865144468843937,-0.26850040890981935,1.4134913524874124,0.21787208247587123
0.31197500228881836,-0.02441573143005371,0.02099481225013733,-0.07374526560306549,0.36581867933273315,0.01853969693183899,-0.005503854714334011,-0.2680938570179543,1.412432071196165,0.21435486420178285
0.3213162422180176,-0.02726435661315918,0.024095535278320312,-0.08585774898529053,0.46138495206832886,0.01888888143002987,0.002770533785223961,-0.26752088917120026,1.4112201774840252,0.210040148130592
0.331057071685791,-0.03305160999298096,0.033167749643325806,-0.1035187691450119,0.5824205875396729,0.018149854615330696,0.017224308103322983,-0.26664196860262096,1.4097596421033582,0.20466074123592515
0.34142112731933594,-0.041479647159576416,0.04286694526672363,-0.12445306777954102,0.7309882640838623,0.03551654890179634,0.03359917923808098,-0.2653824008383061,1.4080842244787772,0.1979466235800254
0.35141515731811523,-0.05231451988220215,0.051190316677093506,-0.15390169620513916,0.9088667035102844,0.04797454923391342,0.05315370485186577,-0.2636516486316535,1.4062220369218439,0.1896171807688284
0.3621950149536133,-0.05460524559020996,0.05863457918167114,-0.18131421506404877,1.105286717414856,0.05852128937840462,0.0846601277589798,-0.26131531473487984,1.4041084242424833,0.1794515167256362
0.3714601993560791,-0.05106925964355469,0.06682080030441284,-0.20760540664196014,1.3092427253723145,0.04302781820297241,0.11331254243850708,-0.25832350991338093,1.4015211758879838,0.1673090388660492
0.38147616386413574,-0.04055202007293701,0.0711531937122345,-0.22385799884796143,1.4763050079345703,0.024344544857740402,0.1563083827495575,-0.25460182252787933,1.398346005780403,0.1532986769171032
0.39147520065307617,-0.023772239685058594,0.06345468759536743,-0.23765356838703156,1.5573031902313232,-0.046108316630125046,0.18945114314556122,-0.250245162370764,1.3944494703571741,0.13808227398382525
0.40140819549560547,-0.0031238794326782227,0.03971697390079498,-0.23621034622192383,1.5398458242416382,-0.10862291604280472,0.22525346279144287,-0.2454394184802643,1.389909419135311,0.12265994904834894
0.41184020042419434,0.017901122570037842,0.010813653469085693,-0.23865902423858643,1.4259716272354126,-0.18688683211803436,0.2455986738204956,-0.2403964512424303,1.3849046129617073,0.10802569546657795
0.42144322395324707,0.02933943271636963,-0.01982635259628296,-0.24713730812072754,1.2219336032867432,-0.2569761276245117,0.23953306674957275,-0.23548233767860985,1.3796114880545278,0.09501769731927673
0.4313793182373047,0.040044426918029785,-0.05281376838684082,-0.2601720988750458,0.926040768623352,-0.3409666419029236,0.21841979026794434,-0.2311358415226213,1.3742241113302365,0.08455005505694797
0.4420132637023926,0.059487104415893555,-0.06580917537212372,-0.25341135263442993,0.5675083994865417,-0.4575611650943756,0.19027064740657806,-0.22765200535280658,1.3686004104677034,0.07744563258281059
0.4525570869445801,0.08149707317352295,-0.0683751106262207,-0.23852930963039398,0.22208867967128754,-0.5857425332069397,0.1694343388080597,-0.22508656064712912,1.362576773460428,0.07384363100920975
0.46384310722351074,0.09611189365386963,-0.05677451193332672,-0.21468810737133026,-0.091331847012043,-0.7232467532157898,0.15663237869739532,-0.22336098169789856,1.3559148602368007,0.07361701802248191
0.4712522029876709,0.09913408756256104,-0.045179277658462524,-0.18009911477565765,-0.2885842025279999,-0.8299737572669983,0.12319158762693405,-0.22236115224573935,1.3486116041161382,0.07585371280416736
0.48151302337646484,0.09054350852966309,-0.03648538887500763,-0.16722676157951355,-0.4327996075153351,-0.9283822178840637,0.07563233375549316,-0.2221771250568749,1.340617386309206,0.07971670837334702
0.49141716957092285,0.08840644359588623,-0.002928510308265686,-0.15190885961055756,-0.5591322779655457,-1.0286717414855957,0.01716981828212738,-0.22286262402031795,1.331912541371784,0.08475866076902822
0.5015382766723633,0.09805727005004883,0.01734742522239685,-0.12033431231975555,-0.6990944147109985,-1.1648539304733276,-0.033139318227767944,-0.22444616936301823,1.3223048968006132,0.09098950808302204
0.5115361213684082,0.11678266525268555,0.02923552691936493,-0.09536421298980713,-0.821594774723053,-1.2894086837768555,-0.08707632124423981,-0.22691827748133708,1.311637391874423,0.09842472150364717
0.5215661525726318,0.12704718112945557,0.033614397048950195,-0.08275589346885681,-0.9333663582801819,-1.3888601064682007,-0.1752740442752838,-0.23045931875244294,1.3000943719963154,0.10677053799416739
0.5315933227539062,0.12918686866760254,0.052762970328330994,-0.08048489689826965,-1.0251972675323486,-1.4854729175567627,-0.2685911953449249,-0.23527498919177411,1.2878061980177897,0.11583406384588557
0.5415961742401123,0.13988852500915527,0.08099451661109924,-0.062223076820373535,-1.1341376304626465,-1.6028416156768799,-0.3770191967487335,-0.2414433194430293,1.2746151296256776,0.12552771191593767
0.5515542030334473,0.1481669545173645,0.09126591682434082,-0.04834073781967163,-1.281010627746582,-1.6834102869033813,-0.49817731976509094,-0.24921154704583742,1.2606765975288021,0.13603502819985236
0.5619471073150635,0.14807355403900146,0.07874453067779541,-0.04502624273300171,-1.4418834447860718,-1.7349903583526611,-0.6308005452156067,-0.2588375403825238,1.2464619561823127,0.14762133627336416
0.5715131759643555,0.1504923701286316,0.06416180729866028,-0.031043976545333862,-1.5681742429733276,-1.7790101766586304,-0.7720186114311218,-0.2703732955881549,1.2321048034429605,0.16001669497077486
0.581566333770752,0.1501336693763733,0.05762624740600586,-0.026282191276550293,-1.6680095195770264,-1.8101074695587158,-0.9115760922431946,-0.28381515220056974,1.2176567668812763,0.1729242236298106
0.5915641784667969,0.15679973363876343,0.05539637804031372,-0.018814951181411743,-1.738873839378357,-1.8519744873046875,-1.0529060363769531,-0.2990310625873838,1.2030763055661784,0.18597639331421026
0.6014931201934814,0.16853386163711548,0.06101584434509277,-0.0009121894836425781,-1.7934174537658691,-1.8947492837905884,-1.1798728704452515,-0.31593306624820444,1.1882593463280053,0.19894441271017538
0.6119391918182373,0.18024390935897827,0.07650402188301086,0.03952896595001221,-1.8057998418807983,-1.9474647045135498,-1.2870569229125977,-0.3342409476928297,1.1730576586344668,0.2116136240346671
0.6218562126159668,0.1821584701538086,0.08895856142044067,0.083981454372406,-1.772243618965149,-1.973907232284546,-1.3884663581848145,-0.35362244831478523,1.1574074604971216,0.22348714097588063
0.6329612731933594,0.1707654595375061,0.08979126811027527,0.10179316997528076,-1.7324154376983643,-1.9651983976364136,-1.486672282218933,-0.37394092015113567,1.1415170649238202,0.2343221752754806
0.6416130065917969,0.16446518898010254,0.0739353597164154,0.11768874526023865,-1.6543043851852417,-1.9616572856903076,-1.562585473060608,-0.3949798030420097,1.1254767205508729,0.24395043186526735
0.6516861915588379,0.16836565732955933,0.06250697374343872,0.14309120178222656,-1.543468952178955,-1.9804866313934326,-1.6264221668243408,-0.4163356971740129,1.1089075781344926,0.25198218885066953
0.662208080291748,0.1706993579864502,0.05532437562942505,0.15225714445114136,-1.4738643169403076,-1.9845854043960571,-1.6810966730117798,-0.43794165926357626,1.0917418874432827,0.25851488976654863
0.6714901924133301,0.16983109712600708,0.025113344192504883,0.16548573970794678,-1.425173282623291,-1.9614993333816528,-1.7187683582305908,-0.4597715902374732,1.074295973899991,0.26387053233238694
0.6816420555114746,0.16025280952453613,-0.011681020259857178,0.1801270842552185,-1.389833927154541,-1.9202682971954346,-1.7447270154953003,-0.4817617585262834,1.0568442618261074,0.268285536861376
0.6917152404785156,0.1419200897216797,-0.038363248109817505,0.18711167573928833,-1.3318657875061035,-1.8450332880020142,-1.752800464630127,-0.5037340838700891,1.0396206800396757,0.2717740723781539
0.7018511295318604,0.12826985120773315,-0.052797675132751465,0.1817915439605713,-1.2687405347824097,-1.7509746551513672,-1.7623732089996338,-0.5255053913489133,1.0228009814914154,0.2742094528150754
0.7123501300811768,0.12736302614212036,-0.06144052743911743,0.18373221158981323,-1.1958799362182617,-1.6534818410873413,-1.7689332962036133,-0.5470447027480049,1.006456981310777,0.27555275124363726
0.7218282222747803,0.13648176193237305,-0.06533247232437134,0.19454437494277954,-1.1260865926742554,-1.5896246433258057,-1.7607779502868652,-0.5681940733459659,0.9903506204801616,0.27576411661174677
0.7318971157073975,0.15396356582641602,-0.07943272590637207,0.20504623651504517,-1.064241647720337,-1.5305455923080444,-1.7514594793319702,-0.5888990503604433,0.9743094577349887,0.27500609825954275
0.7417271137237549,0.16018962860107422,-0.10451281070709229,0.2279163897037506,-0.996086597442627,-1.4635977745056152,-1.7462717294692993,-0.6091607239142409,0.9583135132949996,0.273229397200681
0.7518882751464844,0.14888912439346313,-0.13023525476455688,0.24173474311828613,-0.937729001045227,-1.3779281377792358,-1.7304728031158447,-0.6289599943091605,0.9424627847992646,0.27047520961323196
0.7620000839233398,0.13406598567962646,-0.1524854302406311,0.24124419689178467,-0.8763244152069092,-1.2778974771499634,-1.7025270462036133,-0.6481761987219832,0.9270188986119375,0.26686301861738987
0.7717580795288086,0.11862105131149292,-0.17649996280670166,0.2418527901172638,-0.8192518353462219,-1.1756062507629395,-1.6671565771102905,-0.6667367773270667,0.9120517085413082,0.2624683254012484
0.7819671630859375,0.10304224491119385,-0.19961589574813843,0.2461940050125122,-0.7554340362548828,-1.0533653497695923,-1.6188678741455078,-0.6845501883546711,0.8977140297509105,0.2573978355676435
0.7919173240661621,0.0910024642944336,-0.21640712022781372,0.24966871738433838,-0.6884443759918213,-0.938766598701477,-1.5560593605041504,-0.7014573505700693,0.8841003548184733,0.25169733772170033
0.8021912574768066,0.07768869400024414,-0.23287373781204224,0.24184668064117432,-0.6225111484527588,-0.8158570528030396,-1.475738525390625,-0.717327610453855,0.8713108916543149,0.24556081441608357
0.8120622634887695,0.06900030374526978,-0.24888712167739868,0.23475420475006104,-0.5347360372543335,-0.688277542591095,-1.3770958185195923,-0.7319899531896356,0.8595022892920617,0.23910205677706348
0.821951150894165,0.060711681842803955,-0.26035332679748535,0.23733249306678772,-0.433763325214386,-0.564104437828064,-1.2642643451690674,-0.7451442687459215,0.8486575530917143,0.23229544781125927
0.8318600654602051,0.05188155174255371,-0.26616084575653076,0.24225053191184998,-0.34119290113449097,-0.4465988874435425,-1.138933539390564,-0.7567201279561796,0.8388417500813061,0.22531751734383956
0.8424901962280273,0.046829938888549805,-0.27706849575042725,0.24622520804405212,-0.2560413181781769,-0.33210691809654236,-1.0083959102630615,-0.7666903902757645,0.8301817660919801,0.21841450331551646
0.853283166885376,0.043269991874694824,-0.2869717478752136,0.24798917770385742,-0.18183259665966034,-0.21538962423801422,-0.8737502694129944,-0.7750936547704191,0.8228198714446858,0.21177574357659143
0.8628652095794678,0.03592050075531006,-0.292629599571228,0.2541213035583496,-0.10827839374542236,-0.09478765726089478,-0.7304055094718933,-0.7819475579577976,0.8169539019911942,0.20559753312213117
0.872103214263916,0.031089723110198975,-0.2982672452926636,0.2593827247619629,-0.0401211753487587,0.030060265213251114,-0.5815169215202332,-0.787197075226985,0.8128190089306443,0.2000963334306753
0.8828630447387695,0.028680860996246338,-0.30389851331710815,0.2706417441368103,0.004218044225126505,0.15535929799079895,-0.43655744194984436,-0.7909885636242656,0.810452577387806,0.1953713568251932
0.8921022415161133,0.026632368564605713,-0.3125574588775635,0.2783716917037964,0.03846709430217743,0.28707417845726013,-0.3003990650177002,-0.7935193841536311,0.8099730464367385,0.1915607172326096
0.9021871089935303,0.027136027812957764,-0.31595665216445923,0.27790355682373047,0.0897604450583458,0.4213288426399231,-0.15796838700771332,-0.7947334612604868,0.8114622227350404,0.18866388938374415
0.912445068359375,0.031012356281280518,-0.3142133355140686,0.2671266794204712,0.16012968122959137,0.5503683090209961,-0.016841623932123184,-0.7945102374553082,0.814833695117578,0.18654724961172642
0.9221651554107666,0.035102784633636475,-0.3129913806915283,0.24941110610961914,0.24918964505195618,0.6788424849510193,0.12744881212711334,-0.7927025157804588,0.819869233221809,0.18497638268296568
0.9320693016052246,0.037509262561798096,-0.31073451042175293,0.2257540225982666,0.3271843194961548,0.8033266067504883,0.26365113258361816,-0.7892974553382102,0.8265061512012294,0.18385656792812805
0.9420890808105469,0.037826359272003174,-0.30528074502944946,0.210203617811203,0.3844490647315979,0.9149789810180664,0.3991502523422241,-0.7844259235536071,0.8347186992513658,0.18328060623324885
0.9521381855010986,0.041838109493255615,-0.306904673576355,0.20200246572494507,0.40534448623657227,1.0111415386199951,0.5294898748397827,-0.7783096654167302,0.8445345126347631,0.18350307550511627
0.9628982543945312,0.045576274394989014,-0.3139215111732483,0.19517681002616882,0.41764378547668457,1.1069791316986084,0.6585832834243774,-0.7711107975589117,0.8559593078268821,0.18467154008942038
0.9721732139587402,0.05003708600997925,-0.3161402940750122,0.19087833166122437,0.4323556125164032,1.1945958137512207,0.7828311920166016,-0.7628544401038335,0.8689077800842693,0.1867127388792234
0.9822101593017578,0.051222145557403564,-0.3062627911567688,0.19579577445983887,0.4507575035095215,1.2700486183166504,0.9095959067344666,-0.7535167235820265,0.8831905792627883,0.18952331711908538
0.9921631813049316,0.05461621284484863,-0.29490339756011963,0.20232272148132324,0.4753169119358063,1.342698335647583,1.042566180229187,-0.7429930638694088,0.8986458206606999,0.193006882777924
1.002230167388916,0.06014174222946167,-0.2881776690483093,0.20930147171020508,0.5328535437583923,1.4171600341796875,1.1663401126861572,-0.7311891237767285,0.9150798277232659,0.19688850912751082
1.0126922130584717,0.05994647741317749,-0.2786259055137634,0.2082139253616333,0.6112895011901855,1.4938161373138428,1.2905739545822144,-0.717923338088271,0.932185798641439,0.2007080992065629
1.02211332321167,0.058531999588012695,-0.26539677381515503,0.19087237119674683,0.6939689517021179,1.5692044496536255,1.4081758260726929,-0.7031481384591912,0.9498332346528847,0.20424664565533157
1.03218412399292,0.06491303443908691,-0.2568606734275818,0.175373375415802,0.7865082025527954,1.6346635818481445,1.5215836763381958,-0.6868883085981364,0.96786157212719,0.20732888675355488
1.0427460670471191,0.08136183023452759,-0.24782460927963257,0.16127482056617737,0.8684296607971191,1.6816504001617432,1.6273560523986816,-0.6691726916441595,0.9860516934807466,0.20983904677585336
1.0523061752319336,0.10274249315261841,-0.2389390468597412,0.14179787039756775,0.9218297600746155,1.7167021036148071,1.7234735488891602,-0.6502033499261333,1.0043113611343042,0.21186711796874602
1.0629172325134277,0.12253338098526001,-0.2339564561843872,0.1286483108997345,0.9364278316497803,1.7487343549728394,1.8098489046096802,-0.6302525365034484,1.0227369962475157,0.21367771628526047
1.072357177734375,0.13975948095321655,-0.23156219720840454,0.12514618039131165,0.910819947719574,1.7827932834625244,1.8879306316375732,-0.6095944181938546,1.0415202384399167,0.2155690107915425
1.082618236541748,0.15230166912078857,-0.2265506386756897,0.12662625312805176,0.8392817378044128,1.8129146099090576,1.9547640085220337,-0.5885233470948372,1.0608407413191905,0.21790402400380784
1.0922050476074219,0.16491812467575073,-0.22214585542678833,0.13117671012878418,0.7340373396873474,1.8528982400894165,2.010406017303467,-0.5673058846054452,1.0808915412995237,0.2209944055776275
1.102647304534912,0.17791706323623657,-0.21723121404647827,0.13772529363632202,0.6109642386436462,1.8999922275543213,2.052720546722412,-0.5461319480129184,1.1017991251155113,0.22502335673221394
1.1128931045532227,0.1932414174079895,-0.20663362741470337,0.14403262734413147,0.5040380358695984,1.9379860162734985,2.078494071960449,-0.525113670728742,1.1235146137055703,0.22985779570968654
1.122995138168335,0.212008535861969,-0.1930883228778839,0.15043240785598755,0.3976198136806488,1.9614224433898926,2.1091957092285156,-0.5042056513298295,1.1457479870817222,0.23534031905149028
1.1324021816253662,0.23468559980392456,-0.1738579273223877,0.15668439865112305,0.30634504556655884,1.965648889541626,2.128748655319214,-0.48335388675308233,1.1682841747293524,0.24137813381063117
1.1420981884002686,0.25052452087402344,-0.15962395071983337,0.15839442610740662,0.2609643042087555,1.9788302183151245,2.13924503326416,-0.46253082246948946,1.1908678860900037,0.24763139773172946
1.1523611545562744,0.2569785714149475,-0.1387365758419037,0.15687265992164612,0.269365519285202,2.029823064804077,2.145673990249634,-0.4415668118616904,1.2135259252103923,0.25351861786407026
1.1626131534576416,0.2528228759765625,-0.10651662945747375,0.14696460962295532,0.32781872153282166,2.0215566158294678,2.123037815093994,-0.42044593182619544,1.2359771266436457,0.2584617117192804
1.1725010871887207,0.2564980387687683,-0.08093753457069397,0.14707469940185547,0.3853912055492401,1.9970430135726929,2.091038227081299,-0.3993109160681985,1.257556789299998,0.26210187116508143
1.1827151775360107,0.2740141749382019,-0.05900588631629944,0.13954731822013855,0.4524643123149872,1.968936800956726,2.0492892265319824,-0.37826488120633744,1.2782934306733236,0.2644543663120976
1.1975111961364746,0.27739131450653076,-0.03481343388557434,0.1208508312702179,0.5359418988227844,1.9705146551132202,2.004483938217163,-0.35739085430018713,1.2983767955518641,0.2654499697437987
1.204038143157959,0.26623958349227905,-0.002654850482940674,0.10027942061424255,0.6361761093139648,1.978614091873169,1.9549717903137207,-0.33670940483731227,1.3179836720010598,0.2648986764919117
1.2134711742401123,0.262015163898468,0.023411035537719727,0.07239599525928497,0.7123912572860718,1.9678932428359985,1.9017919301986694,-0.31632585738173963,1.3371158585319296,0.2628758552488291
1.2220711708068848,0.2593699097633362,0.04302269220352173,0.04698081314563751,0.7461127638816833,1.9430673122406006,1.8360216617584229,-0.29644413976666273,1.3557657078144973,0.25974959101292866
1.232424259185791,0.25467145442962646,0.053580135107040405,0.02010156214237213,0.7318994402885437,1.919577717781067,1.7638916969299316,-0.27727536923425783,1.3740539853025557,0.2560142949950785
1.2422511577606201,0.24323123693466187,0.05867880582809448,-0.011109456419944763,0.6740339994430542,1.9070405960083008,1.6819593906402588,-0.25899577756192316,1.3922020687908427,0.25215960442293717
1.252243995666504,0.22908639907836914,0.060924261808395386,-0.04200594127178192,0.5877222418785095,1.8912898302078247,1.5898361206054688,-0.2417784388103517,1.410355064399772,0.2485850919899285
1.2622981071472168,0.22091352939605713,0.06423816084861755,-0.0670730471611023,0.48035427927970886,1.8535934686660767,1.5023515224456787,-0.2256667034009962,1.4284389272238398,0.24556017302353325
1.2721421718597412,0.21759337186813354,0.07506518065929413,-0.0855671763420105,0.36830177903175354,1.7854362726211548,1.4167990684509277,-0.21062252543261722,1.446187031439381,0.24325229030078646
1.2824220657348633,0.20758962631225586,0.09127509593963623,-0.09326714277267456,0.25163960456848145,1.7193999290466309,1.3275656700134277,-0.19661021690140315,1.4634441091766768,0.24173525484518188
1.2922651767730713,0.1859288215637207,0.10344217717647552,-0.10503876954317093,0.13347087800502777,1.6745128631591797,1.246192216873169,-0.1835982817799767,1.4803148224515226,0.2410845508970632
1.3021011352539062,0.16341328620910645,0.11830848455429077,-0.11526478081941605,0.02508925274014473,1.6128350496292114,1.156248688697815,-0.17154841058966575,1.4968445840065592,0.2412977347200581
1.3124961853027344,0.14865899085998535,0.12774936854839325,-0.12897807359695435,-0.06624491512775421,1.5516260862350464,1.079496145248413,-0.16038238467555563,1.5128877712528923,0.24228186240789829
1.3222031593322754,0.14083290100097656,0.14036373794078827,-0.15179908275604248,-0.13241443037986755,1.4740442037582397,1.002264380455017,-0.15002382524760333,1.528303528709075,0.2438355834280942
1.3323140144348145,0.13078927993774414,0.1534562110900879,-0.17504793405532837,-0.1994461864233017,1.3905370235443115,0.9227168560028076,-0.140446783323857,1.5429757597018696,0.24585718147364324
1.3424873352050781,0.11720949411392212,0.16187259554862976,-0.1949979066848755,-0.2705514132976532,1.318699598312378,0.8417689204216003,-0.13165927425513407,1.5569181007467339,0.24841267780576531
1.3524012565612793,0.10814058780670166,0.16620251536369324,-0.21977919340133667,-0.3389166295528412,1.2454410791397095,0.7667959332466125,-0.12361707054418523,1.5702034795270186,0.25156121489555455
1.3627653121948242,0.10444796085357666,0.17681145668029785,-0.23678183555603027,-0.3966669738292694,1.160237193107605,0.6965422034263611,-0.11626647292382337,1.5827445233528317,0.25522835442666747
1.3724002838134766,0.10437041521072388,0.18814341723918915,-0.24709618091583252,-0.45087936520576477,1.0530110597610474,0.6256941556930542,-0.1095609930703583,1.5943572782153541,0.2593798923789119
1.3824942111968994,0.10223859548568726,0.19295620918273926,-0.25278329849243164,-0.49949216842651367,0.9406477808952332,0.5616067051887512,-0.1034623792845945,1.6048810220708647,0.26400193383207743
1.392472267150879,0.08839213848114014,0.19466158747673035,-0.26372456550598145,-0.5360507369041443,0.8485136032104492,0.5009779334068298,-0.09791422024661617,1.6143912519637433,0.26901568229508
1.4027390480041504,0.0662691593170166,0.19774878025054932,-0.27941787242889404,-0.5672152042388916,0.7721701264381409,0.43585965037345886,-0.09294282393898536,1.6230770243368415,0.2743373632805667
1.4132962226867676,0.04552054405212402,0.20258811116218567,-0.29735100269317627,-0.599303126335144,0.6985478401184082,0.3702920973300934,-0.08855846678642168,1.6310386948570452,0.27997875586864684
1.422577142715454,0.03849029541015625,0.20411044359207153,-0.31317245960235596,-0.6413100361824036,0.6055757999420166,0.3050670027732849,-0.08476358241108169,1.6381829386561344,0.2859807241138884
1.4326300621032715,0.04287689924240112,0.20406952500343323,-0.32797110080718994,-0.6919556260108948,0.4887593984603882,0.24363906681537628,-0.08152795509511977,1.6442860677239752,0.29247699725274695
1.442629337310791,0.04377931356430054,0.20096509158611298,-0.3387925624847412,-0.75185227394104,0.36345016956329346,0.18690352141857147,-0.07881004788062428,1.649200582495794,0.2995494537682718
1.4526422023773193,0.03245574235916138,0.19886425137519836,-0.34253501892089844,-0.8045628666877747,0.24258634448051453,0.1330205798149109,-0.0765553271084373,1.6528908788500116,0.30722244557761774
1.4628663063049316,0.007022976875305176,0.1992562860250473,-0.3447000980377197,-0.84677654504776,0.13840290904045105,0.08185885846614838,-0.07476963840133102,1.6554730380579108,0.3153979521237868
1.4724512100219727,-0.02391129732131958,0.20178279280662537,-0.34682929515838623,-0.8818849921226501,0.05086905136704445,0.032018858939409256,-0.07342964482775689,1.6571160534009122,0.3240108925581313
1.4828832149505615,-0.05112642049789429,0.203197181224823,-0.3466529846191406,-0.9028384685516357,-0.023407043889164925,-0.012521550059318542,-0.07253167633095224,1.6579464663795551,0.3329506028940278
1.492727279663086,-0.0705573558807373,0.20725303888320923,-0.3452235460281372,-0.9075115323066711,-0.08884862810373306,-0.056659452617168427,-0.07206038674663241,1.6580866428513903,0.34204512831114575
1.5030303001403809,-0.07949453592300415,0.2153429090976715,-0.3447216749191284,-0.8892467617988586,-0.1730426400899887,-0.0949682742357254,-0.0720117855606002,1.6574737366683894,0.35110680418463597
1.513120174407959,-0.07975107431411743,0.2235402762889862,-0.34073758125305176,-0.8517396450042725,-0.2619229853153229,-0.13014037907123566,-0.07237553490546746,1.6559542850459328,0.3599179920298361
1.5226902961730957,-0.08366668224334717,0.23387283086776733,-0.336517333984375,-0.7987096905708313,-0.34371718764305115,-0.1644085943698883,-0.0731381376536462,1.6535395779007496,0.36829905277438374
1.5328741073608398,-0.08973127603530884,0.23849162459373474,-0.3342999219894409,-0.7377816438674927,-0.4181906282901764,-0.19759665429592133,-0.07430560150446001,1.6503179553998386,0.3761368715632379
1.5427112579345703,-0.09500277042388916,0.24176371097564697,-0.3275676965713501,-0.6769149899482727,-0.49078595638275146,-0.22930856049060822,-0.07587497845892373,1.6463335156215808,0.38338570264570876
1.5529823303222656,-0.09828364849090576,0.2435830980539322,-0.31375789642333984,-0.6139972805976868,-0.560604453086853,-0.2533893883228302,-0.07779966818829727,1.6415868475430213,0.3900195025118126
1.5639562606811523,-0.10465198755264282,0.24246490001678467,-0.2962503433227539,-0.5439631938934326,-0.6076865196228027,-0.27723050117492676,-0.08005403193363106,1.636192922642844,0.3960100482955405
1.5730962753295898,-0.11556464433670044,0.2400330901145935,-0.2832537889480591,-0.4663133919239044,-0.6369669437408447,-0.2978383004665375,-0.08260109455004574,1.6303808800318846,0.40126096541704365
1.582961082458496,-0.12261664867401123,0.24294039607048035,-0.27203094959259033,-0.37638169527053833,-0.6649621725082397,-0.31701919436454773,-0.08542577408500966,1.6242364223790966,0.4056712048684495
1.5928571224212646,-0.12138944864273071,0.24708247184753418,-0.26498138904571533,-0.29965949058532715,-0.6949381828308105,-0.3420398533344269,-0.08854340379953976,1.6177321588750033,0.4092149895196804
1.6030681133270264,-0.11204105615615845,0.24659685790538788,-0.2724341154098511,-0.2497834861278534,-0.7312418222427368,-0.36557766795158386,-0.09195735773800132,1.6108664535739852,0.41212041051772424
1.6130502223968506,-0.09299361705780029,0.23625342547893524,-0.268085241317749,-0.21087975800037384,-0.7846344709396362,-0.392275869846344,-0.09566424215291222,1.6035174723945893,0.4145622043154384
1.6228001117706299,-0.07738584280014038,0.22680358588695526,-0.25994086265563965,-0.1924079954624176,-0.8322880268096924,-0.42365023493766785,-0.0996858817032328,1.5956180825028967,0.41668901507131184
1.6328861713409424,-0.06520462036132812,0.2183740884065628,-0.26397037506103516,-0.2082226425409317,-0.8466746807098389,-0.4667002260684967,-0.10409469025838915,1.587420838021074,0.4187847695083291
1.6427891254425049,-0.04425382614135742,0.20371723175048828,-0.26924872398376465,-0.21708184480667114,-0.8887760043144226,-0.5108970999717712,-0.10895241107576123,1.57900062374249,0.4210003318523009
1.6528851985931396,-0.013342082500457764,0.19460763037204742,-0.25523966550827026,-0.23640014231204987,-0.9525107741355896,-0.5585090517997742,-0.11429583632373398,1.5700342376899896,0.4232929191404796
1.6629111766815186,0.013046801090240479,0.19722193479537964,-0.23718500137329102,-0.2688806653022766,-1.0227779150009155,-0.6109272241592407,-0.12015988711006902,1.5604393354363826,0.425800000816911
1.672816276550293,0.03425097465515137,0.1883876919746399,-0.20924365520477295,-0.321112722158432,-1.1133099794387817,-0.6751818656921387,-0.12663246647476933,1.5501059108165827,0.4286623674898465
1.6828303337097168,0.04545563459396362,0.17432165145874023,-0.17769789695739746,-0.38415399193763733,-1.1839133501052856,-0.7497661709785461,-0.1338474015708378,1.5390065089372384,0.4320270004146426
1.6929101943969727,0.04786217212677002,0.16830845177173615,-0.15975689888000488,-0.43708670139312744,-1.2200090885162354,-0.8364917635917664,-0.1419209120670151,1.5274982598825508,0.43587993435256334
1.7029781341552734,0.04839658737182617,0.17042005062103271,-0.14629101753234863,-0.46299856901168823,-1.2546275854110718,-0.9288214445114136,-0.15096879017890144,1.5157037124599664,0.44000992861602545
1.7131531238555908,0.05851757526397705,0.17469829320907593,-0.136549711227417,-0.4676596224308014,-1.2785084247589111,-1.0171531438827515,-0.16097216703175815,1.5036541256405103,0.4441271570548593
1.7229981422424316,0.07349157333374023,0.18703213334083557,-0.13375626504421234,-0.45995205640792847,-1.3128767013549805,-1.1013246774673462,-0.1718755494091607,1.4913395955464763,0.44802681406252626
1.7330341339111328,0.09683102369308472,0.19060413539409637,-0.13708049058914185,-0.47869136929512024,-1.3444287776947021,-1.1912033557891846,-0.18370308923776701,1.478674842748394,0.45176741593750497
1.743058204650879,0.12225866317749023,0.18321344256401062,-0.13722790777683258,-0.4984731674194336,-1.3613600730895996,-1.286464810371399,-0.19652823903063374,1.4658242711234828,0.45549409132796975
1.7531712055206299,0.14617860317230225,0.1798749417066574,-0.12484169006347656,-0.4787127673625946,-1.3861682415008545,-1.3905783891677856,-0.2103758055074736,1.4527465683761378,0.4589158922162012
1.7632191181182861,0.17080652713775635,0.18854305148124695,-0.1371564269065857,-0.4897806644439697,-1.4019032716751099,-1.5000994205474854,-0.22533096066163621,1.4394481017947904,0.4619768962634221
1.7729771137237549,0.20003342628479004,0.21029801666736603,-0.14705699682235718,-0.5073633193969727,-1.4540756940841675,-1.611011266708374,-0.2414427890513579,1.4258329555998643,0.4648531553046127
1.7830290794372559,0.23199331760406494,0.2005728781223297,-0.12584732472896576,-0.5239365100860596,-1.5139384269714355,-1.7302223443984985,-0.25875633544146953,1.411595841207876,0.46750098126795936
1.792983055114746,0.24798911809921265,0.18008410930633545,-0.10062956809997559,-0.5220328569412231,-1.5513737201690674,-1.868934988975525,-0.2773933520088798,1.3967792833317283,0.46974872809575996
1.8030400276184082,0.2517542243003845,0.16117870807647705,-0.07410800457000732,-0.5404080152511597,-1.6028633117675781,-2.012864828109741,-0.29747386280984506,1.381384482380207,0.4715026409077386
1.813277244567871,0.2544841170310974,0.14058023691177368,-0.04246288537979126,-0.5484310388565063,-1.6538434028625488,-2.144496440887451,-0.3189472595164661,1.3654349377566561,0.4728066766339578
1.8231301307678223,0.26084083318710327,0.12177866697311401,-0.01652395725250244,-0.5765640139579773,-1.6957263946533203,-2.2781357765197754,-0.341776113410211,1.348897317610637,0.473623849878435
1.8332171440124512,0.26370054483413696,0.10646834969520569,-0.01677381992340088,-0.6360326409339905,-1.7315586805343628,-2.4014968872070312,-0.3659877842182213,1.3319340610353614,0.4742031335269383
1.843076229095459,0.26973557472229004,0.09484878182411194,-0.007834896445274353,-0.6918202042579651,-1.7626677751541138,-2.501934766769409,-0.3914350201904247,1.3145891302285144,0.47465908865526113
1.8533010482788086,0.2791370153427124,0.08893603086471558,0.012183979153633118,-0.7231869101524353,-1.7789177894592285,-2.5815467834472656,-0.4178702783366718,1.296912371342216,0.4748598645194426
1.8637990951538086,0.2872942090034485,0.08557122945785522,0.03831058740615845,-0.6967818140983582,-1.784254550933838,-2.6526334285736084,-0.4450255905993359,1.2788576474642015,0.47435018853076294
1.8733820915222168,0.29213184118270874,0.08722558617591858,0.050823479890823364,-0.6732996702194214,-1.7875860929489136,-2.7051100730895996,-0.4726926845116232,1.260261915043338,0.4727772394827632
1.8842132091522217,0.29875797033309937,0.08524531126022339,0.052355289459228516,-0.6477413177490234,-1.7901192903518677,-2.739710807800293,-0.5006561462826761,1.2411258765466162,0.47016785844475933
1.8934392929077148,0.30201804637908936,0.05854392051696777,0.07050162553787231,-0.5970610976219177,-1.7831734418869019,-2.7684388160705566,-0.5287383177873892,1.2213615600105243,0.4663852928871507
1.903414249420166,0.2915065884590149,0.022470951080322266,0.07043337821960449,-0.5542402863502502,-1.7445448637008667,-2.7881834506988525,-0.5568069178012863,1.2010107275175932,0.46123767841791136
1.9134039878845215,0.27660518884658813,-0.007382869720458984,0.05429494380950928,-0.5138012766838074,-1.6925424337387085,-2.7967417240142822,-0.5847603471841204,1.1803177585784659,0.4548074346025651
1.9233312606811523,0.26670944690704346,-0.04329860210418701,0.06152024865150452,-0.45889076590538025,-1.642122745513916,-2.786769151687622,-0.6124066953971774,1.1592302770467364,0.44700968744225117
1.9333000183105469,0.2582474946975708,-0.07792896032333374,0.07428109645843506,-0.43318647146224976,-1.5839643478393555,-2.7633259296417236,-0.639569183849554,1.1377653126334306,0.43794393524126324
1.943331241607666,0.2518637180328369,-0.10454338788986206,0.09460768103599548,-0.44764241576194763,-1.5256221294403076,-2.742257595062256,-0.6663534596577759,1.1161720734471132,0.42804306390249175
1.9534671306610107,0.24068260192871094,-0.1284223198890686,0.12545692920684814,-0.4533916711807251,-1.4399125576019287,-2.694730043411255,-0.6927369702363998,1.094695307936397,0.4175281063232479
1.9635863304138184,0.22755318880081177,-0.14790856838226318,0.15560507774353027,-0.41806790232658386,-1.3414525985717773,-2.634169816970825,-0.7183551500385017,1.0734217971885789,0.40620939432630115
1.9733641147613525,0.2109343409538269,-0.1600000262260437,0.17110365629196167,-0.3807615637779236,-1.223799467086792,-2.5762369632720947,-0.7430960756294864,1.0523380896156882,0.3938844133931182
1.983469009399414,0.19919055700302124,-0.15323978662490845,0.16953426599502563,-0.30515310168266296,-1.1094812154769897,-2.4940056800842285,-0.7667701351691502,1.0314289447217297,0.38039199446077854
1.994387149810791,0.20347243547439575,-0.15326833724975586,0.1762639880180359,-0.17233431339263916,-1.0257331132888794,-2.388042688369751,-0.7888707335619876,1.0101932136259015,0.3653454048291428
2.0040972232818604,0.2102685570716858,-0.17537498474121094,0.17637938261032104,-0.041115932166576385,-0.9603706002235413,-2.284545660018921,-0.8091038445491822,0.9881413450451689,0.3484621012344935
2.0135231018066406,0.20489168167114258,-0.20334208011627197,0.16131556034088135,0.07374966889619827,-0.8843967318534851,-2.1804912090301514,-0.8275423060509455,0.9654159946968183,0.3299801199960434
2.0234270095825195,0.19345927238464355,-0.23870915174484253,0.1574000120162964,0.17416872084140778,-0.8007645606994629,-2.0710558891296387,-0.8441728996591391,0.9421968412914568,0.31007190043144844
2.0334091186523438,0.1753380298614502,-0.2693897485733032,0.16375112533569336,0.24291661381721497,-0.7180063128471375,-1.9537044763565063,-0.8590826113227813,0.9189348057108718,0.28925197116303725
2.0433461666107178,0.15744775533676147,-0.2870365381240845,0.1834457814693451,0.3028799593448639,-0.6404368877410889,-1.8227002620697021,-0.8723022119708267,0.895927477924794,0.2679645619540845
2.053392171859741,0.14872589707374573,-0.31015545129776,0.20651912689208984,0.3307938873767853,-0.5773867964744568,-1.6834402084350586,-0.8838455102692577,0.8734482633822404,0.24666195280254108
2.0633552074432373,0.14280778169631958,-0.33148038387298584,0.21824470162391663,0.3206295967102051,-0.5174251794815063,-1.549133539199829,-0.8940031278643793,0.8519469241469985,0.22601898197439563
2.073371171951294,0.1337466835975647,-0.3476525545120239,0.21598899364471436,0.29736050963401794,-0.45730966329574585,-1.4112029075622559,-0.9029916691686134,0.8317731904887605,0.20647591581439412
2.083526134490967,0.12850570678710938,-0.3586549162864685,0.2097882628440857,0.25431814789772034,-0.3893493711948395,-1.2959628105163574,-0.9110420945307207,0.8131723816651367,0.1882413455376069
2.0934691429138184,0.12911155819892883,-0.34210240840911865,0.20463252067565918,0.23076702654361725,-0.3353641629219055,-1.1736527681350708,-0.9182759699953867,0.7961799897564145,0.17132957181344385
2.103404998779297,0.14118710160255432,-0.32222235202789307,0.20867487788200378,0.2091449797153473,-0.3213287889957428,-1.0392916202545166,-0.924562676652548,0.7805862312380314,0.15585280650320493
2.113389015197754,0.15563461184501648,-0.3285674452781677,0.22495901584625244,0.1844439059495926,-0.3001105785369873,-0.9220685958862305,-0.930000736328183,0.7663098143330559,0.14188348726782948
2.1234521865844727,0.15460354089736938,-0.34296756982803345,0.23958337306976318,0.16015805304050446,-0.2601495683193207,-0.8200048804283142,-0.9347563555480932,0.7534163903931838,0.1293107284183446
2.1339731216430664,0.14655789732933044,-0.3448222875595093,0.24582010507583618,0.13376186788082123,-0.21219027042388916,-0.7149210572242737,-0.9388920647847958,0.7420954791854802,0.11816755974680085
2.143613338470459,0.14402922987937927,-0.3405763506889343,0.2469715178012848,0.10843289643526077,-0.1686030626296997,-0.6125282049179077,-0.9424328466520818,0.7325724656186756,0.10862637140776825
2.1535792350769043,0.14459866285324097,-0.33965200185775757,0.25014233589172363,0.08186653256416321,-0.1311398446559906,-0.5136833786964417,-0.9454612824515225,0.7246130113408092,0.10055046374498494
2.1636102199554443,0.15133997797966003,-0.3394303321838379,0.2460748553276062,0.04200974851846695,-0.09598288685083389,-0.41245636343955994,-0.9480328282995217,0.718162821330047,0.09395828597276783
2.1735711097717285,0.15907061100006104,-0.343808650970459,0.23832100629806519,-0.011585836298763752,-0.054293230175971985,-0.3161138594150543,-0.9503106982988335,0.7134749813767679,0.08910168232834302
2.183715343475342,0.15806180238723755,-0.345930278301239,0.2355232834815979,-0.05309240147471428,0.000697938259691,-0.21313919126987457,-0.9523091846260069,0.7107250934484122,0.08604193482486222
2.197280168533325,0.15479940176010132,-0.3368772864341736,0.23439151048660278,-0.07787205278873444,0.06620503962039948,-0.10111597180366516,-0.9538293638820653,0.7100220544760686,0.08474961102425903
2.20463228225708,0.15558308362960815,-0.32602572441101074,0.23831325769424438,-0.08784051239490509,0.12163993716239929,0.008371534757316113,-0.9547750121080809,0.7112625152241404,0.08510814590625781
2.2138671875,0.1572430431842804,-0.32183074951171875,0.2387453317642212,-0.07593857496976852,0.17963241040706635,0.12440866231918335,-0.9549619704717004,0.7142562097243716,0.08692362862440815
2.2236971855163574,0.15682265162467957,-0.3148191571235657,0.21510428190231323,-0.06285634636878967,0.24984678626060486,0.23184360563755035,-0.9543147365701543,0.7189770213913677,0.09007385350550524
2.233741283416748,0.15271055698394775,-0.30086749792099,0.19400441646575928,-0.042958807200193405,0.3160705268383026,0.3446769416332245,-0.9528034015577107,0.7253747524742701,0.09443067647463561
2.245422124862671,0.15010833740234375,-0.29363876581192017,0.18486881256103516,-0.020622441545128822,0.3813108801841736,0.4553373157978058,-0.9503649057176506,0.7333728186582156,0.09995686169771358
2.254599094390869,0.14576059579849243,-0.29304754734039307,0.17801809310913086,0.0009249290451407433,0.4516090154647827,0.5581163763999939,-0.9470199802449086,0.7428966282454208,0.10652701264714122
2.2643041610717773,0.1372458040714264,-0.2938472628593445,0.17394065856933594,0.0276003647595644,0.5192258954048157,0.6562827229499817,-0.9427851863678965,0.7538080363698693,0.11398206020629831
2.2736740112304688,0.1292123794555664,-0.29618018865585327,0.17774224281311035,0.04615194723010063,0.5752931833267212,0.7521895170211792,-0.9376580694356423,0.7659653560842301,0.1222367171193451
2.284320116043091,0.12346246838569641,-0.289717435836792,0.17859011888504028,0.07303441315889359,0.6265964508056641,0.8489007353782654,-0.9316341427007515,0.7792063400259132,0.1312107368553725
2.294867992401123,0.1213575005531311,-0.2787579298019409,0.17224791646003723,0.10531831532716751,0.6775690913200378,0.9446935653686523,-0.9246517942581254,0.7933951913903995,0.14076830352043362
2.3036341667175293,0.11785349249839783,-0.26836490631103516,0.1630941927433014,0.12940829992294312,0.7261973023414612,1.0421634912490845,-0.9166827573122884,0.8084316247425153,0.15081710202855952
2.3135952949523926,0.11263996362686157,-0.25796908140182495,0.1496402621269226,0.13994856178760529,0.7671854496002197,1.1373786926269531,-0.9077988863684069,0.8243112692614865,0.16143527275547212
2.323634147644043,0.10773590207099915,-0.25123512744903564,0.13840484619140625,0.1354738026857376,0.8129897713661194,1.226806640625,-0.8981079546599785,0.8410278020949824,0.17265253300367941
2.3336572647094727,0.10291758179664612,-0.24200505018234253,0.1255372166633606,0.1142425537109375,0.8588805794715881,1.3083488941192627,-0.887745303462212,0.8586633026423988,0.18454052629356374
2.343515157699585,0.10401937365531921,-0.2206745743751526,0.1155565083026886,0.10657462477684021,0.8963820338249207,1.3915923833847046,-0.8767250025850333,0.8770636026209053,0.1969801912370475
2.3538103103637695,0.10672295093536377,-0.20130592584609985,0.10431048274040222,0.09643091261386871,0.9260954856872559,1.4727694988250732,-0.8649680323218376,0.8960323021566455,0.20984077644383567
2.363793134689331,0.10785830020904541,-0.1892802119255066,0.09409114718437195,0.08270178735256195,0.9614436030387878,1.544456958770752,-0.8525179295078175,0.9154686781176108,0.22303727426846032
2.373767137527466,0.09912651777267456,-0.18819552659988403,0.0885583758354187,0.07162276655435562,1.0058449506759644,1.6098476648330688,-0.8394434370356365,0.9353595906735339,0.2364550200916179
2.3838071823120117,0.09055787324905396,-0.1881943941116333,0.08147817850112915,0.08790260553359985,1.0578268766403198,1.6776094436645508,-0.8256339622296113,0.955573747877943,0.24980322410770506
2.3947181701660156,0.08805418014526367,-0.17797410488128662,0.06338715553283691,0.11294617503881454,1.0978518724441528,1.7404680252075195,-0.810992456748924,0.9759067426558156,0.2628486643011753
2.4042811393737793,0.09000736474990845,-0.15767055749893188,0.04855486750602722,0.15874558687210083,1.1310491561889648,1.8103822469711304,-0.7954211725380672,0.9960785311886423,0.2753721892030693
2.413778305053711,0.09061729907989502,-0.13805437088012695,0.03902226686477661,0.20462067425251007,1.1627423763275146,1.885101556777954,-0.7788074595767257,1.015975151694652,0.28723121938101037
2.4241223335266113,0.09025996923446655,-0.11959952116012573,0.023606091737747192,0.23840798437595367,1.1950496435165405,1.9636222124099731,-0.7611778364286282,1.0356425927322492,0.29851366227193415
2.4348411560058594,0.09002304077148438,-0.10973823070526123,0.01658177375793457,0.2747950255870819,1.2276984453201294,2.0442450046539307,-0.7425376016269981,1.055126023207487,0.30927501824604947
2.4455370903015137,0.08808547258377075,-0.10483860969543457,0.015463471412658691,0.315090537071228,1.2609540224075317,2.119006633758545,-0.7228707554260757,1.0743511512391268,0.3193898753252674
2.4538052082061768,0.08694976568222046,-0.09599864482879639,0.012687087059020996,0.3423474431037903,1.2975285053253174,2.1802093982696533,-0.7023147649132808,1.0933611566437098,0.32886662421530766
2.464217185974121,0.08610957860946655,-0.08329010009765625,0.016617238521575928,0.3850424885749817,1.3286116123199463,2.240128755569458,-0.6809210576655015,1.1121166529415043,0.3376402591781372
2.4740819931030273,0.08997690677642822,-0.06839108467102051,0.022472858428955078,0.4520236551761627,1.3577995300292969,2.290597915649414,-0.6586650703732012,1.1303949155072917,0.3454062952739773
2.4838032722473145,0.09761989116668701,-0.04468351602554321,0.011723160743713379,0.5227476358413696,1.3839293718338013,2.329416275024414,-0.6356046671699689,1.1481166601040074,0.35199805607072465
2.495398998260498,0.10278534889221191,-0.02487337589263916,0.00034922361373901367,0.5911943316459656,1.3974677324295044,2.358124256134033,-0.6118564562873516,1.1651857602644702,0.3573415344127128
2.5039663314819336,0.1085246205329895,-0.014389753341674805,-0.004645615816116333,0.6504695415496826,1.4131708145141602,2.3756356239318848,-0.5875847115724722,1.1816210495958694,0.3615159217663378
2.513944149017334,0.11508429050445557,-0.002964198589324951,-0.0018699169158935547,0.7000696063041687,1.4256455898284912,2.3870041370391846,-0.5629282167302542,1.1975148997486935,0.3646104177886958
2.5239341259002686,0.1226760745048523,0.007329404354095459,0.0005780160427093506,0.732921302318573,1.4346840381622314,2.3865840435028076,-0.5380306556243362,1.212961140719091,0.3667648065992401
2.534642219543457,0.12911784648895264,0.014720350503921509,0.007448107004165649,0.753926694393158,1.4471486806869507,2.3811094760894775,-0.5130464930355706,1.2280915929564356,0.3681510217029323
2.5464751720428467,0.13888072967529297,0.024555951356887817,0.011127263307571411,0.7614588737487793,1.449263095855713,2.369080066680908,-0.48807721809841614,1.2429794139905548,0.368909062840126
2.5542702674865723,0.1477346420288086,0.03467065095901489,0.014013290405273438,0.7603645920753479,1.4492943286895752,2.3513872623443604,-0.4632421548730146,1.2576052873357877,0.3691530212251123
2.5639641284942627,0.1537877321243286,0.04651042819023132,0.012458741664886475,0.7468405365943909,1.4619642496109009,2.3254482746124268,-0.4386263064334285,1.2721250904374575,0.3689935868726395
2.5741331577301025,0.15378224849700928,0.05847582221031189,0.005936294794082642,0.7306317687034607,1.4499648809432983,2.2776474952697754,-0.41442092867881736,1.286580109236159,0.3685295558238316
2.5840539932250977,0.15771371126174927,0.06509119272232056,0.007797658443450928,0.7093879580497742,1.4357991218566895,2.2247190475463867,-0.39076154264156265,1.3007070290164646,0.36770100897880753
2.596132278442383,0.17541539669036865,0.07977566123008728,0.0009473562240600586,0.6942538022994995,1.4062668085098267,2.1623587608337402,-0.3677095963329959,1.3145289361205867,0.366551690301505
2.604055166244507,0.1862630844116211,0.0919913649559021,-0.003371596336364746,0.6713683605194092,1.3706395626068115,2.0876686573028564,-0.34539234040735606,1.3279410680010573,0.3651048052869312
2.6140711307525635,0.18829673528671265,0.09977108240127563,-0.002827942371368408,0.6558695435523987,1.3402284383773804,2.0008466243743896,-0.32392428387287586,1.3409458973574357,0.3633463404175475
2.6240251064300537,0.18217992782592773,0.11335527896881104,-0.01154772937297821,0.6381204128265381,1.305043339729309,1.9052133560180664,-0.30340280104022876,1.3535553505269846,0.3612636732401268
2.6343650817871094,0.1698644757270813,0.12593922019004822,-0.02260449528694153,0.607580840587616,1.277017593383789,1.8007551431655884,-0.2839430197703642,1.365815538553754,0.358955696113104
2.6454720497131348,0.1584877371788025,0.1299525499343872,-0.03276689350605011,0.5536260008811951,1.2606757879257202,1.6910088062286377,-0.26564743357503706,1.3779019433199753,0.3566166804415293
2.6541380882263184,0.15163904428482056,0.13010403513908386,-0.03965510427951813,0.4808596670627594,1.2235963344573975,1.5777109861373901,-0.24859292801886207,1.3898368073936682,0.3544948260368534
2.6645021438598633,0.15172690153121948,0.12620630860328674,-0.03376716375350952,0.3925577402114868,1.171800971031189,1.465515375137329,-0.2328250525221328,1.4014380888997795,0.3527780568788033
2.6744561195373535,0.15037775039672852,0.12405367195606232,-0.022826731204986572,0.30670249462127686,1.1345089673995972,1.3561465740203857,-0.21831354552881965,1.4127309515614765,0.35162066546883486
2.6843841075897217,0.14005905389785767,0.12092381715774536,-0.012153491377830505,0.25533348321914673,1.1152207851409912,1.2468976974487305,-0.20500245673769243,1.4238375877249396,0.3508262831390469
2.6960911750793457,0.12448567152023315,0.1273047775030136,-0.015200898051261902,0.23197409510612488,1.093402624130249,1.1455026865005493,-0.1927960336989491,1.4347809894027252,0.3500958248921742
2.7042040824890137,0.11404865980148315,0.1482008397579193,-0.02257554978132248,0.21851560473442078,1.0481709241867065,1.0438032150268555,-0.18162291099689826,1.445370985488759,0.3492715226461625
2.7142651081085205,0.10626846551895142,0.15660099685192108,-0.03935258835554123,0.2164873480796814,1.012946367263794,0.9459800720214844,-0.171462620799892,1.4555433680917982,0.34830865390392957
2.7243642807006836,0.09492456912994385,0.15795409679412842,-0.06751762330532074,0.21781307458877563,0.9928256869316101,0.8481821417808533,-0.16229163698633126,1.4654109603965595,0.3471228665870227
2.7343010902404785,0.08444708585739136,0.15913857519626617,-0.09321539849042892,0.2063569575548172,0.9592634439468384,0.7548239827156067,-0.15409254183822846,1.4750185676266632,0.34580140831219386
2.7453413009643555,0.08265936374664307,0.1552223414182663,-0.10594093799591064,0.1670190393924713,0.8997507095336914,0.6695087552070618,-0.14681819860670847,1.4841697453152765,0.34456412179818385
2.7544212341308594,0.07732337713241577,0.14669963717460632,-0.11078052967786789,0.11011901497840881,0.8436443209648132,0.5867552757263184,-0.14042828433797472,1.4927880928425172,0.34367600291947986
2.7642102241516113,0.06221884489059448,0.13868089020252228,-0.11456483602523804,0.0220381710678339,0.7943792343139648,0.512596070766449,-0.134890638709049,1.5009700425203745,0.34340567889078505
2.7741761207580566,0.04525834321975708,0.12737564742565155,-0.11908835917711258,-0.08677060157060623,0.7447733283042908,0.44447803497314453,-0.13013244057753004,1.5087788600556093,0.34403903076745795
2.7841882705688477,0.03132587671279907,0.11092428863048553,-0.12036515027284622,-0.1892530620098114,0.6983915567398071,0.37946224212646484,-0.1260886138745659,1.5162478196945186,0.3456679750216831
2.79592227935791,0.01652282476425171,0.10788757354021072,-0.12411326169967651,-0.2897602319717407,0.6508133411407471,0.32337766885757446,-0.12269037216652724,1.5233468066872677,0.34825288938025434
2.804302215576172,0.004427909851074219,0.11494426429271698,-0.13358759880065918,-0.38880041241645813,0.5946738719940186,0.27357491850852966,-0.11985479829557327,1.5300385154474605,0.3518267976733878
2.8143982887268066,-0.0016084909439086914,0.11620667576789856,-0.1422133445739746,-0.46425682306289673,0.5418559312820435,0.22995047271251678,-0.11749240034311452,1.536281669992442,0.35622913496665726
2.8244152069091797,-0.006580054759979248,0.12153366953134537,-0.15494203567504883,-0.517535388469696,0.48230332136154175,0.19393932819366455,-0.11552424906677262,1.5420250987481916,0.3612504129246471
2.8343942165374756,-0.011359155178070068,0.13399559259414673,-0.16110247373580933,-0.5593898892402649,0.41840049624443054,0.1633225530385971,-0.1138699528471261,1.5471885928161027,0.36673343702072086
2.8456051349639893,-0.016386210918426514,0.13617698848247528,-0.1668109893798828,-0.5809141993522644,0.3590611219406128,0.13292858004570007,-0.11250379414105398,1.5517557325468356,0.372520670214324
2.8542470932006836,-0.021001756191253662,0.14179947972297668,-0.17036521434783936,-0.5852002501487732,0.30458134412765503,0.10488816350698471,-0.11140628319963754,1.5557649746507527,0.3784249762345101
2.8644962310791016,-0.025338470935821533,0.15007111430168152,-0.17329758405685425,-0.5823608040809631,0.23969441652297974,0.08128861337900162,-0.11054511222086606,1.559177680136417,0.3843244602523425
2.874422073364258,-0.025699496269226074,0.1477304995059967,-0.1740785837173462,-0.5763100981712341,0.1781969666481018,0.06086590141057968,-0.1098756907962762,1.5619294210456967,0.3901731723431396
2.8844552040100098,-0.02939707040786743,0.14458876848220825,-0.17428851127624512,-0.5659366250038147,0.13655386865139008,0.035934772342443466,-0.10942894522907533,1.5641520430462044,0.3959359384294277
2.8955650329589844,-0.0381738543510437,0.1495133936405182,-0.18096578121185303,-0.5461557507514954,0.10376821458339691,0.011048863641917706,-0.10921801438698789,1.565988135991355,0.4015479202944663
2.9046671390533447,-0.038773298263549805,0.1519564688205719,-0.18481379747390747,-0.5368893146514893,0.05727182328701019,-0.011346882209181786,-0.10923167125064098,1.5674185245513108,0.407008743411302
2.914828300476074,-0.02990114688873291,0.14980953931808472,-0.18161368370056152,-0.5312490463256836,0.00019229203462600708,-0.031189830973744392,-0.10945734168228925,1.568313047216812,0.4123894586835328
2.924464225769043,-0.02371978759765625,0.1375155746936798,-0.17844635248184204,-0.5174877047538757,-0.0390675812959671,-0.055089034140110016,-0.1098978724315885,1.5686879111039131,0.4176765482282649
2.9344429969787598,-0.03214395046234131,0.13207538425922394,-0.17675912380218506,-0.49452170729637146,-0.05246834456920624,-0.08098028600215912,-0.11058146598661318,1.5688017660345697,0.42278334145932406
2.9456262588500977,-0.03916501998901367,0.1371486485004425,-0.1800374984741211,-0.4555782973766327,-0.06531091034412384,-0.1062462329864502,-0.11152597713040661,1.5687685239539104,0.42758313769206996
2.9545412063598633,-0.0357816219329834,0.14413383603096008,-0.1815386414527893,-0.3988950550556183,-0.09081893414258957,-0.13138887286186218,-0.11271170144954175,1.568482343548689,0.43189420337072054
2.964827060699463,-0.02879476547241211,0.15047132968902588,-0.18162858486175537,-0.3324436843395233,-0.11959629505872726,-0.1585589200258255,-0.11416553011962598,1.5678659862990565,0.43557687062334816
2.9747962951660156,-0.026272833347320557,0.15426883101463318,-0.18217313289642334,-0.26507556438446045,-0.14029757678508759,-0.18929021060466766,-0.11590318833249641,1.5669234737758002,0.43857696045802685
2.984649181365967,-0.029643476009368896,0.15063469111919403,-0.1785997748374939,-0.20031747221946716,-0.15104098618030548,-0.22214588522911072,-0.11796450634741783,1.5657519127854325,0.44091437257797417
2.995711326599121,-0.02983570098876953,0.14077875018119812,-0.17374694347381592,-0.1397494673728943,-0.15639740228652954,-0.26226186752319336,-0.12039135833409813,1.564428081873221,0.44261421179671123
3.0045909881591797,-0.02553027868270874,0.13431502878665924,-0.16707700490951538,-0.08148371428251266,-0.1706671118736267,-0.3005755543708801,-0.12321389485495503,1.5629479504345687,0.44370935584150595
3.014622211456299,-0.016451537609100342,0.1281323879957199,-0.16171163320541382,-0.03317130357027054,-0.19551093876361847,-0.3351268768310547,-0.1264000819346328,1.5611970364723247,0.44425110741049995
3.0246012210845947,-0.009734094142913818,0.12150411307811737,-0.15347248315811157,0.0023980396799743176,-0.2181851863861084,-0.3759031295776367,-0.12996004345466666,1.559146456639193,0.4443675761926288
3.0346181392669678,-0.004059910774230957,0.11394011974334717,-0.14695125818252563,0.024373644962906837,-0.2411450892686844,-0.4142627716064453,-0.13389611947599883,1.5568248827968367,0.4441768887997048
3.045901298522949,0.0025928616523742676,0.10424104332923889,-0.13861674070358276,0.03306691721081734,-0.27136698365211487,-0.45089420676231384,-0.138218277100116,1.554224915560293,0.4438115295400941
3.0545661449432373,0.008197784423828125,0.0953008234500885,-0.12708592414855957,0.03212922066450119,-0.3113045394420624,-0.48480212688446045,-0.14288628022880928,1.5512584950607111,0.44339353159603234
3.0645999908447266,0.014270365238189697,0.0817137062549591,-0.11587125062942505,0.022166701033711433,-0.3488755226135254,-0.5142167210578918,-0.14787428228188573,1.5478962888932868,0.44300167355733716
3.074599266052246,0.015034079551696777,0.07457415759563446,-0.10532045364379883,0.009137451648712158,-0.3782411217689514,-0.5469235181808472,-0.1531817582702333,1.544210491396448,0.4427049337573511
3.0847342014312744,0.015299558639526367,0.071457639336586,-0.09748142957687378,-0.0015587517991662025,-0.4072948396205902,-0.576984167098999,-0.15879257809734626,1.5402643647320213,0.4425071878107149
3.0961031913757324,0.018725275993347168,0.06802110373973846,-0.08842271566390991,-0.007810256443917751,-0.4411444067955017,-0.60806804895401,-0.16471732412092324,1.5359993329757378,0.44236285263430647
3.104607105255127,0.020815551280975342,0.06616164743900299,-0.07861804962158203,-0.008868163451552391,-0.4683743417263031,-0.6363200545310974,-0.17093667348511377,1.5314294192876776,0.44222621950683444
3.1148290634155273,0.020436644554138184,0.0627792626619339,-0.07102614641189575,-0.004682473372668028,-0.49167245626449585,-0.6696252822875977,-0.17746968309531708,1.5265968158383212,0.4420200749678151
3.124817132949829,0.02123868465423584,0.05983097851276398,-0.06271190196275711,0.00328052812255919,-0.5142648816108704,-0.6941178441047668,-0.18428280957899407,1.5215089715282308,0.4417036668569928
3.135632038116455,0.020416259765625,0.05904243886470795,-0.05470144376158714,0.014465805143117905,-0.5326769351959229,-0.7192708253860474,-0.19134481876363768,1.5161826801290454,0.4412446570408648
3.14656925201416,0.018259286880493164,0.05556024610996246,-0.04530870169401169,0.02672012522816658,-0.5448818802833557,-0.741515040397644,-0.19862710241343595,1.510669741531367,0.44061539472909145
3.154815196990967,0.01703953742980957,0.04938296973705292,-0.037745408713817596,0.038430843502283096,-0.5519067645072937,-0.7609755396842957,-0.20610133824905763,1.5050219432294374,0.43980486022865367
3.1647751331329346,0.01290905475616455,0.04333364963531494,-0.028095953166484833,0.0554678812623024,-0.5554195046424866,-0.7749840617179871,-0.21373738263521433,1.4992742199773117,0.4387873571629757
3.1747941970825195,0.013826489448547363,0.03765355050563812,-0.021881453692913055,0.07382078468799591,-0.5547717809677124,-0.7890833616256714,-0.2214924975609451,1.4934535533701603,0.43752863386053503
3.1849491596221924,0.01627027988433838,0.029985085129737854,-0.012920677661895752,0.09522276371717453,-0.551321804523468,-0.8038642406463623,-0.22937571477048158,1.4875873113831009,0.43602461835442946
3.1958742141723633,0.018317997455596924,0.022724449634552002,-0.007457859814167023,0.12216676026582718,-0.5488061904907227,-0.8072264790534973,-0.237309170112138,1.4816782948364302,0.43420818594976734
3.2047431468963623,0.01955568790435791,0.018257543444633484,-0.0027360916137695312,0.14541004598140717,-0.5496072769165039,-0.8116390705108643,-0.24525640508197322,1.4756673428474711,0.43206495602948325
3.214768171310425,0.019680440425872803,0.010956913232803345,0.004372164607048035,0.16550971567630768,-0.5410734415054321,-0.810535192489624,-0.2531834558317964,1.4696171647235143,0.42964424400698886
3.224788188934326,0.01623445749282837,0.0024344325065612793,0.007102355360984802,0.18503229320049286,-0.5299445986747742,-0.8067644238471985,-0.2610489859887456,1.4635800763096165,0.4269654396833655
3.234800338745117,0.014482975006103516,-0.0024385452270507812,0.013439297676086426,0.20316149294376373,-0.5152119994163513,-0.7994516491889954,-0.26881750210681216,1.4575837816243757,0.4240515792380353
3.245885133743286,0.013080477714538574,-0.011331290006637573,0.021891772747039795,0.22098763287067413,-0.489342600107193,-0.7891934514045715,-0.27646696352271455,1.451704199351906,0.42089929906411006
3.254821300506592,0.017243266105651855,-0.019392192363739014,0.026403680443763733,0.23015043139457703,-0.4752999544143677,-0.7750046849250793,-0.28396581726636516,1.445973612029298,0.4175690525846457
3.264970302581787,0.028030574321746826,-0.029050737619400024,0.034178733825683594,0.23058520257472992,-0.4743954837322235,-0.7607952952384949,-0.2913012521527815,1.4402636445619565,0.41415328804913476
3.2752180099487305,0.038780152797698975,-0.042216747999191284,0.04547251760959625,0.22828610241413116,-0.4695408046245575,-0.7425225973129272,-0.298443098685059,1.434547839914876,0.410730465997227
3.2860541343688965,0.03899151086807251,-0.04957345128059387,0.05513113737106323,0.22659309208393097,-0.45533841848373413,-0.7229257822036743,-0.3053812514193673,1.4289040318723805,0.4073074408144182
3.2968902587890625,0.03301471471786499,-0.05626481771469116,0.06155593693256378,0.22674249112606049,-0.43737781047821045,-0.7028785943984985,-0.3121164160743433,1.4233947809173333,0.4038809997718589
3.304960250854492,0.027495086193084717,-0.06280297040939331,0.06812292337417603,0.22377973794937134,-0.4123849868774414,-0.6813627481460571,-0.3186246401712206,1.4180841504871482,0.4004613544178402
3.315009117126465,0.02643871307373047,-0.06847426295280457,0.0729353278875351,0.21784383058547974,-0.38894277811050415,-0.6612723469734192,-0.3249244643381492,1.4130116090120883,0.39705542736628124
3.324921131134033,0.03242337703704834,-0.07473397254943848,0.0783008486032486,0.20794104039669037,-0.3801375925540924,-0.6401864886283875,-0.3310046683348158,1.4081116242632432,0.39373281026758733
3.335019111633301,0.04136943817138672,-0.08339637517929077,0.08717299997806549,0.19579622149467468,-0.3770717680454254,-0.6142813563346863,-0.33686262192944993,1.4032793426536134,0.3905236223902876
3.345968246459961,0.042501986026763916,-0.0905696451663971,0.09550215303897858,0.1817387491464615,-0.36255449056625366,-0.5913870930671692,-0.3424800221198423,1.3985570970585623,0.3874674737371681
3.3549861907958984,0.03779834508895874,-0.09566789865493774,0.10225154459476471,0.16625912487506866,-0.3400214910507202,-0.564350962638855,-0.3478654098262668,1.3940610555501691,0.384570569719779
3.3651041984558105,0.03393369913101196,-0.10052642226219177,0.10788899660110474,0.15124335885047913,-0.31318187713623047,-0.5383519530296326,-0.35300584809804936,1.3898671474741806,0.3818557849734069
3.3751273155212402,0.03301429748535156,-0.10595127940177917,0.1148848682641983,0.134046271443367,-0.2849704921245575,-0.5087926983833313,-0.3578972153769102,1.3860143209185798,0.3793473546471102
3.385261058807373,0.03827106952667236,-0.10887426137924194,0.11946296691894531,0.11994520574808121,-0.26130637526512146,-0.4829997420310974,-0.36253708715432004,1.3824814845628401,0.3770373003232045
3.3963980674743652,0.04587733745574951,-0.11300081014633179,0.12642802298069,0.10823741555213928,-0.24216170608997345,-0.4543185830116272,-0.3669215074198538,1.379208021889662,0.3749072802824926
3.405203342437744,0.05030941963195801,-0.11635950207710266,0.1372496634721756,0.1086728647351265,-0.21894609928131104,-0.42378583550453186,-0.37101333406524484,1.3761780236302212,0.3728766397353274
3.4152371883392334,0.04835301637649536,-0.12023058533668518,0.1421617865562439,0.11477789282798767,-0.19010406732559204,-0.39593076705932617,-0.3748096749216793,1.3734121245038833,0.3708558075239341
3.425121307373047,0.044035911560058594,-0.12152203917503357,0.14377397298812866,0.1256030946969986,-0.15593867003917694,-0.3701767921447754,-0.3783315348783858,1.3709282489676227,0.36877692211543456
3.4350781440734863,0.03652989864349365,-0.12499380111694336,0.1406899094581604,0.14215171337127686,-0.11582241952419281,-0.3450210988521576,-0.38156058575716906,1.3687727652157464,0.36660592416408166
3.446075201034546,0.029936552047729492,-0.12588724493980408,0.13596749305725098,0.16509023308753967,-0.07774555683135986,-0.31887221336364746,-0.38449792737450594,1.3669418318908828,0.36427040395963267
