timestamp,accel_x,accel_y,accel_z,rotation_x,rotation_y,rotation_z, pitch,roll,yaw
0.04086017608642578,-0.001851797103881836,-0.02081698179244995,-0.017840512096881866,0.04450256749987602,-0.004549681209027767,0.04061492905020714,-0.24430949533756896,1.4917581908600457,0.2258885125887536
0.047976016998291016,-0.00021708011627197266,-0.01929287612438202,-0.017554640769958496,0.04866671934723854,-0.0009913425892591476,0.044782351702451706,-0.24382381839029754,1.491598408392199,0.22544212125901586
0.06042218208312988,0.0004742145538330078,-0.018265828490257263,-0.015650928020477295,0.05394696816802025,-0.0004613734781742096,0.047987200319767,-0.24328437300482877,1.4914393343312788,0.22494622719152865
0.06809711456298828,0.00028264522552490234,-0.01630401611328125,-0.014751844108104706,0.059057872742414474,0.002833755686879158,0.053152188658714294,-0.2426937303429247,1.491294527805078,0.22439930851819873
0.07396507263183594,0.0007689595222473145,-0.01646333932876587,-0.013385772705078125,0.06484385579824448,0.007436230778694153,0.05747050419449806,-0.24207196282633858,1.4911723092759797,0.2237991253251872
0.08106803894042969,-0.0003611445426940918,-0.015561327338218689,-0.013743937015533447,0.07023078203201294,0.010260912589728832,0.06270462274551392,-0.24139441842804027,1.4910670079689254,0.22314913175187234
0.09106612205505371,-0.0004999637603759766,-0.014206424355506897,-0.015535295009613037,0.07509797066450119,0.014136077836155891,0.06651294231414795,-0.24065915151546133,1.490993139641955,0.22244379078311446
0.10117220878601074,-0.0013808012008666992,-0.011900842189788818,-0.014753922820091248,0.08105017244815826,0.016788674518465996,0.07065559923648834,-0.23988773165154068,1.4909418908173413,0.22168736957774632
0.11109614372253418,-0.0010854005813598633,-0.010840117931365967,-0.013917915523052216,0.08606544137001038,0.020098185166716576,0.0761379823088646,-0.23906291455586215,1.4909141232644423,0.2208821127493238
0.12113213539123535,-0.0007826089859008789,-0.007928818464279175,-0.013953447341918945,0.09156135469675064,0.020247632637619972,0.07716729491949081,-0.23820238726379153,1.490888757627307,0.2200236218581249
0.1312413215637207,-0.002453625202178955,-0.005477830767631531,-0.014453820884227753,0.09386925399303436,0.022177891805768013,0.08012260496616364,-0.23731333267347718,1.4908555121114446,0.21912517803791487
0.14112329483032227,-0.002647578716278076,-0.0030159950256347656,-0.015427224338054657,0.09660492092370987,0.022479627281427383,0.07959593832492828,-0.23641327934651069,1.4908381838042457,0.218208994593188
0.1511693000793457,-0.002213418483734131,-0.0014446377754211426,-0.015190944075584412,0.09655192494392395,0.022918783128261566,0.07875437289476395,-0.2355189694124872,1.4908162961133369,0.21727823104593894
0.16155529022216797,-0.004001140594482422,0.0001545548439025879,-0.015602104365825653,0.09798946231603622,0.021046757698059082,0.07674944400787354,-0.23464343016500924,1.4907850399333513,0.21633270261688053
0.17135214805603027,-0.004850029945373535,0.0020758509635925293,-0.015931181609630585,0.09775616973638535,0.02067098766565323,0.07227320224046707,-0.23379770078776324,1.4907472219007518,0.21537984834149143
0.1813671588897705,-0.008113503456115723,0.004548460245132446,-0.014898061752319336,0.097095787525177,0.019236475229263306,0.0655314102768898,-0.23299707881419265,1.4907041675943262,0.21443313130299327
0.1913301944732666,-0.008801400661468506,0.007639005780220032,-0.012432567775249481,0.10136403143405914,0.019895873963832855,0.06360460817813873,-0.23190665781880357,1.4894730986547526,0.21318465578573165
0.20133018493652344,-0.00942164659500122,0.009659871459007263,-0.012673139572143555,0.10513059794902802,0.02166292630136013,0.061937104910612106,-0.2311002230910981,1.4884311053805366,0.21194099266985453
0.21142816543579102,-0.009558439254760742,0.012120559811592102,-0.011346392333507538,0.11460106074810028,0.024052580818533897,0.06275974959135056,-0.23050047952632408,1.4874842007649893,0.21066051781497488
0.22138023376464844,-0.007994651794433594,0.013961106538772583,-0.010082714259624481,0.12379802763462067,0.029868924990296364,0.06496644765138626,-0.23002052401605247,1.4866157565407878,0.20929386351758295
0.2312602996826172,-0.007890522480010986,0.015752792358398438,-0.012802369892597198,0.13860386610031128,0.03481893986463547,0.06968263536691666,-0.22954390946457948,1.4858897818580759,0.20783419857830934
0.24133729934692383,-0.008884847164154053,0.018712937831878662,-0.014106981456279755,0.15334393084049225,0.039024338126182556,0.07464863359928131,-0.2290895190954489,1.4852304615834473,0.2062371374819702
0.25130128860473633,-0.008825540542602539,0.019599661231040955,-0.013672582805156708,0.16491803526878357,0.046718209981918335,0.07750780135393143,-0.22866475089564606,1.4846497701918924,0.20452265803584924
0.26131534576416016,-0.008510351181030273,0.020954251289367676,-0.015413045883178711,0.17508038878440857,0.05095317214727402,0.08200881630182266,-0.22833926832066018,1.4842012945329275,0.2027253036718586
0.27151918411254883,-0.00974583625793457,0.02304285764694214,-0.017702221870422363,0.18301686644554138,0.05350261554121971,0.08218085020780563,-0.22809052254517476,1.483892170426226,0.20085927059667058
0.28145408630371094,-0.011529743671417236,0.02442045509815216,-0.019848883152008057,0.19167207181453705,0.05299350619316101,0.07955199480056763,-0.22789812690112302,1.48354520579185,0.19890705426992156
0.2916741371154785,-0.011510968208312988,0.0259854793548584,-0.018702983856201172,0.1998506784439087,0.05246007815003395,0.07544625550508499,-0.22779532862966673,1.4832313064060532,0.19687900079167156
0.30155324935913086,-0.011662781238555908,0.027449816465377808,-0.021468326449394226,0.20874382555484772,0.047645922750234604,0.07157684117555618,-0.2277487954993892,1.4829213762517262,0.19478193610628258
0.31150221824645996,-0.011848688125610352,0.02984638512134552,-0.02320723980665207,0.21701401472091675,0.042838916182518005,0.06849716603755951,-0.22774787383107048,1.4824176108483509,0.1925536093273183
0.3214273452758789,-0.010607421398162842,0.030199438333511353,-0.02446483075618744,0.22347214818000793,0.03770438954234123,0.06430619955062866,-0.2278709669020277,1.481792587907399,0.19024227219923295
0.3315763473510742,-0.00948178768157959,0.031135842204093933,-0.02625083178281784,0.2280850112438202,0.0298648402094841,0.059437140822410583,-0.22800620455422244,1.4811300380288281,0.18787395306588692
0.34140920639038086,-0.007953524589538574,0.032321587204933167,-0.026951484382152557,0.23113830387592316,0.02357516437768936,0.055225670337677,-0.2281830595319394,1.4803386026590284,0.18544583569630804
0.3515610694885254,-0.0086669921875,0.031106039881706238,-0.025276541709899902,0.23465153574943542,0.01593242585659027,0.05070175975561142,-0.22844410372850255,1.479408640325907,0.1829635324903578
0.36130809783935547,-0.0074307918548583984,0.03031553328037262,-0.024440884590148926,0.2347019910812378,0.009730765596032143,0.046276118606328964,-0.22877012038315922,1.4783512725570933,0.18046710137370134
0.3715522289276123,-0.009538471698760986,0.030809596180915833,-0.02464693784713745,0.23648230731487274,0.0036726067773997784,0.04094313830137253,-0.2291558294854048,1.4773122564629189,0.1779702265740645
0.3816370964050293,-0.012320399284362793,0.02987949550151825,-0.021716535091400146,0.23691996932029724,-0.0014877114444971085,0.03549143299460411,-0.22960953748642585,1.4761525698847078,0.17544152348157244
0.39157724380493164,-0.012999475002288818,0.029965028166770935,-0.017344720661640167,0.24224655330181122,-0.005091235041618347,0.03181440755724907,-0.2301485736349524,1.474920271617565,0.17286922068032415
0.40166521072387695,-0.014711856842041016,0.02990451455116272,-0.014990046620368958,0.24995017051696777,-0.005254619754850864,0.02697901241481304,-0.2306809091833416,1.473643583864904,0.17023552986420595
0.411790132522583,-0.016209185123443604,0.029952645301818848,-0.012492179870605469,0.2570890486240387,-0.002682538703083992,0.028438691049814224,-0.23119575351010993,1.4723291194684442,0.1675081818364898
0.4216632843017578,-0.016043007373809814,0.03102688491344452,-0.011604666709899902,0.272745281457901,-0.0014772363938391209,0.02484092116355896,-0.2317067951345564,1.4710227373860538,0.16467384424631035
0.4315822124481201,-0.01598888635635376,0.03349630534648895,-0.007956862449645996,0.29081377387046814,0.0009262664243578911,0.026304593309760094,-0.2321483624900977,1.469782085879762,0.161683764016042
0.44167017936706543,-0.017299950122833252,0.034156396985054016,-0.0016214847564697266,0.31084492802619934,0.006605146452784538,0.0217087771743536,-0.2325049372539855,1.4685883037095384,0.15851322442011082
0.4516141414642334,-0.01903831958770752,0.03496772050857544,0.0038760900497436523,0.33449459075927734,0.015033785253763199,0.02122168429195881,-0.23281586409869404,1.4674568606911589,0.15513007701652642
0.4616522789001465,-0.02200472354888916,0.03852309286594391,0.009434446692466736,0.3635823130607605,0.024630576372146606,0.019505171105265617,-0.2330196962678449,1.4664700151373236,0.15150078216338567
0.47174930572509766,-0.026829838752746582,0.042468518018722534,0.012117922306060791,0.39414340257644653,0.03625527396798134,0.016363972797989845,-0.2324148833371925,1.4658880300365469,0.14764533896662782
0.4816622734069824,-0.03399991989135742,0.04444485902786255,0.014896690845489502,0.42519044876098633,0.05356373265385628,0.014078767038881779,-0.2317952041070849,1.465381467302301,0.1434677368675421
0.49158716201782227,-0.04030197858810425,0.04863503575325012,0.019700810313224792,0.460600346326828,0.07232917100191116,0.015772538259625435,-0.23114295366651594,1.4649745878284604,0.13895322289858472
0.5017111301422119,-0.04348534345626831,0.05165356397628784,0.023980602622032166,0.49511799216270447,0.09335743635892868,0.01856619492173195,-0.2304404180721498,1.4647008403891357,0.13408927807582058
0.5117101669311523,-0.04532504081726074,0.05640445649623871,0.02954907715320587,0.5283569097518921,0.11567153036594391,0.02253643609583378,-0.22966686538275852,1.464563570677379,0.1288798153357673
0.5216503143310547,-0.04548013210296631,0.0607369989156723,0.03595195710659027,0.5629233121871948,0.13980479538440704,0.03246789425611496,-0.2287904608866625,1.4645913705495381,0.12333275575693249
0.5316920280456543,-0.044730544090270996,0.06459417939186096,0.03989988565444946,0.5984922051429749,0.16629259288311005,0.03891407325863838,-0.22780691869486772,1.464793234589046,0.11744537621125822
0.5416560173034668,-0.04408186674118042,0.07051020860671997,0.04338937997817993,0.6415778398513794,0.19638626277446747,0.053454458713531494,-0.22666812248932325,1.4652040666798551,0.11115774868113268
0.5520641803741455,-0.04367232322692871,0.07684677839279175,0.04429078847169876,0.6982663869857788,0.2288920134305954,0.06374730169773102,-0.2253643031812397,1.4658171043196992,0.10438806551781585
0.561873197555542,-0.04514962434768677,0.08638094365596771,0.04638177901506424,0.7617701292037964,0.2571852207183838,0.0760686844587326,-0.22387998969302242,1.4666075836592796,0.0970124935618934
0.5720243453979492,-0.04624909162521362,0.09562711417675018,0.04389847069978714,0.8271523118019104,0.2853425443172455,0.08527017384767532,-0.22223780026956427,1.46757046931174,0.08898606145382999
0.5819191932678223,-0.04698890447616577,0.10186254978179932,0.04565386474132538,0.8891561627388,0.3129737675189972,0.08937826007604599,-0.22047600971409112,1.4686798742425937,0.0803177373272506
0.5919480323791504,-0.04937106370925903,0.10390974581241608,0.047333598136901855,0.9430185556411743,0.33752599358558655,0.08861207216978073,-0.2186442221848402,1.4699302491232702,0.07105503242632849
0.6019291877746582,-0.0566633939743042,0.10587731003761292,0.048592910170555115,0.9883998036384583,0.3618294894695282,0.08542150259017944,-0.21680102630347622,1.4713293327137902,0.06128394077473788
0.61179518699646,-0.06408262252807617,0.10792429745197296,0.05168771743774414,1.0242317914962769,0.3836972415447235,0.07735078781843185,-0.21498655932428792,1.472894223357505,0.051101193198705736
0.621995210647583,-0.06869184970855713,0.10803388059139252,0.053118109703063965,1.0558031797409058,0.4003017842769623,0.07277856767177582,-0.213219170902517,1.4745987732964456,0.04056440347654328
0.6320621967315674,-0.07144767045974731,0.11035478115081787,0.052371978759765625,1.0837751626968384,0.420757532119751,0.06329850852489471,-0.21151614110376926,1.4764355066216117,0.029712576628326524
0.6420230865478516,-0.073322594165802,0.1141652911901474,0.04814458638429642,1.0972577333450317,0.44095900654792786,0.05107822269201279,-0.20991320257954743,1.4784430609763646,0.018644007048536144
0.6521010398864746,-0.07615053653717041,0.11557139456272125,0.04332268238067627,1.0820521116256714,0.4632083773612976,0.030780941247940063,-0.208491373243006,1.4806794487917097,0.007559564207239554
0.6620092391967773,-0.0765223503112793,0.1183050125837326,0.04197276383638382,1.0322600603103638,0.4838286340236664,-0.0005343700759112835,-0.20738178381457903,1.4832126910161705,-0.003227114529006016
0.6721172332763672,-0.07553184032440186,0.11894986033439636,0.041466593742370605,0.9055545330047607,0.5105553865432739,-0.06925138831138611,-0.20686318975183637,1.4861356692245116,-0.01319610424815693
0.6820812225341797,-0.07863152027130127,0.11657717823982239,0.042591989040374756,0.6595076322555542,0.5422297120094299,-0.17187772691249847,-0.20738546414296685,1.4897445652852366,-0.02137258910836535
0.6921472549438477,-0.08192241191864014,0.10693271458148956,0.04920393228530884,0.279127299785614,0.5779581665992737,-0.31047770380973816,-0.20941392585514917,1.4943208948233133,-0.026421899605486056
0.7021031379699707,-0.0770566463470459,0.0963699221611023,0.05745887756347656,-0.21620512008666992,0.6145745515823364,-0.43730229139328003,-0.2131475177970361,1.5001143405264294,-0.027094635379183715
0.7121741771697998,-0.05601680278778076,0.11825847625732422,0.05862772837281227,-0.6956939697265625,0.7764076590538025,-0.5817736983299255,-0.21848230640092148,1.5080427253237987,-0.02267111176918863
0.7222092151641846,-0.03441125154495239,0.18650731444358826,0.03895479440689087,-0.844249963760376,0.8480460047721863,-0.6730320453643799,-0.22519662086909825,1.5179873583178063,-0.014951765174872627
0.732119083404541,-0.018271028995513916,0.2523038983345032,0.032106220722198486,-0.7026350498199463,0.7764514088630676,-0.8413859009742737,-0.23307710495989603,1.5279517191736756,-0.007245132974627645
0.7421083450317383,0.03779834508895874,0.3775908946990967,0.03814828768372536,-0.31949326395988464,0.6435888409614563,-1.0933197736740112,-0.24294061561430505,1.53637626181129,-0.0021954453961437284
0.7522802352905273,0.07588338851928711,0.5069848299026489,0.04971659556031227,0.17347490787506104,0.4497312307357788,-1.307922601699829,-0.2549067810258006,1.5419328704371602,-0.0017761770329732208
0.7622370719909668,0.0823981761932373,0.5529537200927734,0.08950215578079224,0.5748951435089111,0.2802353501319885,-1.606715202331543,-0.26941603718225837,1.5444428428274146,-0.0062226092932768946
0.7722072601318359,0.0751875638961792,0.5337443351745605,0.1281064748764038,0.7212393283843994,0.12131628394126892,-1.9046294689178467,-0.28679087169708856,1.5444713779019228,-0.013588727819945901
0.7822823524475098,0.08327871561050415,0.5171279907226562,0.15329402685165405,0.7529709935188293,0.09539338201284409,-2.1100692749023438,-0.30671995949338293,1.5430023875438095,-0.02203217777470953
0.7921853065490723,0.08049535751342773,0.46028271317481995,0.13617026805877686,0.5783611536026001,0.15419811010360718,-2.3263936042785645,-0.32878137334105606,1.5418357885794953,-0.029759081057265498
0.8027091026306152,0.06098651885986328,0.4093591570854187,0.11206728219985962,0.3791395127773285,0.22870798408985138,-2.4829256534576416,-0.3528293217801265,1.5418742167602228,-0.035513645929978216
0.8122873306274414,0.04635787010192871,0.3634345829486847,0.08926928043365479,0.28317198157310486,0.3271234929561615,-2.588534355163574,-0.37831321093714426,1.5433168053082886,-0.0397003952388876
0.822174072265625,0.04755610227584839,0.34153464436531067,0.05209869146347046,0.22578661143779755,0.4709216058254242,-2.7098312377929688,-0.40506263686996524,1.5461338830838438,-0.04312156125439137
0.8323183059692383,0.0381854772567749,0.3171876072883606,0.025928853079676628,0.22077693045139313,0.609655499458313,-2.7480123043060303,-0.4325994130578378,1.5504707596634792,-0.04613870611613773
0.8422181606292725,0.04106944799423218,0.27417510747909546,0.014922382310032845,0.20482006669044495,0.7724195718765259,-2.7696337699890137,-0.46030788491019026,1.556183736301112,-0.049044724069841235
0.8523101806640625,0.06196331977844238,0.23226961493492126,0.01889622211456299,0.14617912471294403,0.9168787598609924,-2.8205368518829346,-0.48834127948437955,1.5636538171438434,-0.051363019667419
0.8621640205383301,0.07714587450027466,0.16705086827278137,0.05573880672454834,0.20818646252155304,1.033578634262085,-2.7919650077819824,-0.5165855934699941,1.5725355708691782,-0.05341830200118992
0.8721022605895996,0.10092061758041382,0.10450851917266846,0.08462059497833252,0.2573244273662567,1.1330668926239014,-2.7667834758758545,-0.5444091940104705,1.5821645945562393,-0.05585955107503683
0.8822002410888672,0.1365709900856018,0.09266507625579834,0.09410429000854492,0.36659717559814453,1.20169198513031,-2.716505289077759,-0.5720454339954862,1.5922632317026033,-0.058957070099168125
0.8923141956329346,0.17694443464279175,0.07687950134277344,0.09133350849151611,0.4831285774707794,1.2753992080688477,-2.611616611480713,-0.5988766479110446,1.6023616850206044,-0.0631759383648563
0.9022402763366699,0.20948350429534912,0.043776512145996094,0.08705735206604004,0.6574791073799133,1.357677936553955,-2.487726926803589,-0.6246450552433107,1.61222235408058,-0.06898357451228755
0.913640022277832,0.21161282062530518,0.009500443935394287,0.07597720623016357,0.8652315139770508,1.429198980331421,-2.3638033866882324,-0.6493080522326024,1.6214077237409812,-0.07703233278486729
0.9225411415100098,0.2008625864982605,-0.02014106512069702,0.06656908243894577,1.0788494348526,1.4982424974441528,-2.1953415870666504,-0.672670314676459,1.6295377664638375,-0.08769022471198624
0.9322521686553955,0.1933014988899231,-0.0507083535194397,0.06802284717559814,1.3308990001678467,1.5544482469558716,-2.03957200050354,-0.6946210874171449,1.636085896596429,-0.1015259829807587
0.942197322845459,0.19220036268234253,-0.0727304220199585,0.0690758228302002,1.6186538934707642,1.5999013185501099,-1.8705734014511108,-0.7152005359126509,1.6405223644919933,-0.11907882170607051
0.9523851871490479,0.1965407133102417,-0.06331157684326172,0.06914770603179932,1.8500231504440308,1.6407020092010498,-1.6970785856246948,-0.7342513482373616,1.6424997196325535,-0.140572475214975
0.9644651412963867,0.2047751545906067,-0.02866584062576294,0.06553733348846436,2.044947624206543,1.6753171682357788,-1.550567626953125,-0.751873735641393,1.6423024100704213,-0.16543686571891555
0.9724392890930176,0.218633770942688,-0.0160561203956604,0.06539320945739746,2.1887288093566895,1.7237765789031982,-1.4264423847198486,-0.7682446043670178,1.6401807282160306,-0.1931902423701038
0.9825551509857178,0.2081013321876526,-0.03589200973510742,0.059958700090646744,2.257981300354004,1.8209882974624634,-1.3295725584030151,-0.7835285989442353,1.6369811958315645,-0.22306892810881573
0.9925172328948975,0.17033517360687256,-0.06363588571548462,0.04272187128663063,2.2100989818573,1.9416286945343018,-1.243781566619873,-0.7978517499510034,1.6339976790643325,-0.25377326488763546
1.002596139907837,0.14386606216430664,-0.06678944826126099,0.03637659549713135,2.085198163986206,2.060037136077881,-1.1901881694793701,-0.8113339399224717,1.6325555490395338,-0.2835934425284778
1.0139942169189453,0.15081781148910522,-0.03836989402770996,0.04677140340209007,1.981852412223816,2.135566234588623,-1.1460587978363037,-0.8242871701488677,1.6326906537585157,-0.31227531857746466
1.0225341320037842,0.15851539373397827,-0.03028470277786255,0.05630325898528099,1.9235318899154663,2.183077096939087,-1.0791425704956055,-0.8366413846053652,1.6337469944433913,-0.3401448686309304
1.0325450897216797,0.1473105549812317,-0.011282086372375488,0.04845297709107399,1.8907347917556763,2.230041742324829,-1.0559848546981812,-0.8484865267434752,1.6353641303180078,-0.36764147594317603
1.0424842834472656,0.1335332989692688,0.027338147163391113,0.04215872287750244,1.9586529731750488,2.2015411853790283,-1.052547574043274,-0.8603135821202946,1.6363538895071768,-0.39578653360003163
1.0530180931091309,0.12167656421661377,0.03328526020050049,0.04426873102784157,2.106626033782959,2.1408514976501465,-1.0291194915771484,-0.8720272488194485,1.6350235757326042,-0.42606219830647685
1.0642452239990234,0.09962505102157593,0.045288681983947754,0.0380932092666626,2.2360899448394775,2.058979034423828,-1.0586025714874268,-0.883812450170213,1.6306811348158512,-0.45906403539069385
1.0726332664489746,0.07208400964736938,0.06858325004577637,0.03420424461364746,2.2307674884796143,1.9875805377960205,-1.0682035684585571,-0.8957456016555727,1.6240104122999008,-0.49371731752014436
1.0826210975646973,0.04607367515563965,0.07403171062469482,0.04851508140563965,2.142658233642578,1.9173572063446045,-1.119663119316101,-0.907749455243531,1.6165877257571903,-0.5281120084500716
1.0925602912902832,0.015504419803619385,0.045136988162994385,0.06833469867706299,1.9965401887893677,1.834900140762329,-1.175048589706421,-0.9201347826548407,1.6090872453548144,-0.561315091849591
1.1026241779327393,-0.03274500370025635,-0.018422424793243408,0.07562136650085449,1.7407963275909424,1.77268648147583,-1.231418251991272,-0.9328482920991019,1.6027281993963978,-0.5918462963452185
1.1156063079833984,-0.0884442925453186,-0.06489890813827515,0.08136069774627686,1.4565802812576294,1.7256766557693481,-1.2475544214248657,-0.9457689373075164,1.59888492782957,-0.6182981790521325
1.1226310729980469,-0.13479560613632202,-0.0749860405921936,0.08823800086975098,1.2405972480773926,1.6498405933380127,-1.2447764873504639,-0.9586380907444892,1.5974129484037258,-0.6408991902321298
1.1326591968536377,-0.18347102403640747,-0.07451403141021729,0.08635449409484863,1.0811114311218262,1.5620958805084229,-1.215628981590271,-0.971287542163198,1.597211912148986,-0.660690639352645
1.142618179321289,-0.24349910020828247,-0.07420098781585693,0.08190596103668213,0.9404690861701965,1.491789698600769,-1.2027219533920288,-0.9836636079512776,1.5980191693765182,-0.6781642553868339
1.152874231338501,-0.30118417739868164,-0.06069290637969971,0.0848245620727539,0.8420525193214417,1.4051620960235596,-1.2009706497192383,-0.9959722487441127,1.599509638513959,-0.6937455409006386
1.164032220840454,-0.33924150466918945,-0.050971806049346924,0.09788632392883301,0.8049388527870178,1.3329602479934692,-1.1490153074264526,-1.0080098746236745,1.600941952252362,-0.7083088936999701
1.1727712154388428,-0.34996819496154785,0.024310052394866943,0.11768531799316406,0.889061450958252,1.235337495803833,-1.2148857116699219,-1.0200019498880506,1.6010461863283414,-0.7233648974730883
1.1829071044921875,-0.3366127610206604,0.14199894666671753,0.13760888576507568,1.1525237560272217,1.0986700057983398,-1.334665060043335,-1.0330909553547158,1.5965301687440254,-0.7423430053403457
1.1927621364593506,-0.32771381735801697,0.16290318965911865,0.13697481155395508,1.3959182500839233,0.9930281639099121,-1.4720982313156128,-1.04741580212002,1.5855798309936064,-0.7671016891534709
1.202822208404541,-0.3378598392009735,0.17985975742340088,0.1347915530204773,1.499716877937317,0.9659813046455383,-1.66630220413208,-1.0631936929522303,1.5699269738958999,-0.7963473026794128
1.21449613571167,-0.3350672125816345,0.2596379518508911,0.1450592279434204,1.5426005125045776,0.9463537931442261,-1.9609568119049072,-1.081211732923521,1.551112449497106,-0.8286955796249346
1.2229423522949219,-0.2950174808502197,0.2971292734146118,0.1569417119026184,1.512085199356079,0.9735569357872009,-2.2035715579986572,-1.1016568119714296,1.5298696599360784,-0.8634144854919346
1.2331271171569824,-0.27458617091178894,0.2759731411933899,0.15113866329193115,1.3196406364440918,1.0663508176803589,-2.4775235652923584,-1.1243218546934086,1.5087721574268371,-0.8982695695468607
1.242833137512207,-0.2783510386943817,0.28164243698120117,0.15694230794906616,1.1231037378311157,1.1670554876327515,-2.7856457233428955,-1.1497907397103095,1.4896353365516715,-0.9317253566369268
1.2529401779174805,-0.2474307417869568,0.30248939990997314,0.17908501625061035,0.986436128616333,1.220635175704956,-3.07470703125,-1.1781249050232077,1.4712012693000942,-0.9648259913576037
1.2641010284423828,-0.18450793623924255,0.3226916790008545,0.20548909902572632,0.8590961694717407,1.2750880718231201,-3.313270330429077,-1.2089447695471798,1.4517261705564521,-0.9992331097785693
1.2732672691345215,-0.1245221495628357,0.3997500538825989,0.23224639892578125,0.8742892742156982,1.3160158395767212,-3.590416431427002,-1.242125048555754,1.428619959904828,-1.0376143636660486
1.2829952239990234,-0.046882182359695435,0.4913327097892761,0.24819153547286987,0.9384024143218994,1.3153328895568848,-3.854489326477051,-1.2775353759818266,1.395473984708066,-1.086246120460914
1.292910099029541,0.02977442741394043,0.4866597652435303,0.2568655014038086,1.0168201923370361,1.3569375276565552,-4.129971027374268,-1.3148593236608332,1.3466946120310572,-1.150789666816128
1.3031940460205078,0.07121917605400085,0.4444103240966797,0.2672407627105713,1.0665496587753296,1.4049326181411743,-4.365344047546387,-1.3533077051019466,1.273175000709786,-1.2406270866281026
1.3142101764678955,0.14024598896503448,0.45535606145858765,0.2790375351905823,1.1877139806747437,1.4440422058105469,-4.643533706665039,-1.3917894230899224,1.1565256674214106,-1.3741366815466454
1.3229312896728516,0.23778358101844788,0.47578370571136475,0.27889102697372437,1.3204638957977295,1.5031189918518066,-4.891590595245361,-1.42747324339132,0.9595043859162261,-1.5886021769394594
1.3331341743469238,0.2921600043773651,0.42052680253982544,0.2711758613586426,1.3628005981445312,1.607701063156128,-5.090339183807373,-1.45411207631597,0.6316179056051363,-1.9348611815243255
1.342994213104248,0.32656365633010864,0.34812355041503906,0.26848268508911133,1.3415905237197876,1.7545146942138672,-5.278575897216797,-1.4622616739863252,0.17447345465683975,-2.411750897409042
1.3529632091522217,0.3880564272403717,0.3319000005722046,0.28311091661453247,1.4305169582366943,1.8696445226669312,-5.410248756408691,-1.4456668527042837,-0.2625257348211526,-2.8699429949047968
1.36800217628479,0.4486542344093323,0.29638856649398804,0.30057889223098755,1.5278993844985962,1.9714339971542358,-5.4710373878479,-1.410122563168605,-0.5517688317745435,3.1016948104033384
1.3730483055114746,0.4635698199272156,0.2534937858581543,0.3248535394668579,1.7436034679412842,2.0632808208465576,-5.426845550537109,-1.364324240329369,-0.7169739424207787,2.9131607819588416
1.3831090927124023,0.4430506229400635,0.1745678186416626,0.3224356770515442,1.9588061571121216,2.1185872554779053,-5.218925476074219,-1.3140325511454929,-0.8056924301651471,2.8005664804000965
1.3932280540466309,0.44224509596824646,0.11711162328720093,0.3235788941383362,2.168039083480835,2.1480157375335693,-4.953033447265625,-1.2624432258374858,-0.8507146026847663,2.731440247442995
1.4040412902832031,0.44354715943336487,0.036233723163604736,0.33781468868255615,2.391104221343994,2.14141845703125,-4.5152668952941895,-1.2115099791273358,-0.8687870318624842,2.6896184878066602
1.4147610664367676,0.449232280254364,-0.08972883224487305,0.35381025075912476,2.4664340019226074,2.105154037475586,-3.969666004180908,-1.1632933029284713,-0.869337123883001,2.666110154677146
1.4232072830200195,0.4587852358818054,-0.17627710103988647,0.38059815764427185,2.4141697883605957,2.051299810409546,-3.3988165855407715,-1.1192481041115605,-0.8600937620643488,2.6533999958785595
1.4330930709838867,0.4740357995033264,-0.26360243558883667,0.4210103154182434,2.166093349456787,2.0243473052978516,-2.7485365867614746,-1.0808574916318279,-0.8455094757260841,2.646921931852539
1.443099021911621,0.49879997968673706,-0.36749815940856934,0.4727679491043091,1.7902659177780151,2.0614047050476074,-2.0235512256622314,-1.0497828337419552,-0.827376804985952,2.644289288895705
1.4531660079956055,0.5240938663482666,-0.46924102306365967,0.5206364989280701,1.2621182203292847,2.078162431716919,-1.2877198457717896,-1.0271388255730713,-0.806917503214731,2.643998566429619
1.464766025543213,0.5374739170074463,-0.5581156611442566,0.5637928247451782,0.6273481845855713,2.116159439086914,-0.5175954103469849,-1.0140495816378257,-0.7851974821248692,2.6448706752804076
1.4731671810150146,0.5323892831802368,-0.6389789581298828,0.5890340805053711,-0.005850868299603462,2.1557931900024414,0.23759399354457855,-1.0108368650092707,-0.7619284376749426,2.6470912851891595
1.482985019683838,0.4996190369129181,-0.7557662725448608,0.5878695249557495,-0.7189133763313293,2.1581075191497803,0.9263125658035278,-1.0174730958005311,-0.7373039524292363,2.6506342969622816
1.4932060241699219,0.45140475034713745,-0.9034602642059326,0.58917635679245,-1.4184538125991821,2.137446641921997,1.5588847398757935,-1.0337530965368085,-0.7123832161335288,2.6547125263261626
1.5031521320343018,0.3990228772163391,-1.12440824508667,0.5929508209228516,-2.126680612564087,2.1154134273529053,2.2689597606658936,-1.0596732647795002,-0.6868345103408042,2.660014043315371
1.5150723457336426,0.38982459902763367,-1.331322431564331,0.591759443283081,-2.8422186374664307,2.131458282470703,3.0174105167388916,-1.0956249089819365,-0.6560794239887711,2.6708689859209307
1.5233681201934814,0.460803747177124,-1.4370474815368652,0.6098805665969849,-3.5304973125457764,2.113673686981201,3.830111503601074,-1.141652544473364,-0.6172527632212181,2.6903469458294005
1.5336112976074219,0.6166607737541199,-1.4564874172210693,0.6155149340629578,-4.12972354888916,1.9451229572296143,4.700363636016846,-1.1973245090757092,-0.5636262924137757,2.7263802017043006
1.5433521270751953,0.8181231617927551,-1.398152232170105,0.5964828729629517,-4.606404781341553,1.6827787160873413,5.550449371337891,-1.2609551727544461,-0.4817531754829351,2.793935263101228
1.553396224975586,0.9812217354774475,-1.2766551971435547,0.5393494963645935,-4.940494537353516,1.3995871543884277,6.358053684234619,-1.3288315704235132,-0.3406460748118017,2.924465038108709
1.5677711963653564,1.0459184646606445,-1.115279197692871,0.46082383394241333,-5.051257133483887,1.1624258756637573,7.052791595458984,-1.3921440660187483,-0.06610631301036585,-3.0912631301408355
1.574249267578125,1.0452383756637573,-0.983386754989624,0.369670569896698,-4.842392921447754,0.8539025783538818,7.606581687927246,-1.4280298371747857,0.454093207943229,-2.5750098139808295
1.5831623077392578,1.0319082736968994,-0.9164308905601501,0.2719944715499878,-4.2171735763549805,0.3919355571269989,8.009939193725586,-1.4073184375166925,1.041736000899974,-1.9872833128993181
1.593285083770752,1.035226821899414,-0.8565148711204529,0.15453684329986572,-3.240593433380127,-0.03965524584054947,8.145752906799316,-1.344123838915669,1.369296708003202,-1.6554762229379623
1.6034212112426758,0.9759353995323181,-0.7443253993988037,0.030169906094670296,-2.035470962524414,-0.3584913909435272,8.091650009155273,-1.266855051137705,1.5039973195463623,-1.5139718326631504
1.615246295928955,0.8475949764251709,-0.6327370405197144,-0.10681915283203125,-0.7922465205192566,-0.6076343655586243,7.986817836761475,-1.1869924827632514,1.5487287026720535,-1.4613384607146898
1.6231932640075684,0.7268307209014893,-0.5611611604690552,-0.20781129598617554,0.3533187806606293,-0.6645588874816895,7.808945655822754,-1.1079370384110148,1.5506028155339808,-1.4522724140778813
1.6332712173461914,0.6076267957687378,-0.5318168997764587,-0.24612188339233398,1.1563923358917236,-0.6103233695030212,7.589569568634033,-1.030599175136397,1.5339052485280835,-1.4639884956000264
1.6433191299438477,0.5163507461547852,-0.478945791721344,-0.2523842453956604,1.4281108379364014,-0.4200192093849182,7.3267340660095215,-0.9553768301027301,1.5137336530723828,-1.4818079395378205
1.6533093452453613,0.45249396562576294,-0.4377918243408203,-0.25093603134155273,1.238290548324585,-0.15173424780368805,7.1407036781311035,-0.8823021747933847,1.4992257599049066,-1.4964321687048239
1.6641321182250977,0.3871188163757324,-0.40932124853134155,-0.24589216709136963,0.7572427988052368,0.08826147764921188,7.019369602203369,-0.8108279712183853,1.4934793776706392,-1.5036831968980178
1.6731810569763184,0.3184624910354614,-0.37169355154037476,-0.22435802221298218,0.1388123631477356,0.2691516578197479,6.846805572509766,-0.7412441900471239,1.4960396793508108,-1.5026024039224564
1.6832771301269531,0.2456679344177246,-0.3528255820274353,-0.187181293964386,-0.5689953565597534,0.3836996555328369,6.698566913604736,-0.6737598414785014,1.5051655288199133,-1.4936128101034716
1.6934101581573486,0.17902791500091553,-0.333604633808136,-0.16000092029571533,-1.3354825973510742,0.44148892164230347,6.504126071929932,-0.6082637016743215,1.5192842810863438,-1.4769023806436667
1.7033190727233887,0.14050501585006714,-0.295195996761322,-0.13675761222839355,-2.0613436698913574,0.4301055669784546,6.287693977355957,-0.5449986502272393,1.5365750113972438,-1.453299392139484
1.7140512466430664,0.1488785743713379,-0.2645350694656372,-0.07754552364349365,-2.595294952392578,0.28742003440856934,6.069029331207275,-0.48372657565371063,1.5543698860368957,-1.4245709413482313
1.7232069969177246,0.23078930377960205,-0.2249431014060974,0.029546260833740234,-2.9530229568481445,0.03723851218819618,5.829651355743408,-0.4243639831483722,1.5698697798390957,-1.3930011224287886
1.7333321571350098,0.3780277967453003,-0.16330766677856445,0.13387727737426758,-3.1036813259124756,-0.25602397322654724,5.649400234222412,-0.3668220921698932,1.5814089768981683,-1.3602898030551105
1.7434031963348389,0.5805873274803162,-0.07304602861404419,0.21594572067260742,-3.079671859741211,-0.5930152535438538,5.591250419616699,-0.3101254176805916,1.5877783601162911,-1.328252180905994
1.7533493041992188,0.8547504544258118,0.06972068548202515,0.270477294921875,-2.9776930809020996,-0.8254247903823853,5.606945514678955,-0.2536068052459702,1.5891456042406809,-1.2976662219166606
1.764040231704712,1.199106216430664,0.24097834527492523,0.288602352142334,-2.785613775253296,-0.9587904810905457,5.767111301422119,-0.19622208814287706,1.586574582828751,-1.2689632811232565
1.773327350616455,1.6499388217926025,0.44283413887023926,0.26597094535827637,-2.3267135620117188,-1.005602240562439,6.006149768829346,-0.13689295927217773,1.5808597040231969,-1.2435448365935335
1.7833342552185059,2.1609888076782227,0.7539971470832825,0.20601046085357666,-1.4645062685012817,-0.985210657119751,6.04669713973999,-0.0762464169333547,1.5730291186366145,-1.2246370450192972
1.7933502197265625,2.459520101547241,1.12580144405365,0.11747848987579346,-0.4748217761516571,-1.0365310907363892,5.750417232513428,-0.016899549563664153,1.5634852568087727,-1.2148457743956693
1.8033812046051025,2.3598737716674805,1.3539658784866333,0.10636210441589355,0.35780709981918335,-1.0979689359664917,5.150974273681641,0.03790434719796587,1.5527993525336892,-1.2137119869081234
1.8141002655029297,2.0107274055480957,1.325851559638977,0.22737663984298706,0.8062512278556824,-1.134690284729004,4.196380615234375,0.08506355532342368,1.5419963817826807,-1.2187411313743075
1.8233342170715332,1.6100164651870728,1.1830421686172485,0.41051530838012695,0.7490755319595337,-1.2084414958953857,3.0473501682281494,0.12200425718916502,1.5312384189140997,-1.225707631467679
1.8333640098571777,1.2222926616668701,1.0539206266403198,0.5250270962715149,0.1509426236152649,-1.1486355066299438,1.8811804056167603,0.1468088030828401,1.519823817802827,-1.2293762435764184
1.8433821201324463,0.9218102097511292,0.947993278503418,0.46805238723754883,-0.5824665427207947,-0.84378582239151,0.9963357448577881,0.1609059246865347,1.5093214021661039,-1.22638044382372
1.8535141944885254,0.7949222922325134,0.8794007301330566,0.2877308130264282,-1.2678043842315674,-0.50135737657547,0.3316442668437958,0.16682503371863427,1.5010354699844497,-1.2165480319016937
1.865248203277588,0.8059132695198059,0.8652899861335754,0.14006757736206055,-1.7757148742675781,-0.17642779648303986,-0.13006871938705444,0.16658116574054285,1.4950850022827158,-1.2009471284829343
1.8735241889953613,0.8140799403190613,0.9055121541023254,0.07896364480257034,-2.0803701877593994,0.09066622704267502,-0.4245466887950897,0.16223483061183316,1.4915495447883478,-1.1815340389520752
1.8835251331329346,0.7729368209838867,0.9480064511299133,0.09362436085939407,-2.2026360034942627,0.24694229662418365,-0.6254451274871826,0.15521768993370302,1.489983901456275,-1.1602161216092182
1.8936841487884521,0.7190600633621216,0.9678517580032349,0.17226195335388184,-2.174790620803833,0.2504185140132904,-0.7210938930511475,0.1466297792031643,1.4893221559894365,-1.1385727559480083
1.9036831855773926,0.6623010635375977,0.9773458242416382,0.30003559589385986,-2.005208730697632,0.10037030279636383,-0.7297406792640686,0.13763100263564945,1.4882869239848553,-1.1180725351160221
1.9145572185516357,0.5808532238006592,1.002234935760498,0.4472191333770752,-1.811323881149292,-0.09066729992628098,-0.7280269265174866,0.12876535748584803,1.4858711574442853,-1.0994540998492666
1.9234671592712402,0.42785030603408813,1.046545386314392,0.5693735480308533,-1.5860737562179565,-0.2463001310825348,-0.744013786315918,0.1199529301575489,1.4821155802476687,-1.0830101175715543
1.9336302280426025,0.2439795732498169,1.0648475885391235,0.617466151714325,-1.3516734838485718,-0.3669666051864624,-0.8067945837974548,0.1109122796110938,1.4774172523241709,-1.0689657103100156
1.9435172080993652,0.08545839786529541,1.0632230043411255,0.5889910459518433,-1.0983623266220093,-0.4001944661140442,-0.9247075915336609,0.10111490300238649,1.4723245497728294,-1.0575241616657474
1.9536280632019043,-0.07141584157943726,1.0538084506988525,0.5145720839500427,-0.8617632985115051,-0.32139819860458374,-1.0816291570663452,0.09012421222078353,1.4678262753404647,-1.048741001701481
1.9642422199249268,-0.2414148449897766,1.0404367446899414,0.4371051788330078,-0.6559969186782837,-0.16273950040340424,-1.2679238319396973,0.07763938832719237,1.4648703089928754,-1.0424197454110333
1.9735913276672363,-0.3938599228858948,1.0050075054168701,0.38284897804260254,-0.5204086899757385,0.027245620265603065,-1.4715454578399658,0.06336896605633954,1.4638816506155652,-1.0380765452800023
1.9835631847381592,-0.5177211165428162,0.9482302069664001,0.3538967967033386,-0.4526802599430084,0.24097512662410736,-1.7169628143310547,0.04695652376569099,1.4650912513928567,-1.0349245165437602
1.9936323165893555,-0.6127642393112183,0.9073131680488586,0.34211909770965576,-0.39440682530403137,0.43581920862197876,-1.9624624252319336,0.02815118660750162,1.4684331298959445,-1.0326356453204295
2.003643035888672,-0.6758295297622681,0.8861029744148254,0.32807815074920654,-0.36838188767433167,0.6304249167442322,-2.2141947746276855,0.006922067679736848,1.4737649351743818,-1.030906460851992
2.0142061710357666,-0.723838210105896,0.8747774958610535,0.3126465082168579,-0.2850390672683716,0.819482684135437,-2.4447968006134033,-0.0166875336912653,1.481100680163053,-1.0298023800144662
2.023634195327759,-0.7714609503746033,0.8478006720542908,0.2844676375389099,-0.1614738255739212,1.0267564058303833,-2.6587417125701904,-0.04240981780463867,1.4903782445069311,-1.0296877591725289
2.03367018699646,-0.8125718235969543,0.8218410611152649,0.2453898787498474,0.05412184074521065,1.234426498413086,-2.879216432571411,-0.07018434319387176,1.501710614990516,-1.0311794291935306
2.043661117553711,-0.8347125053405762,0.8126688599586487,0.2070966362953186,0.39449542760849,1.3994330167770386,-3.1277098655700684,-0.10018789138935576,1.514679980720253,-1.035199946486421
2.0537543296813965,-0.8237695097923279,0.8134546875953674,0.1809523105621338,0.8139187693595886,1.5307652950286865,-3.383483648300171,-0.13264319018288206,1.528621392717874,-1.0428561542110788
2.0642662048339844,-0.7975124716758728,0.7944933176040649,0.16051256656646729,1.1903795003890991,1.680177927017212,-3.6689138412475586,-0.16790340006866294,1.5431930105992389,-1.0542374881050707
2.0737600326538086,-0.7498319745063782,0.772644579410553,0.15988725423812866,1.5756540298461914,1.8206106424331665,-4.0243730545043945,-0.2070886911688755,1.5586286354174546,-1.0689304291263932
2.0837411880493164,-0.6592696309089661,0.7279399037361145,0.15911865234375,1.9765428304672241,1.8921390771865845,-4.371443748474121,-0.2514943123948748,1.5745617630732502,-1.0870767571525046
2.0937490463256836,-0.5611753463745117,0.6414542198181152,0.13305151462554932,2.29400634765625,2.0272490978240967,-4.676751136779785,-0.2976600553640488,1.5885669649536744,-1.108705550629629
2.1038622856140137,-0.4791682958602905,0.5632873773574829,0.08991587162017822,2.4900691509246826,2.2076992988586426,-5.0870137214660645,-0.3475523895739206,1.602404249165383,-1.1326789207605472
2.1155552864074707,-0.39301949739456177,0.4975444972515106,0.08959805965423584,2.6565771102905273,2.363586664199829,-5.4599809646606445,-0.4017403151445443,1.6162229955905734,-1.1580550185361391
2.123814105987549,-0.25705528259277344,0.4900743365287781,0.10065066814422607,2.7933058738708496,2.4612925052642822,-5.7924323081970215,-0.4598111524728609,1.6293998262720855,-1.1847546630425738
2.133908271789551,-0.11058914661407471,0.49091407656669617,0.11577498912811279,2.887929677963257,2.5430071353912354,-6.03740119934082,-0.5211594995434229,1.6415077164687233,-1.2125591383885015
2.1438450813293457,0.038245558738708496,0.46295642852783203,0.14980542659759521,2.9504992961883545,2.571953535079956,-6.2452778816223145,-0.5851785025683638,1.6522559033438986,-1.2412027475374314
2.1538901329040527,0.21504175662994385,0.4235721230506897,0.20770549774169922,3.082336902618408,2.490513801574707,-6.379798412322998,-0.6514822314159808,1.6604485990078965,-1.271249031745403
2.164213180541992,0.43970537185668945,0.4646926522254944,0.2933865785598755,3.374046564102173,2.259284019470215,-6.471302032470703,-0.7208825792875715,1.6637887248807028,-1.304526159267452
2.1737723350524902,0.704140841960907,0.6446074843406677,0.3973160982131958,3.7825393676757812,1.906455636024475,-6.5827226638793945,-0.7900496969345321,1.6570497386068583,-1.345171624247783
2.1839070320129395,0.978024959564209,0.9159029126167297,0.4905719757080078,4.144171714782715,1.5464712381362915,-6.66481351852417,-0.8596122439036696,1.636834321237322,-1.3960213944043596
2.1939592361450195,1.2659080028533936,1.2216808795928955,0.6053512096405029,4.627596378326416,1.2223416566848755,-6.735660552978516,-0.9289534343205262,1.6003843489027927,-1.4606651701327886
2.2038822174072266,1.554164171218872,1.461104393005371,0.6265217065811157,4.585752010345459,0.9310169219970703,-6.791407108306885,-0.996856646865076,1.5436245195311988,-1.5426246593160442
2.2142510414123535,1.7700464725494385,1.6811041831970215,0.6815846562385559,4.0677337646484375,0.9171231985092163,-6.988064765930176,-1.0630192360998245,1.4741376804402084,-1.6345021553631922
2.223856210708618,1.9655492305755615,1.8383398056030273,0.7309218049049377,3.4373574256896973,0.8287460207939148,-7.294342041015625,-1.1287504495072236,1.3908152943723353,-1.7380189706919515
2.2339272499084473,1.9945948123931885,1.6335136890411377,0.7380005121231079,2.404949188232422,0.7874539494514465,-7.593734264373779,-1.1948932933515353,1.2935316028596278,-1.852645099074125
2.2438549995422363,2.0311708450317383,1.5377171039581299,0.8537416458129883,1.5199075937271118,0.8218613266944885,-7.722565650939941,-1.2611988957620932,1.1795236657232513,-1.9822878560357062
2.253998279571533,2.0318994522094727,1.478385329246521,0.8811806440353394,0.675592303276062,0.8199462890625,-7.722390651702881,-1.3256470572015013,1.0309164164833187,-2.145247571804033
2.264233112335205,1.8336639404296875,1.1759486198425293,0.8750362992286682,-0.08167019486427307,0.8845601081848145,-7.59688138961792,-1.385574617038845,0.8167836638782928,-2.373046623683108
2.273935317993164,1.626807689666748,0.8649750351905823,0.8846792578697205,-0.5307601094245911,0.9454895257949829,-7.410360336303711,-1.4340265118655517,0.4653354724432893,-2.7382319051285213
2.2839503288269043,1.4247238636016846,0.5094403028488159,0.8874432444572449,-0.5738990306854248,0.9821224808692932,-7.133655548095703,-1.4541074411816235,-0.08657013787765261,2.9791772051295458
2.294027328491211,1.2444736957550049,0.11497986316680908,0.8776867389678955,-0.3835333287715912,1.082774043083191,-6.691208362579346,-1.4345520106847904,-0.6080182577196408,2.4433884952449247
2.3040542602539062,1.1435573101043701,-0.10802721977233887,0.8096515536308289,0.12098317593336105,1.1662449836730957,-6.212260723114014,-1.3908381621199712,-0.9003572456006991,2.1360370315167345
2.3142051696777344,1.071536660194397,-0.3313383460044861,0.6863735318183899,0.792145848274231,1.2196059226989746,-5.578740119934082,-1.3394875364128747,-1.0316760114537602,1.9897918669727517
2.3239781856536865,1.0690557956695557,-0.5479199290275574,0.5429030060768127,1.3275704383850098,1.3430073261260986,-4.950896263122559,-1.2882546061349718,-1.0819913202064926,1.9245995008298795
2.3341102600097656,1.047194004058838,-0.6979199647903442,0.4358503818511963,1.7410835027694702,1.535385012626648,-4.201904296875,-1.2404224239785444,-1.0920893673671923,1.8989527882009043
2.3439760208129883,1.0047607421875,-0.8101590871810913,0.3677958846092224,2.057539701461792,1.7459228038787842,-3.3944122791290283,-1.1978780332899086,-1.0779122098262537,1.8965335193376136
2.3540701866149902,0.9656292200088501,-0.8936184048652649,0.35332340002059937,2.16105580329895,1.9199057817459106,-2.6473894119262695,-1.1611313975739614,-1.0500780426766632,1.9067966074193052
2.3652851581573486,0.9032456278800964,-0.9729117155075073,0.41366446018218994,2.06416654586792,2.030860662460327,-1.9251559972763062,-1.1305792670337669,-1.0158455995511928,1.922624380680432
2.3741230964660645,0.8434456586837769,-1.0834031105041504,0.4945042133331299,1.779756784439087,2.0499138832092285,-1.2646437883377075,-1.106695843718495,-0.9796514386219755,1.940119615149747
2.384181022644043,0.7843143939971924,-1.2375755310058594,0.559730052947998,1.348487138748169,2.0575032234191895,-0.7240307331085205,-1.089597144486154,-0.9449511732011864,1.9560246198030096
2.3941941261291504,0.7295770645141602,-1.420731544494629,0.5926083922386169,0.8081071376800537,2.0362889766693115,-0.26818758249282837,-1.0791615933122074,-0.9136606873378051,1.968212038046102
2.404301166534424,0.6993818283081055,-1.620021104812622,0.5995372533798218,0.20642539858818054,1.9703905582427979,0.16165560483932495,-1.0755741405734485,-0.8867504826890678,1.9759826044602193
2.4141881465911865,0.7095676064491272,-1.8019938468933105,0.5949274897575378,-0.45967432856559753,1.8835698366165161,0.595313310623169,-1.0792715651834461,-0.8647867775919433,1.9790072972129913
2.42413330078125,0.7562025785446167,-1.9396636486053467,0.5952099561691284,-1.1532132625579834,1.7648051977157593,1.0837204456329346,-1.0908859490800924,-0.8477133825863216,1.9776578607324753
2.4341492652893066,0.8315141201019287,-2.001163959503174,0.5951246023178101,-1.839585781097412,1.6024963855743408,1.5705260038375854,-1.1108165888511417,-0.8357309345858264,1.9722466851815346
2.444113254547119,0.8931400775909424,-2.012580394744873,0.5809390544891357,-2.3293871879577637,1.4200149774551392,2.09275221824646,-1.138513745626954,-0.8292564974673969,1.9629760070571451
2.454219341278076,0.9176307916641235,-2.023326873779297,0.5166938304901123,-2.6712002754211426,1.123540997505188,2.6732447147369385,-1.1731184502296073,-0.821841935195445,1.9571765913427717
2.4642982482910156,0.9527410268783569,-1.98179292678833,0.45440512895584106,-2.7950549125671387,0.7771702408790588,3.180981397628784,-1.2133541947485134,-0.8123522405208774,1.9571119367187446
2.4742913246154785,0.9544687271118164,-1.890518307685852,0.393160343170166,-2.6697838306427,0.3821457028388977,3.649306058883667,-1.2571101589617755,-0.7952908023503525,1.9690192159483308
2.4843151569366455,0.9105265736579895,-1.8114855289459229,0.31908199191093445,-2.3565444946289062,-0.025288604199886322,4.054131031036377,-1.3021625623163902,-0.76071664151437,2.003193647138654
2.494265079498291,0.8557697534561157,-1.7326897382736206,0.2577388882637024,-1.9583839178085327,-0.46428540349006653,4.3610405921936035,-1.3464436480328148,-0.695339824575312,2.073114575698228
2.5043251514434814,0.7777343988418579,-1.6476411819458008,0.21317988634109497,-1.4808272123336792,-0.8558000326156616,4.634785175323486,-1.3871371204414402,-0.5762516589005622,2.201494701875206
2.5143370628356934,0.6807094216346741,-1.5989534854888916,0.1586543321609497,-1.0346622467041016,-1.1582483053207397,4.926377773284912,-1.4202789820197494,-0.3667635514818263,2.4241473514689282
2.5243072509765625,0.5962937474250793,-1.5163607597351074,0.0970822125673294,-0.5668250322341919,-1.3279474973678589,5.170385360717773,-1.4387192601908716,-0.04111031226969262,2.765679553312904
2.53434419631958,0.5127149224281311,-1.3998034000396729,0.005811572074890137,-0.0928582176566124,-1.3879896402359009,5.471512317657471,-1.433861911892359,0.34038990009093645,-3.118905061038503
2.544373035430908,0.43568700551986694,-1.2750747203826904,-0.1537594199180603,0.06320861726999283,-1.4259289503097534,5.694626331329346,-1.4067648126763073,0.6523708912245493,-2.789168904789738
2.554340124130249,0.37303072214126587,-1.1658380031585693,-0.23852784931659698,-0.1466846913099289,-1.3700308799743652,5.930365085601807,-1.366670233669536,0.8659215174085432,-2.5577168601080142
2.5644640922546387,0.32309842109680176,-1.145702838897705,-0.2397558093070984,-0.748813271522522,-1.2811667919158936,6.312461853027344,-1.3193904120591755,1.0227446597186145,-2.38316383300024
2.575151205062866,0.3354317545890808,-1.1311607360839844,-0.16988863050937653,-1.500666856765747,-1.2925819158554077,6.739239692687988,-1.2667349486293538,1.1515578424149475,-2.236004382828307
2.5845022201538086,0.39999333024024963,-1.1133947372436523,-0.02136247605085373,-2.2753078937530518,-1.5704445838928223,7.307059288024902,-1.207712196630754,1.2609078662343074,-2.1052266382795453
2.5943603515625,0.5597560405731201,-1.0294800996780396,0.15564054250717163,-3.0282480716705322,-2.1457250118255615,7.93486213684082,-1.1408342181696975,1.3510400777004514,-1.9878556004569257
2.604499340057373,0.9248719215393066,-0.7411798238754272,0.37488311529159546,-3.923994541168213,-3.330380916595459,8.268309593200684,-1.0671078576167943,1.421903394745346,-1.87808045287834
2.6153762340545654,1.6233874559402466,-0.1333526372909546,0.7102982997894287,-4.1544342041015625,-4.478324890136719,8.316709518432617,-0.9898499557493462,1.4672923038616097,-1.7793154976140335
2.6244771480560303,2.3328616619110107,0.4887104630470276,0.8200187087059021,-3.856898546218872,-5.3232035636901855,8.541668891906738,-0.9095764567494828,1.4850709474596377,-1.6968497809006082
2.6344542503356934,2.67826509475708,1.0666548013687134,0.4958704710006714,-4.129027843475342,-5.374972343444824,8.93603515625,-0.8259088524819871,1.4859165044752995,-1.6245568517830988
2.644479274749756,2.8577964305877686,1.7292494773864746,0.021481268107891083,-4.925735950469971,-4.495527267456055,9.367999076843262,-0.7381787787132262,1.488710267746417,-1.5501328449736407
2.65457820892334,2.9767379760742188,2.3667550086975098,-0.45120126008987427,-5.4775919914245605,-3.694336414337158,9.307567596435547,-0.6486371696589259,1.4971253964450422,-1.4729510634714202
2.6646270751953125,2.653740167617798,2.2342989444732666,-0.7845925688743591,-5.8256306648254395,-2.816450834274292,8.757063865661621,-0.5620754247159356,1.5081272873254101,-1.3962778092797739
2.674570083618164,2.4329142570495605,1.6500616073608398,-0.7993926405906677,-5.658149719238281,-2.016162633895874,8.076475143432617,-0.48131477982029147,1.5204051443326232,-1.3240426510181431
2.6845271587371826,2.3964738845825195,1.3447951078414917,-0.5503554940223694,-3.8372323513031006,-1.9386839866638184,7.364742755889893,-0.405649170944227,1.5247486571706534,-1.2674872389010923
2.6945102214813232,2.2946808338165283,1.3548228740692139,-0.2093876600265503,-1.0746216773986816,-2.0963289737701416,6.471902370452881,-0.33810572163166397,1.5151018875104845,-1.2374195919018613
2.7046501636505127,2.126333713531494,1.3899046182632446,0.002975471317768097,0.6182196736335754,-1.8040271997451782,6.13406229019165,-0.2753030385167617,1.4974606862993602,-1.2324087913104163
2.714614152908325,2.092193603515625,1.2433042526245117,0.26876944303512573,1.2921384572982788,-1.8363758325576782,5.656773090362549,-0.21537301616380602,1.478429921417532,-1.2371548045619474
2.7245302200317383,1.805666446685791,1.0771965980529785,0.7010616660118103,2.3375027179718018,-1.9864431619644165,5.480181694030762,-0.1583583761637438,1.4570588602265795,-1.249540573769261
2.7345752716064453,1.5331872701644897,1.1799404621124268,0.791522204875946,3.609037399291992,-2.092561721801758,5.369264602661133,-0.1005787580711761,1.4335942834421116,-1.2723999955287981
2.744500160217285,1.2995257377624512,1.4655277729034424,0.7049511671066284,3.9780218601226807,-1.9354174137115479,5.187834739685059,-0.04235849328762249,1.4111217952125732,-1.303062455584354
2.754533290863037,0.9179178476333618,1.4412838220596313,0.6596912145614624,3.500629425048828,-1.6436291933059692,4.789331912994385,0.01321404124183604,1.392662621523198,-1.331847834466487
2.764564037322998,0.5098109841346741,1.102350115776062,0.6573426723480225,2.7444896697998047,-1.1849310398101807,4.5196614265441895,0.06476720970786963,1.3793713990783776,-1.3541133908568024
2.774651050567627,0.206101655960083,0.9600096940994263,0.5308470726013184,1.9980531930923462,-0.8004348278045654,4.1249823570251465,0.11200764048049115,1.3707778378735247,-1.368987143542707
2.7846813201904297,-0.03226524591445923,1.0546818971633911,0.40499067306518555,1.2006968259811401,-0.4061358869075775,3.4941582679748535,0.1526865661573013,1.3658169384369903,-1.3770788539169219
2.7945070266723633,-0.28930413722991943,0.9972093105316162,0.32257628440856934,0.5351718664169312,-0.019093647599220276,2.9816901683807373,0.185993376933862,1.3640283052704927,-1.378853379603795
2.804490089416504,-0.5006415247917175,0.8921905159950256,0.23080946505069733,0.14999593794345856,0.27780088782310486,2.5701727867126465,0.21394835708332888,1.364894859349869,-1.376282414001754
2.8146543502807617,-0.6687710285186768,0.9377107620239258,0.13822364807128906,0.03332578018307686,0.468840628862381,2.0218052864074707,0.23665112440300354,1.367824390481824,-1.3722671404922777
2.8246212005615234,-0.834346354007721,1.0230311155319214,0.0884762704372406,0.13900454342365265,0.6071199178695679,1.5311845541000366,0.25413611022291627,1.3725562622722827,-1.3693749913066797
2.834522247314453,-0.9681290984153748,1.075740933418274,0.08161391317844391,0.41616371273994446,0.676084578037262,1.139426350593567,0.26769310326960044,1.3791136885474795,-1.369439277414644
2.84462308883667,-1.049086570739746,1.136305332183838,0.07979126274585724,0.8364712595939636,0.6309381723403931,0.8298991918563843,0.2784866460815501,1.3870147556006232,-1.3738927300308965
2.854703187942505,-1.0886108875274658,1.2151381969451904,0.08833611011505127,1.3168761730194092,0.5140818357467651,0.599054753780365,0.2873598306086312,1.3955585743338008,-1.3836248982416355
2.8654160499572754,-1.1160087585449219,1.2776623964309692,0.0898471474647522,1.7718772888183594,0.3855603039264679,0.4744764566421509,0.2951428378449234,1.4045476525838139,-1.3986774281572674
2.8748130798339844,-1.1434462070465088,1.3043322563171387,0.07301299273967743,2.193120241165161,0.27182283997535706,0.44527488946914673,0.30189338280516675,1.4151641448780514,-1.4188853699202564
2.884871006011963,-1.1664104461669922,1.3294824361801147,0.043563663959503174,2.549985647201538,0.17430932819843292,0.4648009240627289,0.30983400094525604,1.4247369623846484,-1.442886592024505
2.8947741985321045,-1.1678813695907593,1.3633458614349365,-0.005314871668815613,2.8289387226104736,0.10345140099525452,0.5001162886619568,0.31834152952737643,1.4346556525215046,-1.4702986526087114
2.9048190116882324,-1.142805814743042,1.390932559967041,-0.058057963848114014,3.004986047744751,0.049378130584955215,0.5186908841133118,0.32720577430487713,1.444920473538933,-1.5002075827156525
2.915201187133789,-1.1001172065734863,1.3884165287017822,-0.09754740446805954,3.1158182621002197,0.023219499737024307,0.5053777694702148,0.3359380848477943,1.4555612944396972,-1.53177348795284
2.9248170852661133,-1.0303421020507812,1.3527816534042358,-0.1268368810415268,3.1788113117218018,0.03202541917562485,0.47953304648399353,0.3442840556174803,1.4667410501862421,-1.5644579168224084
2.934910297393799,-0.9045296907424927,1.3222674131393433,-0.13934248685836792,3.2076363563537598,0.034542638808488846,0.41614022850990295,0.351851856429245,1.4785172699075848,-1.5978594195383107
2.9448461532592773,-0.7022014260292053,1.2960219383239746,-0.11825966089963913,3.221910238265991,0.008670161478221416,0.364849328994751,0.35847525519593615,1.4905288870483713,-1.6316956204761548
2.9549922943115234,-0.41322094202041626,1.2734901905059814,-0.06177949905395508,3.2404582500457764,-0.08178330212831497,0.355366587638855,0.36441893226476557,1.5023278055309113,-1.66589142269166
2.9650142192840576,-0.03372299671173096,1.2721970081329346,-9.160488843917847e-05,3.2785394191741943,-0.3668728768825531,0.3757569193840027,0.37007979745604763,1.5127105859894705,-1.7005455919247916
2.974888324737549,0.40447747707366943,1.3021100759506226,0.05122333765029907,3.287844181060791,-0.7952476739883423,0.3279270827770233,0.3754436324783447,1.5195863055529286,-1.7355334480701172
2.984955310821533,0.8115703463554382,1.3498057126998901,0.10597938299179077,3.1389544010162354,-1.1492959260940552,0.12184017151594162,0.37939578233480975,1.5225899312126974,-1.7702564100534348
2.9948883056640625,1.1620780229568481,1.3870800733566284,0.14433538913726807,2.5305168628692627,-1.6707566976547241,-0.3859442174434662,0.3796391392524392,1.5202709459967272,-1.8011739617605067
3.0049381256103516,1.6712435483932495,1.3487781286239624,0.3357720375061035,1.7130893468856812,-2.6015586853027344,-1.0376330614089966,0.3736965225045922,1.5076506198537385,-1.824541788266678
3.0151500701904297,2.2566351890563965,1.1074033975601196,0.8060067892074585,0.3857381343841553,-3.393829584121704,-1.7442090511322021,0.3605730351366665,1.4818285864157377,-1.8374073174605516
3.024973154067993,2.386445999145508,0.7391371726989746,1.2539539337158203,-1.6174179315567017,-3.6978025436401367,-2.5638036727905273,0.3384576415170676,1.4449163112857502,-1.8337035761305436
3.0349183082580566,2.0878281593322754,0.4220835268497467,1.4553768634796143,-3.850292205810547,-3.6808273792266846,-3.477628707885742,0.3043705645363067,1.4002012056844158,-1.809799281584493
3.044894218444824,1.8585401773452759,0.20620989799499512,1.434816598892212,-5.577250957489014,-3.199280261993408,-4.428198337554932,0.25615158630908086,1.3542236064250754,-1.7690712384379101
3.0549893379211426,1.8099653720855713,0.10119390487670898,1.1576765775680542,-6.404886722564697,-2.191312551498413,-5.2862229347229,0.19439593535796587,1.3161546812322473,-1.7204553587631783
3.065477132797241,1.7856636047363281,0.11369165778160095,0.7128057479858398,-6.485337734222412,-0.8977863788604736,-5.977489948272705,0.12235853737178566,1.2931375442954562,-1.6721546509080558
3.074963092803955,1.7189608812332153,0.19684335589408875,0.346123605966568,-6.074491024017334,0.39482730627059937,-6.45482063293457,0.041474968015591196,1.2891769807258986,-1.6288408585243106
3.084954261779785,1.6422079801559448,0.24146942794322968,0.15945041179656982,-5.415572643280029,1.530301809310913,-6.717118263244629,-0.03827932770849671,1.2991318284517994,-1.5914785755089975
3.0949621200561523,1.6030882596969604,0.22983156144618988,0.10687798261642456,-4.492715835571289,2.6003739833831787,-6.80424165725708,-0.116854526599614,1.322253991939915,-1.5607692357197431
3.1049811840057373,1.5314388275146484,0.2049919068813324,0.07704973220825195,-3.3183650970458984,3.564472198486328,-6.6693830490112305,-0.19174987846818262,1.3568169192703534,-1.5378198140837578
3.115403175354004,1.4273651838302612,0.24292993545532227,0.045422494411468506,-1.8977446556091309,4.32487154006958,-6.529026985168457,-0.26172644837434644,1.3995483439958212,-1.5244395504927417
3.1250181198120117,1.4024312496185303,0.2376614212989807,0.025615692138671875,-0.2757911682128906,4.888256549835205,-6.347254276275635,-0.32727772962669543,1.446190086295872,-1.5229509143649886
3.135073184967041,1.4152617454528809,0.20888292789459229,0.03244984894990921,1.6178301572799683,5.199199676513672,-6.144977569580078,-0.3889381333538696,1.4920618487456458,-1.5367058449832416
3.1450321674346924,1.3954437971115112,0.19078394770622253,0.05258304253220558,3.6111979484558105,5.1575541496276855,-6.006518363952637,-0.4481517770643608,1.5308618149262399,-1.569284008170387
3.155132293701172,1.3599886894226074,0.16163000464439392,0.12080037593841553,5.4064621925354,4.836983680725098,-5.9832611083984375,-0.5069820246422627,1.5566968604415903,-1.6221614681035263
3.1653079986572266,1.3041961193084717,0.10288935899734497,0.23341971635818481,6.792303562164307,4.410782337188721,-6.069745063781738,-0.5668264522255648,1.5661769611260106,-1.694137371552967
3.175093173980713,1.2267909049987793,-0.006658732891082764,0.35084646940231323,7.735285758972168,3.9258079528808594,-6.219804763793945,-0.6278339287678004,1.557954971320949,-1.7830300413387732
3.1851210594177246,1.1855554580688477,-0.13518989086151123,0.4445044994354248,8.19512939453125,3.3791260719299316,-6.3654656410217285,-0.688886729263153,1.531351207355538,-1.8862457305868967
3.195148229598999,1.1777551174163818,-0.2339450716972351,0.5206074118614197,8.1871919631958,2.8755240440368652,-6.562318801879883,-0.7484984643648177,1.4872838871100815,-2.000600497186392
3.205136299133301,1.1641888618469238,-0.3673020601272583,0.5681933760643005,7.737574577331543,2.4509646892547607,-6.795902252197266,-0.806104729048774,1.4283066518716403,-2.1226164304249684
3.2154550552368164,1.1459002494812012,-0.5544901490211487,0.5905871987342834,6.996013641357422,2.0724925994873047,-6.962315559387207,-0.8609852547240933,1.3573820775627106,-2.248902138198691
3.2251110076904297,1.1513772010803223,-0.7241482138633728,0.6042895913124084,6.1853437423706055,1.7640492916107178,-7.147543907165527,-0.912861060741351,1.27632993629595,-2.3781569508835827
3.2351760864257812,1.1618914604187012,-0.8582281470298767,0.6025717258453369,5.37774658203125,1.5075949430465698,-7.348484992980957,-0.9621666047899378,1.1853929574348412,-2.5112058574714964
3.245164155960083,1.165879249572754,-0.9586116671562195,0.5789282917976379,4.621922016143799,1.2485415935516357,-7.447513103485107,-1.008298309971818,1.0834188046286604,-2.6501242574659787
3.255216121673584,1.2023475170135498,-1.0100568532943726,0.5768948793411255,3.9125442504882812,0.9421300292015076,-7.565758228302002,-1.0506335866683847,0.9689208541778336,-2.7964913179687714
3.2654080390930176,1.2468451261520386,-1.0335906744003296,0.6513514518737793,3.339075803756714,0.6090134382247925,-7.656129360198975,-1.0882681582166263,0.8384803019134135,-2.954064954030693
3.2752161026000977,1.270493745803833,-1.086151361465454,0.7326462268829346,2.859063148498535,0.23814773559570312,-7.679751396179199,-1.1192314749188206,0.6901404478514812,-3.1248750191967516
3.2852492332458496,1.3009746074676514,-1.1152962446212769,0.8180283308029175,2.5085387229919434,-0.10889969766139984,-7.665653228759766,-1.1411654578672794,0.5240764212019002,2.9741042355327645
3.295262336730957,1.3230879306793213,-1.1359796524047852,0.8839955925941467,2.1479578018188477,-0.46289771795272827,-7.650211334228516,-1.1524596194912895,0.3451257362462654,2.781016375876223
3.3053061962127686,1.3537026643753052,-1.1086032390594482,0.962847113609314,1.8914177417755127,-0.7962881326675415,-7.577764511108398,-1.1520036832549907,0.1609804107959444,2.586458029367732
3.3155221939086914,1.376668095588684,-1.093538761138916,1.0290420055389404,1.5813813209533691,-1.1046158075332642,-7.430466651916504,-1.1400349970244423,-0.017333784727973613,2.4013446651489976
3.3252391815185547,1.380902647972107,-1.0719518661499023,1.0894832611083984,1.2187269926071167,-1.313927412033081,-7.320275783538818,-1.1186520664513164,-0.18240708541485973,2.2323634251914823
3.335294246673584,1.3198959827423096,-1.082441806793213,1.1169157028198242,0.9272122979164124,-1.3553118705749512,-7.12085485458374,-1.0899317290525865,-0.3298556113637052,2.082425727071143
3.345273017883301,1.215124249458313,-1.1537901163101196,1.0791786909103394,0.6597256064414978,-1.2947971820831299,-6.739622116088867,-1.0559602201823841,-0.45593822591094224,1.9541762246563925
3.355285167694092,1.0838866233825684,-1.2082092761993408,0.9867132902145386,0.46976524591445923,-1.1894252300262451,-6.220984935760498,-1.019489024169115,-0.5601760019205161,1.8477028730560565
3.3659820556640625,0.8873820304870605,-1.1974997520446777,0.8629010915756226,0.48713219165802,-1.1181471347808838,-5.618302822113037,-0.9820542617641101,-0.6442080825290042,1.7616729736376737
3.3754451274871826,0.6138529777526855,-1.1940858364105225,0.7264697551727295,0.5966054201126099,-1.0946519374847412,-4.819248199462891,-0.9451794993628068,-0.7108103690380148,1.6947695198936135
3.3855133056640625,0.32415610551834106,-1.1328320503234863,0.6259482502937317,0.6804947853088379,-0.9592702984809875,-3.783339023590088,-0.9115270963791974,-0.7586694468019937,1.6481591010763783
3.395517349243164,0.07926619052886963,-0.937106192111969,0.5578320026397705,0.696325421333313,-0.7413116097450256,-2.565392255783081,-0.8842750284643754,-0.7899213737239058,1.6191885455266413
3.4054102897644043,-0.063325434923172,-0.6553356647491455,0.5365868806838989,0.7208114862442017,-0.5540536642074585,-1.2119187116622925,-0.86579876267087,-0.8063477373909071,1.6063152172521387
3.415616035461426,-0.061869293451309204,-0.3577337861061096,0.568636953830719,0.7620108723640442,-0.32375597953796387,0.10066420584917068,-0.8566731084228855,-0.8090426880688801,1.6086558291480277
3.425377130508423,0.025155991315841675,-0.18339800834655762,0.5937541127204895,0.7126629948616028,-0.030545860528945923,1.3134288787841797,-0.8566435472518592,-0.7990773204106855,1.6243386617145494
3.435429096221924,0.0856218934059143,-0.15067201852798462,0.6043819785118103,0.5746766328811646,0.3338174521923065,2.3901331424713135,-0.8653130222645976,-0.7771702314408361,1.6514474677621032
3.44551420211792,0.05218803882598877,-0.22850483655929565,0.5792421102523804,0.39385443925857544,0.8096749186515808,3.284346103668213,-0.8814658625298828,-0.7429068310288941,1.688795077061678
3.4555611610412598,-0.01972508430480957,-0.3489578366279602,0.5177212953567505,0.17488880455493927,1.3290618658065796,3.9136996269226074,-0.9032022590211096,-0.6961170423888224,1.7352234099078103
3.4656410217285156,-0.06723558902740479,-0.4544031620025635,0.45902198553085327,-0.07732057571411133,1.8056271076202393,4.255148410797119,-0.9282614540138201,-0.6381038124659301,1.7885524468543164
3.4755282402038574,-0.12744444608688354,-0.6187533140182495,0.4016872048377991,-0.4228593409061432,1.9883424043655396,4.48406457901001,-0.955176545275148,-0.5714939309127697,1.8471548443615167
3.4855422973632812,-0.16080179810523987,-0.8351414203643799,0.38263818621635437,-0.7444813251495361,2.2678256034851074,4.788547039031982,-0.9839384623349763,-0.4965542212112409,1.91250468494938
3.4955811500549316,-0.16773998737335205,-1.047196388244629,0.3752416968345642,-1.0670315027236938,2.6196064949035645,4.96392822265625,-1.0135414266033473,-0.4099208108902691,1.9863263253781689
3.5056042671203613,-0.19143357872962952,-1.163804292678833,0.36954259872436523,-1.251264214515686,2.885043144226074,5.092111587524414,-1.0423121775581075,-0.31113082364871697,2.0694688122023113
3.515801191329956,-0.14293737709522247,-1.1100447177886963,0.4162326455116272,-1.351682186126709,3.065908670425415,5.228386402130127,-1.0680546849771548,-0.19896726625112512,2.164109734713885
3.5256333351135254,-0.040193334221839905,-1.0000123977661133,0.48438823223114014,-1.41732919216156,3.192110538482666,5.406768798828125,-1.0890715780359115,-0.07284583528614764,2.2716160927601097
3.535731315612793,0.054658807814121246,-0.8794494271278381,0.5444920063018799,-1.3638814687728882,3.265542507171631,5.662601470947266,-1.1032883770176471,0.06728968818780985,2.392721772730149
3.5456302165985107,0.1346909999847412,-0.7666819095611572,0.5669207572937012,-1.2353109121322632,3.2612969875335693,5.961876392364502,-1.107902943509015,0.2184783620652748,2.525240443070574
3.555676221847534,0.19154272973537445,-0.6451464891433716,0.5587171316146851,-1.2007708549499512,3.2428669929504395,6.199321269989014,-1.1017239132870165,0.3741951932895175,2.663033397772524
3.5658161640167236,0.23654837906360626,-0.4734072685241699,0.5288475751876831,-1.0910145044326782,3.2385413646698,6.317038536071777,-1.0848860738843424,0.5255036925953711,2.7968114581578294
3.5756962299346924,0.22994104027748108,-0.3613235354423523,0.4749535322189331,-0.8860672116279602,3.2523717880249023,6.453144550323486,-1.057229428560464,0.6652419915272846,2.918931502774093
3.5857043266296387,0.17332473397254944,-0.3080294132232666,0.37154412269592285,-0.6201488971710205,3.3333334922790527,6.520872116088867,-1.019628932990185,0.7891990786392138,3.024527544243444
3.595759153366089,0.09060150384902954,-0.2926582098007202,0.24886849522590637,-0.3015379011631012,3.4952361583709717,6.435973644256592,-0.9742764358294718,0.8957038877515496,3.1106601953711457
3.605675220489502,0.017039835453033447,-0.3278089165687561,0.14249244332313538,0.20745889842510223,3.670271158218384,6.248467922210693,-0.9233759384910435,0.9846209178554626,-3.1073470479340153
3.6160361766815186,-0.025924623012542725,-0.376828134059906,0.07918804883956909,0.9563323259353638,3.8151726722717285,6.0479559898376465,-0.8679614958827486,1.056333042513282,-3.0636120749214504
3.625791072845459,-0.032675862312316895,-0.3566116690635681,0.02300301194190979,1.8439701795578003,3.922311782836914,5.878876209259033,-0.808673683969117,1.1124500607359682,-3.040386841723713
3.6357572078704834,-0.02906942367553711,-0.21740961074829102,-0.03163379430770874,2.734736919403076,4.065533638000488,5.674464225769043,-0.7465912200367663,1.1560732433271015,-3.035201530473961
3.6457180976867676,-0.052369773387908936,-0.03933936357498169,-0.07934176921844482,3.5561728477478027,4.1958489418029785,5.496758937835693,-0.6828992586193999,1.1910311880172886,-3.045087110802176
3.6558241844177246,-0.10435092449188232,0.09897619485855103,-0.10338890552520752,4.200926303863525,4.30329704284668,5.321103572845459,-0.6183657321784047,1.2207288655875175,-3.0664768810389287
3.665922164916992,-0.16363292932510376,0.17369204759597778,-0.08343753218650818,4.621023654937744,4.3423686027526855,5.092748165130615,-0.5545182004084983,1.2477026350329674,-3.096060221549401
3.6758251190185547,-0.23340362310409546,0.17695462703704834,-0.033693939447402954,4.678093433380127,4.334372520446777,4.7976603507995605,-0.49306633777148917,1.2741575319443057,-3.1300398301931773
3.6857590675354004,-0.288887619972229,0.1665368378162384,0.02448733150959015,4.405452728271484,4.310489177703857,4.480220317840576,-0.43579584611566685,1.3020166538125981,3.1185898900096576
3.6958541870117188,-0.31784677505493164,0.14547652006149292,0.08144834637641907,3.888214349746704,4.204531669616699,4.225955486297607,-0.38322927797538625,1.3320034559098013,3.086665326958325
3.705918312072754,-0.31081950664520264,0.14721882343292236,0.14350032806396484,3.314237356185913,3.9599969387054443,4.043817043304443,-0.3348974406222214,1.3631779619354982,3.058791064667209
3.7161593437194824,-0.2707553505897522,0.16559889912605286,0.19600647687911987,2.545238494873047,3.656780958175659,3.881927728652954,-0.29035267881197135,1.3943773767157994,3.036347175942281
3.7258553504943848,-0.1974586844444275,0.22044238448143005,0.2167607992887497,1.549975872039795,3.4246249198913574,3.8031058311462402,-0.24916896533508132,1.4258024937906824,3.0215633573095197
3.735985279083252,-0.10549187660217285,0.2847973704338074,0.21463614702224731,0.41314345598220825,3.2267682552337646,3.94539213180542,-0.2095770873607091,1.457980489227443,3.016625508685342
3.7459192276000977,0.06813132762908936,0.374239981174469,0.24009466171264648,-0.5830932855606079,2.9171719551086426,4.264083385467529,-0.16885866918209394,1.4897708134790264,3.021671674020098
3.755970001220703,0.3907511234283447,0.5261106491088867,0.26592737436294556,-1.0405398607254028,2.411447048187256,4.654475688934326,-0.12490969781527318,1.518272508559926,3.0333666149728793
3.7659692764282227,0.7848499417304993,0.769112229347229,0.21744698286056519,-0.5422294735908508,1.8029429912567139,4.974915027618408,-0.07695675612652939,1.5405109969992141,3.0440066239924675
3.775820255279541,1.0821728706359863,1.1564419269561768,0.10587078332901001,0.7835738658905029,1.2404152154922485,5.239252090454102,-0.025933949828950902,1.555923488206703,3.0443380381836165
3.7859561443328857,1.3000903129577637,1.768202304840088,0.06923401355743408,2.79268217086792,0.3916747272014618,5.572624683380127,0.028414224014570263,1.5645633841375963,3.0274413239631266
3.79592227935791,1.5256800651550293,2.5626707077026367,0.2888945937156677,5.7457780838012695,-1.195963978767395,5.45883321762085,0.08420893260399448,1.563492062707606,2.985511395556012
3.8060083389282227,1.6154946088790894,3.04421329498291,0.6978275775909424,8.730652809143066,-2.8187153339385986,4.853884220123291,0.13704914742300903,1.5511278906137473,2.9126202109553514
3.8160762786865234,1.5160167217254639,2.934976816177368,1.0953435897827148,10.196526527404785,-3.7505075931549072,3.6732583045959473,0.18280430030895645,1.5331356797506526,2.8167429600042664
3.8258843421936035,1.2451369762420654,2.424980401992798,1.3563644886016846,9.741416931152344,-3.4627649784088135,2.0586750507354736,0.21624312458490683,1.5165952869585715,2.715008130662425
3.8360962867736816,0.9841343760490417,1.7367101907730103,1.4376561641693115,7.165515899658203,-3.185110092163086,0.36193034052848816,0.2332971732016986,1.5026885698230252,2.6278675310892696
3.845870018005371,0.9292447566986084,1.0990264415740967,1.4594149589538574,3.7035622596740723,-2.739924430847168,-0.925045907497406,0.23431293535594,1.4859789529137446,2.5719199767820298
3.856034278869629,1.1974157094955444,0.6612415909767151,1.3022390604019165,0.6302062273025513,-1.9978889226913452,-2.0302910804748535,0.22133293737496304,1.4672989728854018,2.5487110700981295
3.866314172744751,1.3010914325714111,0.6852626800537109,0.9442816972732544,-1.1212413311004639,-1.0303447246551514,-2.999359369277954,0.1956796615006135,1.4519290203354798,2.549403507049153
3.8760900497436523,1.2374508380889893,1.106405258178711,0.5991180539131165,-1.598222017288208,-0.030275506898760796,-3.790130138397217,0.15991190717299414,1.4448560072339112,2.5594285185353827
3.8861892223358154,1.217487096786499,1.4600392580032349,0.4208678603172302,-1.2873594760894775,0.8201702237129211,-4.243655681610107,0.11778217437818127,1.4476092608497528,2.5692204870179047
3.8961472511291504,1.2446630001068115,1.5793465375900269,0.4169502258300781,-0.7642195224761963,1.5422346591949463,-4.555332660675049,0.07266611348864994,1.45896751412731,2.5741837887297305
3.906046152114868,1.3227925300598145,1.521767258644104,0.5369148254394531,-0.2476750910282135,2.142037868499756,-4.985137462615967,0.02442478916206553,1.4774898247046533,2.5744125818602646
3.9161221981048584,1.3959543704986572,1.441270351409912,0.7312604784965515,0.5528758764266968,2.4077022075653076,-5.434566497802734,-0.027864669911816013,1.5004920143821374,2.5688317514169423
3.925999164581299,1.5144574642181396,1.428184986114502,0.9411027431488037,1.6500425338745117,2.357851982116699,-5.9255475997924805,-0.08471839451276164,1.5236876415944376,2.554606190242595
3.936188220977783,1.6763067245483398,1.4064264297485352,1.0870466232299805,2.58315110206604,2.1558635234832764,-6.4766764640808105,-0.1534710108738674,1.5434840032068817,2.530721284356116
3.9462132453918457,1.8026492595672607,1.2833476066589355,1.1572294235229492,3.026196002960205,1.9561059474945068,-7.02271032333374,-0.22104197673978984,1.5584068740880757,2.5004667285501787
3.95607328414917,1.7979261875152588,1.0399563312530518,1.1581296920776367,2.9411818981170654,1.9013347625732422,-7.510322093963623,-0.2939395149196952,1.5695499080211857,2.468822191849287
3.966214179992676,1.699209451675415,0.7479398846626282,1.0688945055007935,2.5829360485076904,2.000497341156006,-7.827377796173096,-0.3710997461847038,1.5794731740862606,2.4396815109568215
3.9760313034057617,1.5872249603271484,0.5608636140823364,0.920928955078125,2.1826677322387695,2.237360954284668,-8.008501052856445,-0.45092105188254905,1.5908026965098994,2.4149976394089903
3.986203193664551,1.4742844104766846,0.475932776927948,0.7707021236419678,2.0289294719696045,2.5436322689056396,-8.081585884094238,-0.5321702023171275,1.6047708917313241,2.3937949461331667
3.9960403442382812,1.3834586143493652,0.3818332552909851,0.6266770362854004,2.178267002105713,2.6854894161224365,-8.071822166442871,-0.6139844756684896,1.6195981417702554,2.3727438684805584
4.006130218505859,1.2655537128448486,0.22414594888687134,0.5283156633377075,2.4826714992523193,2.743882417678833,-8.07078742980957,-0.6959952229502055,1.6324998331590503,2.3492025328566095
4.0162482261657715,1.1802277565002441,0.06775730848312378,0.5159726142883301,2.964484214782715,2.697319984436035,-8.133981704711914,-0.7788059678763827,1.6400595035021872,2.319837866753456
4.0262131690979,1.13993501663208,-0.13712245225906372,0.5333919525146484,3.4543144702911377,2.497091770172119,-8.192317008972168,-0.862658262347742,1.637486561710037,2.2807334358826417
4.036233186721802,1.1286659240722656,-0.3683040738105774,0.5528165102005005,3.8316521644592285,2.223433494567871,-8.212050437927246,-0.9468898418703852,1.620902968500249,2.229601433766268
4.046165227890015,1.1896350383758545,-0.5511232614517212,0.5802927017211914,4.1181321144104,1.8760740756988525,-8.187102317810059,-1.0303696449656066,1.5848229364912199,2.161887548997011
4.056249141693115,1.2885990142822266,-0.7062205672264099,0.624809741973877,4.316162109375,1.5512536764144897,-8.097428321838379,-1.1113527478381824,1.5220354157313953,2.0708615644881254
4.066286087036133,1.3802828788757324,-0.853871762752533,0.6917231678962708,4.380611419677734,1.2357598543167114,-8.006827354431152,-1.1874116037477764,1.4209463453712425,1.944943940756866
4.0762200355529785,1.4642837047576904,-1.043637752532959,0.7784859538078308,4.123879909515381,0.9997060894966125,-7.970895290374756,-1.2560651539385237,1.2678789123499628,1.7703770710166966
4.086234092712402,1.5391254425048828,-1.2576465606689453,0.8584276437759399,3.538529396057129,0.8938363194465637,-7.886839389801025,-1.3138278450511989,1.0479649994328182,1.531538058598056
4.096238136291504,1.5850989818572998,-1.4523417949676514,0.9099511504173279,2.866389274597168,0.9145112037658691,-7.718631744384766,-1.355550007588664,0.7487864097019126,1.2147561934455946
4.1063032150268555,1.575210452079773,-1.6603922843933105,0.9150969982147217,2.082972764968872,1.0383353233337402,-7.5497894287109375,-1.3758384350615183,0.38159583574056255,0.8299532315748008
4.116441249847412,1.535452961921692,-1.9084229469299316,0.8813635110855103,1.2235949039459229,1.24836266040802,-7.319091796875,-1.3738749016393308,0.005658886254545939,0.4351954549901752
4.126301288604736,1.4773752689361572,-2.124197483062744,0.8368483781814575,0.3772295415401459,1.5635682344436646,-6.94624137878418,-1.354675799560363,-0.3137420634205111,0.0946399644593066
4.136359214782715,1.3785194158554077,-2.285263776779175,0.7680681943893433,-0.4167437255382538,1.8512847423553467,-6.435210227966309,-1.3263087385320018,-0.5575543880217799,-0.1732867913585144
4.146352291107178,1.2729343175888062,-2.387112617492676,0.6978840827941895,-1.0828595161437988,2.1082193851470947,-5.826089859008789,-1.2948043339897892,-0.73963040939128,-0.382225169937398
4.156447172164917,1.1732196807861328,-2.433490037918091,0.6113860607147217,-1.6284143924713135,2.247657299041748,-4.8905158042907715,-1.2619531859556266,-0.8786539510212104,-0.5498818702451999
4.166437149047852,1.0476588010787964,-2.358975410461426,0.5049144625663757,-1.9867819547653198,2.4259204864501953,-3.5791444778442383,-1.2385428855845872,-0.9762741884839844,-0.6772711052262175
4.176406145095825,0.8754034042358398,-2.188812255859375,0.35915786027908325,-2.2646546363830566,2.661074161529541,-1.9962546825408936,-1.225962091702202,-1.0442842238491858,-0.7764287799063226
4.186397075653076,0.6875465512275696,-1.9686527252197266,0.21720050275325775,-2.4695539474487305,2.8522984981536865,-0.25194689631462097,-1.227483865907324,-1.0902031546282593,-0.8545027780177262
4.1964051723480225,0.5599063634872437,-1.8403077125549316,0.09196971356868744,-2.4480857849121094,2.9953269958496094,1.5144703388214111,-1.2442794752773954,-1.11581588837575,-0.9127427737610424
4.206404209136963,0.4873942732810974,-1.9173259735107422,-0.032354891300201416,-2.376011610031128,3.0026981830596924,3.0544345378875732,-1.2754762204538024,-1.1217256900217605,-0.9506264287261579
4.217024326324463,0.45440223813056946,-1.990024209022522,-0.07435323297977448,-2.48449444770813,2.769434690475464,4.326839923858643,-1.3194183526229177,-1.1121510906807246,-0.9707851141869472
4.226376056671143,0.47297966480255127,-1.8804070949554443,-0.06275296211242676,-2.7356011867523193,2.478233575820923,5.405853271484375,-1.3747299865251184,-1.0910829115737044,-0.9761936281976534
4.236523151397705,0.5256767868995667,-1.6393632888793945,-0.03834397345781326,-2.820425271987915,2.0009922981262207,6.367455005645752,-1.439896577501024,-1.043826379830822,-0.9512255853069188
4.246426105499268,0.6161285042762756,-1.3525981903076172,0.028529170900583267,-2.8155834674835205,1.4300190210342407,6.928798675537109,-1.5110017210183166,-0.8598378960323513,-0.7837635316743723
4.256649017333984,0.743674635887146,-1.0636333227157593,0.06944745779037476,-2.6166939735412598,0.5419161319732666,7.595260143280029,-1.5411847266520675,1.1647898980267943,1.2316001850198344
4.266571044921875,0.89787358045578,-0.7910018563270569,0.03677189350128174,-2.3686039447784424,-0.13072550296783447,8.351900100708008,-1.4626475781685628,1.6921189575295488,1.7578570389203596
4.276486158370972,0.9479944705963135,-0.5242480635643005,-0.09571397304534912,-2.389221668243408,-0.38649338483810425,8.73151683807373,-1.3743991380730332,1.756695586422971,1.825994524979178
4.286512136459351,0.8663967847824097,-0.43989115953445435,-0.2607673406600952,-2.5469970703125,-0.4204629063606262,9.149374961853027,-1.28182520082132,1.7788556509324334,1.8530276269214565
4.296541213989258,0.8957393169403076,-0.4462467432022095,-0.37379908561706543,-2.811981439590454,-0.46983417868614197,9.453987121582031,-1.1849671458118791,1.7933357364712588,1.8729977090605838
4.306539058685303,1.023269534111023,-0.33382630348205566,-0.2624894380569458,-2.46148681640625,-0.9389933347702026,9.698448181152344,-1.0854883758471778,1.7961943642430598,1.8835107079141185
4.31655216217041,1.2167768478393555,-0.05201005935668945,0.014431357383728027,-1.7690234184265137,-1.9528484344482422,9.459722518920898,-0.9868576831697906,1.7827600384509006,1.8842299063560128
4.326550006866455,1.5249757766723633,0.4450409412384033,0.44947946071624756,-0.8066126108169556,-3.3429229259490967,8.901612281799316,-0.894171424480013,1.74807731435191,1.8742917079192913
4.336576223373413,1.7548096179962158,0.9300003051757812,0.7011400461196899,-1.048518180847168,-3.9459261894226074,8.629853248596191,-0.8065454829129531,1.7051806207627045,1.8666563237444653
4.346676349639893,1.7285183668136597,1.4486734867095947,0.6666392087936401,-2.132810592651367,-3.7625668048858643,8.686308860778809,-0.7185256422641789,1.671549148195619,1.8742965094567845
4.356788158416748,1.3736181259155273,1.4979777336120605,0.3217097520828247,-4.349590301513672,-3.1854310035705566,8.927506446838379,-0.6286475033005353,1.6549302526885912,1.9042359257932715
4.366722106933594,0.9768273830413818,1.123134732246399,0.025474421679973602,-4.015063762664795,-3.1879684925079346,7.690399169921875,-0.5421508620692674,1.6462089093779126,1.944889021472847
4.3767712116241455,0.9321966171264648,1.2184348106384277,-0.1408522129058838,-4.814810752868652,-2.697434186935425,8.026344299316406,-0.4591330515801039,1.6381829375492685,1.9897774348568773
4.3867692947387695,0.7411598563194275,1.475076675415039,-0.18713104724884033,-5.387309551239014,-2.2804489135742188,8.202131271362305,-0.37426772906279465,1.6332610805795873,2.0403902169432486
4.396687030792236,0.6333129405975342,1.0571249723434448,-0.16738879680633545,-5.904384136199951,-1.9319230318069458,7.697476863861084,-0.29170571363026054,1.6300655063051352,2.0952161181738904
4.406675338745117,0.6671910881996155,0.9682321548461914,0.06172311305999756,-6.092441082000732,-1.8954635858535767,7.605400085449219,-0.2117369179500985,1.625385423512842,2.15269800494613
4.416661262512207,0.5861077308654785,1.0036659240722656,0.28464579582214355,-5.67586612701416,-1.7875946760177612,7.189856052398682,-0.13438765270347872,1.61698187362427,2.2093314240002093
4.426655292510986,0.5404447317123413,1.112558126449585,0.40334606170654297,-3.300086498260498,-2.6746678352355957,6.477480411529541,-0.06439675954051745,1.599398265206473,2.253012128364216
4.436647176742554,0.5203439593315125,1.2968891859054565,0.46462035179138184,-0.7355636358261108,-2.5608034133911133,5.642416000366211,-0.0024272315560973446,1.5722710179529664,2.2724619209491235
4.446722030639648,0.40508705377578735,1.4416574239730835,0.505632221698761,4.909058570861816,-5.414951324462891,5.615536212921143,0.04977123369583725,1.5288297976435345,2.250873780333479
4.456716060638428,0.14289599657058716,1.6075835227966309,0.6471881866455078,5.309868812561035,-1.7677397727966309,5.9622039794921875,0.11396416310184816,1.4987934569435994,2.197268746895113
4.466776132583618,-0.16777336597442627,1.97881019115448,0.19054585695266724,4.947549819946289,-2.689589738845825,5.469996929168701,0.17252056702373456,1.4812042678987711,2.153701387337656
4.476797103881836,-0.05073314905166626,1.4953347444534302,0.7825456857681274,6.072687149047852,-1.8766207695007324,5.081040859222412,0.2316540755587372,1.4686375924406223,2.1029015737773835
4.486739158630371,-0.4357231855392456,1.7225395441055298,0.5440875291824341,7.250845432281494,-1.4982999563217163,4.135882377624512,0.2842117750368221,1.4682701031950254,2.039805327580494
4.496915340423584,-0.6441313028335571,1.915291666984558,0.2763878107070923,8.04776382446289,-1.157841682434082,3.409921646118164,0.32953345543035995,1.477800342858267,1.962836742021528
4.506679058074951,-0.701876699924469,2.0574264526367188,0.15278416872024536,6.396812438964844,-0.16506540775299072,2.4196019172668457,0.36526919175393613,1.4968574500971807,1.8867210921414799
4.516788005828857,-0.862123966217041,1.5779646635055542,0.007159590721130371,3.50844144821167,0.6761283874511719,1.1133159399032593,0.385409209088348,1.518371863825866,1.8347075087359774
4.526764154434204,-0.8992577195167542,1.0241339206695557,0.04777735471725464,1.4185038805007935,1.3124436140060425,0.5300289392471313,0.3944852663785134,1.5384097078805476,1.8094656996991796
4.536849021911621,-0.7497991323471069,1.221076488494873,-0.09059101343154907,0.8222325444221497,1.5580075979232788,-0.4727015495300293,0.39524287579993317,1.557254670791621,1.7980703057030243
4.546871185302734,-0.6543430685997009,1.4679924249649048,-0.1916027069091797,0.6371259689331055,1.5279464721679688,-1.4089713096618652,0.3856045280801933,1.5757512566621346,1.7900111346616387
4.5568811893463135,-0.578705370426178,1.3587802648544312,-0.18938910961151123,0.3318730890750885,1.5029546022415161,-2.110813856124878,0.36768025853000347,1.5927880726117685,1.785129094951899
4.566868305206299,-0.39114558696746826,1.2146446704864502,-0.09908449649810791,0.28552281856536865,1.4384695291519165,-2.5397024154663086,0.34417161906213795,1.6083721800076496,1.7828011469706353
4.576920032501221,-0.0730515718460083,1.2674206495285034,-0.083213210105896,0.6222214102745056,1.0630937814712524,-2.914097309112549,0.31661416113275054,1.6221281796810163,1.7794292856311325
4.586904048919678,0.3442707061767578,1.4264588356018066,-0.04065597802400589,0.8845489621162415,0.5551456212997437,-3.259058952331543,0.28530971741629757,1.6320150773088757,1.7733181298282228
4.5990002155303955,0.7802978157997131,1.4912506341934204,0.08488761633634567,0.9596897959709167,-0.016547929495573044,-3.593343496322632,0.25040533872114873,1.6366601873506719,1.7659486906323245
4.606898307800293,1.176952600479126,1.3645247220993042,0.23160851001739502,1.0454492568969727,-0.6864626407623291,-3.745748519897461,0.21285383377448894,1.6349443572209041,1.758133243492437
4.616971015930176,1.4547091722488403,1.225586175918579,0.36535048484802246,1.0208812952041626,-1.2119249105453491,-3.9606683254241943,0.17387924345781344,1.6269144214575157,1.749857391649902
4.626847267150879,1.6222549676895142,1.2018765211105347,0.45323431491851807,0.835864245891571,-1.5937923192977905,-4.466862678527832,0.13128481948618176,1.6138257060686272,1.7424881965829069
4.637028217315674,1.7811338901519775,1.0806283950805664,0.5247701406478882,0.5180873870849609,-1.7792936563491821,-5.055772304534912,0.08333410623055008,1.597314684208695,1.7372719896429707
4.648306131362915,1.9825246334075928,0.8519243001937866,0.5398030281066895,0.2278326153755188,-1.7542914152145386,-5.59925651550293,0.029831012228574795,1.5796576847070594,1.7345209410351632
4.657044172286987,2.2015368938446045,0.7394804358482361,0.5004674196243286,0.04539861902594566,-1.4561961889266968,-6.189754962921143,-0.029292022021182328,1.5633524653721431,1.7332985418212898
4.6669762134552,2.3839011192321777,0.7378929853439331,0.42415350675582886,-0.06709377467632294,-0.9440420866012573,-6.702223777770996,-0.09407857565846484,1.5511875354429752,1.7324715737295684
4.6771581172943115,2.4453680515289307,0.7124133706092834,0.3391529321670532,-0.04746094346046448,-0.46759963035583496,-7.005029678344727,-0.16306416014415245,1.5439675563796162,1.7315435829940655
4.687011241912842,2.4633469581604004,0.7156605124473572,0.31550467014312744,0.22806641459465027,-0.00925854966044426,-7.1695332527160645,-0.23448031254388088,1.54087615640227,1.728647058430883
4.698314189910889,2.49540114402771,0.7972524166107178,0.33214497566223145,0.6929895877838135,0.3363126814365387,-7.296200275421143,-0.31370249880543066,1.538604064968303,1.7211542141289897
4.706987142562866,2.494241952896118,0.8776007890701294,0.3867226243019104,1.4129126071929932,0.5845242738723755,-7.333652496337891,-0.3870079666978927,1.5384414303120297,1.7074848932689173
4.717100143432617,2.4955437183380127,0.8755508661270142,0.4393673539161682,2.1957874298095703,0.7459874749183655,-7.338897705078125,-0.45995425855553285,1.535789237344221,1.6848542532187656
4.727076053619385,2.465723752975464,0.870715856552124,0.4655713438987732,2.7419185638427734,0.8600258827209473,-7.493775367736816,-0.5332417981044086,1.5287429681588516,1.6533045547259875
4.737085342407227,2.319422483444214,0.7571567893028259,0.5029067993164062,3.0529210567474365,0.9303075075149536,-7.666265487670898,-0.6077776958996856,1.5164478684484037,1.6141410415798865
4.748412132263184,2.137434959411621,0.48326683044433594,0.5176973938941956,3.001358985900879,1.0258336067199707,-7.85377836227417,-0.68340051825647,1.4996637765877767,1.5700031256762748
4.75712513923645,1.9378516674041748,0.25194960832595825,0.5295639038085938,2.7826080322265625,1.0927201509475708,-8.061717987060547,-0.7606332688527093,1.479134369793858,1.5228228216030963
4.767090320587158,1.6847333908081055,0.011524856090545654,0.519939124584198,2.4217798709869385,1.1005077362060547,-8.153520584106445,-0.83876142922781,1.4546829470996423,1.4734856789507011
4.777364253997803,1.4791839122772217,-0.20764613151550293,0.4924429655075073,2.134676933288574,1.1130740642547607,-8.135849952697754,-0.9168018436247215,1.4257993915654694,1.4215349695395183
4.787085056304932,1.3171693086624146,-0.393507719039917,0.44814586639404297,1.9872726202011108,1.0782195329666138,-8.035634994506836,-0.9934611322596958,1.389518821895558,1.3636896860582983
4.798733234405518,1.195253610610962,-0.5162383317947388,0.420396089553833,2.0519931316375732,1.0455355644226074,-7.887714385986328,-1.0674945438192136,1.3400864988300356,1.293750806926655
4.807222127914429,1.1233868598937988,-0.6126523017883301,0.3894057273864746,2.356633424758911,0.9864736795425415,-7.7162580490112305,-1.1371796723399439,1.2676454021749854,1.201216075372806
4.817122220993042,1.1253069639205933,-0.7337183356285095,0.3553420901298523,2.820680618286133,0.818912148475647,-7.533897399902344,-1.1996993779084038,1.1564611782814151,1.0706527896877154
4.827154159545898,1.1668038368225098,-0.8493198752403259,0.33132797479629517,3.2433183193206787,0.6730203032493591,-7.431142807006836,-1.2512302846796535,0.9899871481441256,0.8859673022497485
4.83707332611084,1.2312068939208984,-0.9650610685348511,0.34549468755722046,3.643240451812744,0.5039178729057312,-7.362795829772949,-1.2861146225184343,0.7577069255149711,0.6366101241221985
4.848235130310059,1.3182188272476196,-1.1451443433761597,0.4017728567123413,3.7546491622924805,0.28330785036087036,-7.4298014640808105,-1.2985454342585052,0.4738962721670233,0.337556100238816
4.85747218132019,1.3951613903045654,-1.4104933738708496,0.5263680219650269,3.5398590564727783,0.1521407663822174,-7.507052421569824,-1.2879049865039185,0.18442852855116776,0.0345009794081287
4.867362022399902,1.4799538850784302,-1.728616714477539,0.670262336730957,3.0932884216308594,0.008408328518271446,-7.397248268127441,-1.2587768194558875,-0.06542259366645847,-0.22754100115899187
4.877509117126465,1.5513375997543335,-2.018784999847412,0.8226046562194824,2.3256053924560547,-0.1299106627702713,-7.198918342590332,-1.2196135085504813,-0.26291970285009425,-0.43569392530229645
4.8873982429504395,1.548798680305481,-2.2725682258605957,0.9835835695266724,1.1609649658203125,-0.48686128854751587,-6.9373087882995605,-1.1790821636815736,-0.42227474283983446,-0.6034582646456313
4.898406028747559,1.530588984489441,-2.5114941596984863,1.1329421997070312,0.003953276202082634,-0.8388603329658508,-6.59382438659668,-1.1418336548798942,-0.5601507979828957,-0.7465844901042014
4.907300233840942,1.5142884254455566,-2.7298519611358643,1.1804251670837402,-1.0758733749389648,-1.2723013162612915,-6.106995105743408,-1.108836879623975,-0.6857640434696863,-0.8743300254114381
4.917302131652832,1.4455076456069946,-2.821636199951172,1.1596511602401733,-1.9975316524505615,-1.778783917427063,-5.239758014678955,-1.0791517649578815,-0.8023326939361825,-0.9882010426529387
4.927610158920288,1.3492761850357056,-2.742182731628418,1.1307510137557983,-2.7058324813842773,-1.741072416305542,-4.0891432762146,-1.0590332747264881,-0.9090784465263437,-1.0894343365674224
4.937335014343262,1.1673696041107178,-2.5342609882354736,0.9411782622337341,-3.348407030105591,-1.4465241432189941,-2.6007165908813477,-1.0490773215455518,-1.0027957220673904,-1.1789504819365408
4.948459148406982,1.0185611248016357,-2.182424545288086,0.723568856716156,-3.337677478790283,-1.2427618503570557,-1.077255368232727,-1.05033541576307,-1.0835686254497008,-1.2567355919765546
4.957561016082764,1.0350894927978516,-2.091886281967163,0.47341299057006836,-2.6498210430145264,-1.1331312656402588,0.20046424865722656,-1.0598807809295434,-1.1463941500761046,-1.315394613274488
4.967417240142822,1.0922675132751465,-2.3105921745300293,0.2024558186531067,-1.8732216358184814,-1.0853776931762695,1.2163649797439575,-1.0753577536284775,-1.190057454240231,-1.3527082352201414
4.977426052093506,0.9889665842056274,-2.352933645248413,0.08898933231830597,-1.1397974491119385,-1.1742662191390991,2.20894718170166,-1.0967370049728145,-1.2161872513574363,-1.3695690064777502
4.9874162673950195,0.8235462307929993,-2.175978183746338,0.03263944387435913,-0.5132341980934143,-1.3175688982009888,3.207462787628174,-1.1249615415264747,-1.2255084818453865,-1.3659816227427324
4.998598098754883,0.6796516180038452,-1.9392881393432617,0.003951549530029297,0.0016741263680160046,-1.3148151636123657,4.264949798583984,-1.1609788238488297,-1.2158545908933815,-1.3407791116886851
5.007430076599121,0.5583913922309875,-1.6825778484344482,0.016513168811798096,0.3475532829761505,-1.2205770015716553,5.224201202392578,-1.2046307350576124,-1.181841572933056,-1.2903424844101345
5.017429351806641,0.45292606949806213,-1.4676108360290527,0.06406255066394806,0.3433212637901306,-1.0543872117996216,6.1176886558532715,-1.2549577853950047,-1.1185546170026472,-1.211047693097647
5.027581214904785,0.36773180961608887,-1.3317534923553467,0.12851078808307648,-0.033870767802000046,-0.7811557650566101,7.118250846862793,-1.312133320581315,-1.0142692985538448,-1.0926798893989462
5.037521123886108,0.3362453877925873,-1.2300167083740234,0.1614357978105545,-0.8132989406585693,-0.35424599051475525,8.007608413696289,-1.3754375204791145,-0.8351831205140527,-0.9029636900614111
5.048581123352051,0.38744375109672546,-1.1039702892303467,0.16502761840820312,-2.1665797233581543,-0.1005764752626419,8.453346252441406,-1.4390191559971204,-0.4994779969607328,-0.5609999557809789
5.057594299316406,0.5578278303146362,-0.9702293276786804,0.1761035919189453,-3.4344749450683594,-0.3920719623565674,9.673086166381836,-1.4789801159286335,0.2945113236877255,0.23945180870496285
5.067472219467163,0.950508713722229,-0.5353599786758423,0.22129225730895996,-5.0503830909729,-1.0093865394592285,10.374351501464844,-1.435529536155496,1.2239127026207408,1.1807478852059152
5.07755708694458,1.3566474914550781,0.301385760307312,0.3820197582244873,-4.997636795043945,-1.4312925338745117,10.33305835723877,-1.3402741406569199,1.5842838933461945,1.5590442933575528
5.087531089782715,1.5113739967346191,0.6251898407936096,0.30713796615600586,-3.770240545272827,-2.1595239639282227,10.242116928100586,-1.2338843126848364,1.6920007089595672,1.6891117166758711
5.098627090454102,1.5594350099563599,0.8069794178009033,0.34719908237457275,-2.4325222969055176,-3.560708999633789,9.020642280578613,-1.1334903133915564,1.709268866526383,1.7384448440243065
5.107563018798828,1.9050006866455078,1.5132927894592285,0.7318207025527954,-0.37894773483276367,-4.435982704162598,7.7041754722595215,-1.0489703776883115,1.6762468563379387,1.7467224412909306
5.117570161819458,2.2401838302612305,1.9882557392120361,0.4637051820755005,0.5926589369773865,-4.673764705657959,6.896435260772705,-0.9764809851448321,1.6175106508935804,1.7319621653341992
5.127573013305664,1.7257329225540161,1.812504768371582,-0.0010432007256895304,0.13049454987049103,-3.8810207843780518,6.459167957305908,-0.9099944206901299,1.5664796595377781,1.7223832360016396
5.137639045715332,1.2543320655822754,1.322251796722412,-0.35518205165863037,-0.683650553226471,-3.012742280960083,6.554157733917236,-0.8452500987077514,1.5369218684191355,1.7287487246977804
5.148678302764893,1.2233928442001343,1.0709701776504517,-0.5422372817993164,-1.5015504360198975,-2.1653871536254883,6.750917434692383,-0.7790298962047887,1.525236963348207,1.7483617817854735
5.157710075378418,1.174403190612793,1.1329843997955322,-0.5314934253692627,-2.5905144214630127,-1.4113901853561401,6.901374816894531,-0.7117548323420986,1.5288486378999164,1.7800843126171961
5.167627334594727,1.0182790756225586,1.0480297803878784,-0.4339951276779175,-3.546318292617798,-0.9415000677108765,6.989809036254883,-0.6433431876442005,1.5439086053867042,1.822574649654638
5.177913188934326,0.9838858842849731,0.8434609174728394,-0.2811506986618042,-4.195198059082031,-0.7347362041473389,7.043690204620361,-0.573731107737611,1.563574522184878,1.8714870961261763
5.187711238861084,0.915745198726654,0.7735104560852051,-0.09071862697601318,-4.732124328613281,-0.719473659992218,7.076724052429199,-0.5028988030745175,1.5829059462321708,1.9231831766276863
5.198609352111816,0.7944523096084595,0.6864964962005615,0.0776982307434082,-5.761099815368652,-0.7131673097610474,7.04368257522583,-0.4310699440961681,1.6008806794526096,1.9795009391836107
5.207828998565674,0.6858136057853699,0.5617256164550781,0.23987603187561035,-5.706605911254883,-1.2203632593154907,6.823190212249756,-0.35954518901953453,1.6149947423673505,2.040121037638488
5.2177581787109375,0.6025938987731934,0.4983646869659424,0.39307260513305664,-6.1289286613464355,-1.386724829673767,6.419862270355225,-0.2902548903430892,1.6204164397365282,2.0993712343965742
5.2276411056518555,0.5320917963981628,0.6397006511688232,0.5029934644699097,-4.3750319480896,-2.13376784324646,5.749192714691162,-0.22678605921555064,1.6183075218430671,2.153451805017987
5.23787522315979,0.30432838201522827,0.7163949012756348,0.4219322204589844,-1.360280990600586,-3.0479066371917725,5.8292317390441895,-0.16773710504960282,1.5954715694323789,2.180132010172849
5.248464107513428,0.0887906551361084,1.198593258857727,0.33253014087677,-1.7448619604110718,-2.039167642593384,5.190339088439941,-0.1114824502883942,1.5729813182166323,2.192478730098031
5.257842063903809,-0.1519099473953247,0.7713168859481812,0.17149430513381958,-1.9739837646484375,-2.1186094284057617,4.547155857086182,-0.0638858607505815,1.5526759952914253,2.211186240092549
5.267736196517944,-0.31538933515548706,0.1593926101922989,0.555980920791626,-1.9119216203689575,-1.636986255645752,4.619142055511475,-0.018617454407000363,1.5352944147670475,2.2328216506539302
5.2777721881866455,-0.4085943102836609,0.6445479989051819,0.40453583002090454,0.10079056024551392,-1.7535808086395264,4.196682453155518,0.025288049747695336,1.518545574282346,2.2445753993677346
5.287808179855347,-0.4699665904045105,1.271606683731079,0.20160740613937378,2.0028626918792725,-1.6547778844833374,3.6485912799835205,0.06491097731417454,1.5014337375577151,2.2358009937291374
5.298516273498535,-0.5961119532585144,1.4758856296539307,0.0980837270617485,2.216071605682373,-1.053332805633545,3.236778497695923,0.10119563215936081,1.489388153057233,2.21668551647696
5.30786919593811,-0.7562580108642578,1.0578426122665405,0.15221333503723145,1.9114282131195068,-0.4135969281196594,2.8705005645751953,0.13311028459590035,1.4840686094992557,2.198449188468164
5.3179192543029785,-0.8627944588661194,0.7291927337646484,0.2244279980659485,1.9352139234542847,-0.0835023745894432,2.585968494415283,0.1621689018556542,1.484256063159679,2.181916505506704
5.327729225158691,-0.8410860300064087,1.0516825914382935,0.15855735540390015,2.2730913162231445,0.13536898791790009,1.890451192855835,0.18641210613070214,1.4878883987013305,2.1624011122882507
5.338164329528809,-0.8613315224647522,1.2624094486236572,0.09973251074552536,2.199697494506836,0.4596943259239197,1.2062697410583496,0.20355531426552165,1.4949080045542749,2.140590676210606
5.348558187484741,-0.898321270942688,1.0493332147598267,0.1140596866607666,1.8468297719955444,0.7538338303565979,0.7418058514595032,0.21450282700232123,1.5052059089311776,2.1206214958633596
5.3579511642456055,-0.8502492308616638,0.8049872517585754,0.1566333770751953,1.7329881191253662,0.9036059975624084,0.37773042917251587,0.2211533201328062,1.517453460709265,2.102944619441712
5.367886066436768,-0.7055466175079346,0.8743112683296204,0.11977571249008179,1.9962738752365112,0.9232776761054993,-0.009744860231876373,0.22378497055396226,1.5307928174158794,2.084076626506959
5.377950191497803,-0.5086765885353088,1.0329251289367676,0.03733193874359131,2.3776416778564453,0.9173175692558289,-0.23377209901809692,0.22309512934758166,1.545030171715989,2.0615864791596348
5.387827157974243,-0.2189866304397583,1.0657893419265747,-0.03344881534576416,2.6920583248138428,0.8212935328483582,-0.26461631059646606,0.22096443768517493,1.5594907325991274,2.0354975542048885
5.398980140686035,0.1533215045928955,1.0562024116516113,-0.05203843116760254,3.0022401809692383,0.7355653047561646,-0.25302621722221375,0.21847402853819478,1.5735847849910938,2.006308305805559
5.408016204833984,0.5255869030952454,1.1071135997772217,-0.07715630531311035,3.279393196105957,0.6301214694976807,-0.3347748816013336,0.21529458254066255,1.5874399060533062,1.9740676324452986
5.418014049530029,0.8880174160003662,1.1764928102493286,-0.1166524887084961,3.3718225955963135,0.4029032289981842,-0.5848332047462463,0.20993774154344297,1.5999272713263069,1.9398532568245337
5.427801132202148,1.2510056495666504,1.1504020690917969,-0.04299021139740944,3.080738067626953,0.06449632346630096,-0.9388573169708252,0.2012730639201404,1.6090286253604207,1.9069303572262564
5.438013076782227,1.5265998840332031,0.9928500056266785,0.1635528802871704,2.382571220397949,-0.4131661057472229,-1.4198883771896362,0.18832780975077323,1.6126930354228426,1.8792410054679523
5.448745250701904,1.6394033432006836,0.7049059867858887,0.4496995210647583,1.1940577030181885,-0.9267470240592957,-1.9094533920288086,0.17088547972592716,1.6091061575191734,1.861482300316061
5.45807409286499,1.6847949028015137,0.44512927532196045,0.7084367275238037,-0.35199278593063354,-1.3052971363067627,-2.461948871612549,0.14888001999915956,1.59843243290911,1.8577578568266926
5.4680352210998535,1.7051918506622314,0.2715364694595337,0.8101329803466797,-1.9379785060882568,-1.444851279258728,-3.083003044128418,0.12119824642756942,1.5828345424366113,1.8700407412221656
5.478108167648315,1.6562656164169312,0.23762527108192444,0.733635425567627,-3.190999746322632,-1.300814151763916,-3.6249053478240967,0.08760611393124096,1.5661776814331707,1.896228975540505
5.4880921840667725,1.5324609279632568,0.3272207975387573,0.5432440638542175,-4.071865558624268,-0.9397921562194824,-4.199581623077393,0.0479423141375677,1.5524173133833243,1.9324379089907135
5.498678207397461,1.4354236125946045,0.4373575448989868,0.36774611473083496,-4.463845252990723,-0.4277677536010742,-4.74914026260376,0.0019480479696888117,1.5444168522718749,1.974489980009834
5.508109092712402,1.4089446067810059,0.4784059226512909,0.22032952308654785,-4.4199748039245605,0.20310963690280914,-5.132375240325928,-0.04894207734597779,1.5442185461680646,2.0178393654004
5.518124103546143,1.395857572555542,0.4868420362472534,0.08212143182754517,-4.013299465179443,0.9450130462646484,-5.4393205642700195,-0.10304660983840092,1.5530329585929101,2.059224787079999
5.528090000152588,1.3799116611480713,0.5140616297721863,-0.03242313861846924,-3.2535996437072754,1.6646991968154907,-5.661630630493164,-0.15931032271769863,1.5709182029192186,2.09560230800941
5.5382280349731445,1.3593926429748535,0.5337668657302856,-0.11102330684661865,-2.216946840286255,2.262002468109131,-5.8354878425598145,-0.21712644593167224,1.5960505901124435,2.1243797389682397
5.548664093017578,1.3375595808029175,0.5347354412078857,-0.14926791191101074,-1.0218830108642578,2.70283842086792,-5.988995552062988,-0.2808786740894056,1.6260499459385327,2.1436163766504075
5.5583741664886475,1.3109374046325684,0.5151417255401611,-0.19205844402313232,0.10164235532283783,2.9987807273864746,-6.149702072143555,-0.34172037323896115,1.6575616221306044,2.1529359234450975
5.568166255950928,1.2847931385040283,0.512313961982727,-0.2238626480102539,1.0808433294296265,3.118699073791504,-6.358633995056152,-0.4048601640318106,1.6884031745133476,2.1532802564281397
5.578204154968262,1.2384637594223022,0.44616958498954773,-0.22732698917388916,1.713200569152832,3.1378746032714844,-6.623894691467285,-0.47132640732841896,1.7171660614823419,2.1471666370025693
5.588250160217285,1.1951826810836792,0.3209902048110962,-0.20853258669376373,2.082498550415039,3.101613759994507,-6.888001918792725,-0.5412843391841818,1.7439558186326036,2.1379263036620815
5.598855018615723,1.1607388257980347,0.19219189882278442,-0.20487390458583832,2.2835426330566406,2.997197151184082,-7.12685489654541,-0.61443894358558,1.7689107557545969,2.1276286953626746
5.608204126358032,1.1386404037475586,0.09184062480926514,-0.22346532344818115,2.4189608097076416,2.8608150482177734,-7.382785797119141,-0.6904360142488681,1.7922713548612952,2.1177581024486036
5.618263244628906,1.133105754852295,0.0025666356086730957,-0.24479414522647858,2.6125338077545166,2.6663684844970703,-7.632556438446045,-0.7695297933512526,1.8135983121876673,2.108155237536058
5.628244161605835,1.1200816631317139,-0.15978991985321045,-0.2712690830230713,2.7252845764160156,2.4161388874053955,-7.828803539276123,-0.851227995157964,1.8320670191144648,2.0984827155520422
5.638345241546631,1.1424283981323242,-0.28109949827194214,-0.2532074451446533,2.825690269470215,2.1392416954040527,-8.082794189453125,-0.935435481281231,1.8480888384607574,2.0897592725840224
5.6487791538238525,1.1744914054870605,-0.37305015325546265,-0.22005605697631836,3.066378116607666,1.8118553161621094,-8.248527526855469,-1.0223213507377356,1.8599023609907661,2.0800711380527708
5.658327102661133,1.2325263023376465,-0.5311851501464844,-0.1977367401123047,3.2958321571350098,1.3699071407318115,-8.349180221557617,-1.1111077752741927,1.8637926730417842,2.0662952698576698
5.668269157409668,1.3627346754074097,-0.6266790628433228,-0.11175382137298584,3.5336239337921143,0.8751619458198547,-8.480729103088379,-1.2016428853254169,1.8551062512734562,2.04454619680014
5.678359031677246,1.493837594985962,-0.6907892823219299,-0.01642823964357376,3.776711940765381,0.3514691889286041,-8.589127540588379,-1.2938961973394016,1.8235149591440645,2.0047860721506408
5.688388347625732,1.6332021951675415,-0.8303588628768921,0.06960189342498779,3.859842538833618,-0.14808203279972076,-8.614609718322754,-1.386352383223109,1.7420728040575704,1.9202322060015284
5.698983192443848,1.7937604188919067,-1.0062620639801025,0.17081797122955322,3.799495220184326,-0.6120137572288513,-8.535277366638184,-1.4746615816598478,1.4939851716538624,1.673777717167099
5.708293199539185,1.9485530853271484,-1.178323745727539,0.28171199560165405,3.5917892456054688,-1.0561681985855103,-8.489781379699707,-1.5247831984302864,0.22842344943419213,0.41450072550753814
5.718462228775024,2.0755836963653564,-1.385623812675476,0.4248095154762268,3.224940299987793,-1.415806531906128,-8.50380802154541,-1.4618215220669177,-0.7636852139535995,-0.5673046334348457
5.728352069854736,2.1549201011657715,-1.6598963737487793,0.5500949025154114,2.6699893474578857,-1.649303913116455,-8.388993263244629,-1.3773021438155935,-0.9867255938562778,-0.7770563607586505
5.738537311553955,2.196521282196045,-1.929001808166504,0.6398957967758179,1.955984354019165,-1.8452681303024292,-8.063821792602539,-1.2942034964039755,-1.0943241086069995,-0.8697967967681445
5.748779296875,2.1979246139526367,-2.104701280593872,0.6937218308448792,1.186463713645935,-2.0630414485931396,-7.616321563720703,-1.2161966299179596,-1.1719653127557392,-0.930926116587331
5.758481025695801,2.1114702224731445,-2.1691315174102783,0.6924017071723938,0.5966576337814331,-2.294008493423462,-7.086177349090576,-1.1441846713531427,-1.2375664671547988,-0.9783216210420274
5.768404006958008,1.8988151550292969,-2.1655683517456055,0.5875511169433594,0.13183408975601196,-2.49310302734375,-6.456302165985107,-1.0782128462830305,-1.2957998514954159,-1.016525956368877
5.778403282165527,1.6179757118225098,-2.132214069366455,0.4245791435241699,-0.27780959010124207,-2.5576164722442627,-5.583284854888916,-1.0197970317149292,-1.3482686833355397,-1.0477760564667427
5.788463115692139,1.267695426940918,-2.095214366912842,0.20888559520244598,-0.6633036732673645,-2.462001085281372,-4.347861289978027,-0.971709767094874,-1.3958140105155905,-1.074478396316021
5.798912048339844,0.851495087146759,-1.9755263328552246,0.031385354697704315,-0.9015159606933594,-2.217247724533081,-2.507819652557373,-0.938629540304806,-1.437936246155475,-1.0973167012804614
5.808459281921387,0.5082125067710876,-1.6206231117248535,-0.10318685322999954,-0.9310477375984192,-1.9268226623535156,-0.27921462059020996,-0.925729560101632,-1.4734807231225384,-1.1157199830637694
5.818543195724487,0.3282245993614197,-1.1089847087860107,-0.15827488899230957,-0.4599931538105011,-1.7294589281082153,1.8095476627349854,-0.9342351383491643,-1.500473647189675,-1.1267810736272932
5.828458309173584,0.2623497247695923,-0.9630990624427795,-0.1677415370941162,0.18653598427772522,-1.838983416557312,3.4748175144195557,-0.9609616934995652,-1.5175432831973439,-1.1260568465107177
5.8389201164245605,0.20246803760528564,-1.2623779773712158,-0.11742514371871948,0.46469223499298096,-2.051788568496704,4.842506408691406,-1.0025061203652488,-1.528867962556834,-1.1162147804822398
5.848802089691162,0.11191913485527039,-1.4111390113830566,0.039918601512908936,0.44381147623062134,-2.146414041519165,6.011999130249023,-1.056754565250753,-1.5389172421077604,-1.1032946284903087
5.858684062957764,0.03287056088447571,-1.2184762954711914,0.14696872234344482,0.38082239031791687,-2.1099610328674316,7.0037455558776855,-1.1218630033852721,-1.549005895185979,-1.0906024425679857
5.868685245513916,0.029658496379852295,-0.9447827339172363,0.20294404029846191,0.22235095500946045,-2.0940463542938232,7.889151573181152,-1.1964025141231736,-1.5600256791002627,-1.0797072823325449
5.878725051879883,0.10420900583267212,-0.7240105867385864,0.26020586490631104,-0.11411760747432709,-2.145467758178711,8.638528823852539,-1.2792687358795927,-1.579245745238616,-1.0775314905741926
5.888667106628418,0.19696524739265442,-0.562450647354126,0.3054770231246948,-0.6005383133888245,-2.1124980449676514,8.801355361938477,-1.3670775059195206,-1.6250711462714391,-1.1028278186565081
5.8987932205200195,0.27090659737586975,-0.5607551336288452,0.266821026802063,-0.9230766296386719,-2.611292839050293,8.929052352905273,-1.4537565645565338,-1.762835575295993,-1.2184200925908617
5.90877103805542,0.4349142014980316,-0.7051003575325012,0.1736452579498291,-1.278563380241394,-2.7494966983795166,9.535588264465332,-1.529628038514665,-2.586124160679626,-2.0160583131111625
5.918708324432373,0.621604323387146,-0.6667249202728271,0.08151543140411377,-2.20759654045105,-2.456566572189331,9.75723934173584,-1.478570412504353,2.1645588527111985,2.75891039215333
5.928653240203857,0.6958284974098206,-0.3564146161079407,0.027557849884033203,-2.694187879562378,-2.3517203330993652,9.368610382080078,-1.3820416573913556,1.97206039979135,2.5888629043491487
5.938691139221191,0.8069264888763428,-0.09942197799682617,-0.015159353613853455,-2.6540651321411133,-2.566894292831421,8.932930946350098,-1.2868481885703353,1.9141333098783042,2.5545579043434006
5.948857307434082,0.9361721277236938,-0.02407693862915039,0.009869098663330078,-2.2072699069976807,-2.870204210281372,8.6216459274292,-1.1958448936584323,1.8727777821805842,2.5396125029680126
5.9587082862854,1.014602541923523,0.1659032106399536,0.051003336906433105,-1.968550205230713,-2.9304628372192383,8.098603248596191,-1.109412263887588,1.83558430341575,2.5310834587903224
5.968754291534424,1.0989736318588257,0.5439005494117737,0.01965571939945221,-1.6757839918136597,-2.6512997150421143,7.522629737854004,-1.029289041959646,1.8047801476129979,2.527912976069921
5.978689193725586,1.0401716232299805,0.702646791934967,-0.12140345573425293,-1.4398963451385498,-2.3720881938934326,7.23020601272583,-0.953981181768175,1.777934599303695,2.5258981647748
5.988829135894775,0.8329415917396545,0.5858294367790222,-0.25622570514678955,-1.4947048425674438,-1.9332302808761597,6.953138828277588,-0.881412806344747,1.756875478242085,2.5266788948582817
5.9990153312683105,0.6968507766723633,0.44660133123397827,-0.30698561668395996,-1.5440512895584106,-1.4717822074890137,6.643458366394043,-0.8117643531939479,1.7431128522109056,2.5310188039661736
6.008958339691162,0.6050500273704529,0.3537735342979431,-0.3187227249145508,-1.496717095375061,-1.1306053400039673,6.383829593658447,-0.7449282275917964,1.734291595529867,2.5368940847490378
6.019150257110596,0.4953194856643677,0.3128901720046997,-0.26429736614227295,-1.3405426740646362,-0.9046515226364136,6.095870494842529,-0.680939374921531,1.7277031852678992,2.5423109257738266
6.02890419960022,0.3761242628097534,0.28563135862350464,-0.16639795899391174,-1.0937588214874268,-0.7597232460975647,5.790567874908447,-0.6202275736559744,1.7217365563252403,2.546120904238006
6.039589166641235,0.25780272483825684,0.2604541778564453,-0.08495235443115234,-0.835112452507019,-0.6855531930923462,5.5080718994140625,-0.5628852173261698,1.7152665899408956,2.5475610977635714
6.048794269561768,0.13560175895690918,0.25952112674713135,-0.036990292370319366,-0.6100146174430847,-0.6064456105232239,5.2104878425598145,-0.508738792153867,1.7085601348850317,2.547100556928827
6.059027194976807,0.005012631416320801,0.2578265368938446,-0.016662247478961945,-0.3675980269908905,-0.5429899096488953,4.941056728363037,-0.45774486831474387,1.7017896771749976,2.5448919026797894
6.0688371658325195,-0.10670202970504761,0.2624363303184509,-0.016355521976947784,-0.09561940282583237,-0.4817791283130646,4.690206050872803,-0.40962918280621424,1.6948938372832298,2.5407038325070546
6.079074144363403,-0.19758707284927368,0.2915644347667694,-0.024752378463745117,0.22314339876174927,-0.41338250041007996,4.448249340057373,-0.3642814225650877,1.687910676586635,2.534089634345296
6.088804244995117,-0.2812436819076538,0.31890204548835754,-0.037002429366111755,0.5655979514122009,-0.3318696916103363,4.210428714752197,-0.3216562229664111,1.6810154934109127,2.5247209914086532
6.098881244659424,-0.36206763982772827,0.34212788939476013,-0.05531620979309082,0.9145911335945129,-0.22314003109931946,3.979665517807007,-0.28168438912468496,1.6745708118401013,2.512408140585827
6.108776092529297,-0.43183398246765137,0.36122268438339233,-0.07746659219264984,1.2320665121078491,-0.10412172228097916,3.743800163269043,-0.24430394211944437,1.668986068708814,2.4972720825213544
6.119868278503418,-0.47973334789276123,0.3757454752922058,-0.09277939796447754,1.5185507535934448,0.025672227144241333,3.5029799938201904,-0.20952443299546555,1.6646178728098138,2.4796051274504007
6.1288862228393555,-0.5036182999610901,0.38110092282295227,-0.09678422659635544,1.7442352771759033,0.15482226014137268,3.261587619781494,-0.17730649143336347,1.6617135002325136,2.4598155854062935
6.138960123062134,-0.4968162775039673,0.3754274845123291,-0.0929650068283081,1.894439458847046,0.2953852415084839,3.0458004474639893,-0.14753760624102055,1.6605062788781624,2.438487484378981
6.149303197860718,-0.44478362798690796,0.3541930019855499,-0.08473527431488037,1.9408581256866455,0.4121229946613312,2.879592180252075,-0.1197717251120331,1.661107037777919,2.4164435924042564
6.159006118774414,-0.3238098621368408,0.32473134994506836,-0.053696632385253906,1.9164992570877075,0.5202776789665222,2.7981529235839844,-0.09329636464966652,1.6634340948693593,2.3944683055363027
6.168910026550293,-0.11710262298583984,0.29379263520240784,-0.028391964733600616,1.8326514959335327,0.5649998188018799,2.8084216117858887,-0.06718925922765154,1.6672123593323573,2.373021417272727
6.179054260253906,0.18077564239501953,0.2810213267803192,0.005950331687927246,1.7321981191635132,0.5256646275520325,2.873109817504883,-0.0406603786040158,1.6715601518317835,2.3524578874604303
6.189017295837402,0.5538951754570007,0.28846657276153564,0.09205376356840134,1.6469861268997192,0.36011022329330444,2.964293956756592,-0.013352626834887138,1.6755529390572703,2.332627711647142
6.199664115905762,0.9887970685958862,0.34462952613830566,0.1838219314813614,1.6353918313980103,0.036245331168174744,3.078787326812744,0.014979248157281327,1.6776100066145079,2.3131636010975134
6.209028244018555,1.4870665073394775,0.47306028008461,0.26471662521362305,1.6676477193832397,-0.3141234517097473,3.192884922027588,0.04445557691531396,1.6768204666768436,2.293346954081621
6.218952178955078,1.8866896629333496,0.6521979570388794,0.325941801071167,1.6117678880691528,-0.7522976398468018,3.2092490196228027,0.07472235541333563,1.6727289237955507,2.2735514615081653
