timestamp,accel_x,accel_y,accel_z,rotation_x,rotation_y,rotation_z, pitch,roll,yaw
0.041275978088378906,-0.02390354871749878,0.06586772203445435,-0.041111886501312256,-0.005852832458913326,-0.002169443294405937,0.002790789818391204,-0.1993196897818142,1.5161338988251354,0.1887762907233741
0.054762840270996094,-0.02399235963821411,0.0652695894241333,-0.04044806957244873,-0.0031321472488343716,-0.0025446824729442596,0.0022419122979044914,-0.19932278410955007,1.5160947931666613,0.1888238567671828
0.06752395629882812,-0.024691402912139893,0.06485380232334137,-0.03952503204345703,-0.003422348527237773,-0.0030250721611082554,0.0013470370322465897,-0.1993266671921817,1.516055906163427,0.1888619081560676
0.07561087608337402,-0.024414658546447754,0.06517627835273743,-0.03864056617021561,-0.005565660540014505,-0.0022759251296520233,0.0019856630824506283,-0.1993246078306741,1.5160097336855152,0.18890250412342544
0.07694482803344727,-0.02390766143798828,0.065855011343956,-0.03936994820833206,-0.00535169243812561,-0.001397126354277134,0.0010601613903418183,-0.19933268608420904,1.5159753508036995,0.1889611355485602
0.08112001419067383,-0.023936212062835693,0.06404837965965271,-0.04063701629638672,-0.007497400976717472,-0.0003121546469628811,0.0007770673837512732,-0.1993388598444392,1.515960255120523,0.18902656432358023
0.08908390998840332,-0.02489560842514038,0.06440429389476776,-0.04117525368928909,-0.00914626382291317,0.0014228946529328823,0.0017773507861420512,-0.19934941779150642,1.515964433562183,0.1891132189742416
0.0975959300994873,-0.025462031364440918,0.06596192717552185,-0.04106569290161133,-0.007859691046178341,0.004458631854504347,0.001921960269100964,-0.19934810795628757,1.5159928488593848,0.18919199749218912
0.10763072967529297,-0.02479344606399536,0.06720277667045593,-0.04093234986066818,-0.003861387260258198,0.00401095487177372,0.003070048987865448,-0.19934309160808295,1.516028151624607,0.1892501228009307
0.11761474609375,-0.024598121643066406,0.06648606061935425,-0.04225736856460571,-0.00304672634229064,0.0006353980861604214,0.0036524822935462,-0.19932710243524712,1.5160257749724673,0.18927442630450364
0.1277768611907959,-0.024524211883544922,0.06617847084999084,-0.040513575077056885,-0.003053833730518818,0.0034504036884754896,0.003005280625075102,-0.1993139964494858,1.5160215099166108,0.1892972223217644
0.13798785209655762,-0.025457262992858887,0.06603467464447021,-0.04174322634935379,-0.002861020853742957,0.0025867405347526073,0.0015658423071727157,-0.19930506047732957,1.5160307526892436,0.18932212989627492
0.14770078659057617,-0.025012552738189697,0.06553177535533905,-0.04154258966445923,-0.004646437242627144,0.0021738619543612003,-0.00014039152301847935,-0.19931993907994958,1.5160438456837575,0.18936264710214143
0.15790796279907227,-0.023511528968811035,0.06659987568855286,-0.040895938873291016,-0.007291488815099001,0.0014393620658665895,-0.0011252284748479724,-0.19935109012555252,1.5160532005256597,0.18942305264636153
0.16784286499023438,-0.0228002667427063,0.0659915953874588,-0.042321622371673584,-0.0071336799301207066,0.0005084541626274586,-0.003918405156582594,-0.19939568313924552,1.5160438557351987,0.18948585091938655
0.1779470443725586,-0.02251213788986206,0.06553135812282562,-0.042141497135162354,-0.006732075475156307,-0.0018646884709596634,-0.003995104227215052,-0.19946047601665798,1.516030634201967,0.18955274035060155
0.1880960464477539,-0.021908283233642578,0.06581184267997742,-0.04143810272216797,-0.007111775688827038,-0.0017043664120137691,-0.006235781591385603,-0.20031081929916253,1.515037210136071,0.18942219595788978
0.19790172576904297,-0.020542502403259277,0.06544959545135498,-0.04197163134813309,-0.0002586629707366228,-0.002948861103504896,-0.005980916786938906,-0.20114766430046746,1.514044546403343,0.18925267344576419
0.2077770233154297,-0.021367669105529785,0.0632651299238205,-0.03877723217010498,0.0014643855392932892,-0.004693365190178156,-0.0065123774111270905,-0.20194441256287063,1.5130938131921072,0.18906400300035986
0.21765685081481934,-0.022638916969299316,0.06193670630455017,-0.03817683458328247,-0.0008304603397846222,-0.00022324919700622559,-0.006167498417198658,-0.20272416433224288,1.5121740755566186,0.18887830362489136
0.22780585289001465,-0.02280247211456299,0.0593428909778595,-0.04054617881774902,-0.0016523117665201426,0.0005653128027915955,-0.006285742856562138,-0.2034873613946505,1.5113264175171999,0.1887158031024502
0.23867487907409668,-0.02213519811630249,0.05911804735660553,-0.03746611624956131,0.001504865474998951,0.001301410375162959,-0.002688344568014145,-0.204215577311927,1.5105235382654782,0.18855091675702376
0.24802589416503906,-0.020775973796844482,0.05989384651184082,-0.03679163008928299,0.0030153437983244658,0.00023090792819857597,-0.0004476140020415187,-0.20488813905378078,1.509715701936672,0.18836124259921969
0.25791192054748535,-0.020993292331695557,0.058997392654418945,-0.03681386262178421,0.00317646493203938,0.0015073611866682768,-0.0018393819918856025,-0.205538844602281,1.5089337370489837,0.18817230334483975
0.2680840492248535,-0.021242856979370117,0.05595801770687103,-0.036772966384887695,0.00437859958037734,-0.00117874750867486,-0.0001659579575061798,-0.20618085631699662,1.5081650547076688,0.1879754230907386
0.27895593643188477,-0.01978468894958496,0.05626752972602844,-0.03629911690950394,0.005256909877061844,-0.006677908822894096,0.0010428508976474404,-0.20680006805306606,1.507359347797484,0.1877713208775803
0.2899928092956543,-0.020304322242736816,0.05685986578464508,-0.03454715013504028,0.0023544637951999903,-0.007534114643931389,0.0023430592846125364,-0.20737975153637697,1.5065888824964537,0.18758851778320523
0.29807186126708984,-0.02303898334503174,0.053539395332336426,-0.03298747539520264,-0.0010676980018615723,-0.005493068136274815,0.0015853899531066418,-0.2079506372972192,1.5058433021605506,0.1874487994621998
0.3080868721008301,-0.025212585926055908,0.051236674189567566,-0.033578693866729736,-0.004122560378164053,-0.005121779162436724,0.0011780861532315612,-0.20849509958713258,1.5050816175086958,0.18733275670197355
0.3180208206176758,-0.02725815773010254,0.05329364538192749,-0.03030163049697876,-0.004867180250585079,-0.0047121853567659855,0.0044537740759551525,-0.2090128450123715,1.504390224907782,0.18724657402987915
0.3280758857727051,-0.027353882789611816,0.05492119491100311,-0.02712082862854004,-0.004947690758854151,-0.007003523875027895,0.004879454150795937,-0.20951728037409983,1.5037192828390256,0.18716908016407002
0.33898305892944336,-0.027212440967559814,0.05489198863506317,-0.02739858627319336,-0.004136491566896439,-0.006617099512368441,0.00877698976546526,-0.20998394939886164,1.5030434360290894,0.18710295373078406
0.34811878204345703,-0.02647113800048828,0.05599766969680786,-0.0263211727142334,-0.006231051404029131,-0.006364498753100634,0.010745758190751076,-0.21039801109365877,1.5023710610650447,0.18703656530741603
0.3582289218902588,-0.029075264930725098,0.05682015419006348,-0.02504097670316696,-0.007253971416503191,-0.0032011964358389378,0.00896783173084259,-0.21080520969581346,1.5017410435326672,0.18698163746601962
0.36815977096557617,-0.028339743614196777,0.058382779359817505,-0.022585749626159668,-0.006799370050430298,-0.0006629372946918011,0.008795792236924171,-0.21122019500464,1.5011731772413728,0.1869411535964977
0.3781008720397949,-0.02844679355621338,0.06110638380050659,-0.021326251327991486,-0.0103624127805233,0.002928601810708642,0.004415424540638924,-0.2116338647395153,1.500657883047568,0.18691781563728005
0.38884782791137695,-0.027556896209716797,0.06402462720870972,-0.020774006843566895,-0.024898195639252663,0.006431857123970985,9.8866643384099e-05,-0.21208257242180004,1.5001786898694083,0.18696357210788836
0.39821887016296387,-0.02649509906768799,0.06262539327144623,-0.018116600811481476,-0.07620479166507721,0.006203890312463045,-0.01651792600750923,-0.21267107844821787,1.4998542272241855,0.1873235477978455
0.4080190658569336,-0.027341783046722412,0.05391994118690491,-0.00805675983428955,-0.18023374676704407,-0.006938498467206955,-0.07179417461156845,-0.2136627519267882,1.4996780768567286,0.18848311347153954
0.4181990623474121,-0.028194010257720947,0.04040190577507019,-0.0010718703269958496,-0.3822813630104065,-0.01334872655570507,-0.14222493767738342,-0.215410536236244,1.49971728729588,0.19115110156926196
0.4282379150390625,-0.0242232084274292,0.04066525399684906,-0.005719006061553955,-0.5801265239715576,-0.049873583018779755,-0.2387981414794922,-0.21807826634023003,1.499997505516843,0.19572572163685042
0.4386768341064453,-0.008949697017669678,0.05026040971279144,-0.020983338356018066,-0.8295429944992065,-0.09766853600740433,-0.3189997673034668,-0.22183346771897147,1.5003513272549829,0.202665171615483
0.4481520652770996,0.0014185905456542969,0.05875055491924286,-0.03749459236860275,-1.0984772443771362,-0.13467355072498322,-0.4106717109680176,-0.22656915000905722,1.5008729071389413,0.21217917699720082
0.45807600021362305,-0.0028846263885498047,0.0549950897693634,-0.06933891773223877,-1.3132084608078003,-0.13448527455329895,-0.5000676512718201,-0.23196108670939639,1.5022612404797397,0.22419211436967826
0.46827173233032227,-0.00902855396270752,0.09335720539093018,-0.11574357748031616,-1.5168465375900269,-0.19820189476013184,-0.5910323262214661,-0.2383613111606664,1.5039214388577904,0.23836038646584715
0.47820472717285156,0.008086860179901123,0.1088058203458786,-0.13886195421218872,-1.6975364685058594,-0.2777704894542694,-0.6858219504356384,-0.24582002244737652,1.5054074894953267,0.2545325093744326
0.48912787437438965,0.028749525547027588,0.11648330092430115,-0.15899008512496948,-1.8257399797439575,-0.3804398775100708,-0.8048218488693237,-0.25438497542964583,1.5064982443616728,0.2721537177104821
0.49820804595947266,0.03764575719833374,0.16042792797088623,-0.1799311637878418,-1.9569320678710938,-0.4887021780014038,-0.9598455429077148,-0.2644104609524075,1.5070299503524949,0.29112437174438377
0.508314847946167,0.06042379140853882,0.2196977734565735,-0.18801385164260864,-2.0643441677093506,-0.6394405961036682,-1.128187656402588,-0.27613830434583914,1.5067857202899197,0.311308851162624
0.5181970596313477,0.09948617219924927,0.29784324765205383,-0.18195456266403198,-2.165933847427368,-0.8240368366241455,-1.329534649848938,-0.28978311747016156,1.5053485198998733,0.33246313922544846
0.5283117294311523,0.1402934193611145,0.35055574774742126,-0.18320101499557495,-2.3145124912261963,-1.0089095830917358,-1.595713496208191,-0.30589536979515825,1.5026770495255244,0.3547974513151224
0.5383498668670654,0.17300420999526978,0.3685183525085449,-0.17905330657958984,-2.5225749015808105,-1.1540526151657104,-1.9560234546661377,-0.3253472140754116,1.4992263689388554,0.37885958865114144
0.5482907295227051,0.19865083694458008,0.4134197235107422,-0.1697956919670105,-2.7666001319885254,-1.3219965696334839,-2.374110698699951,-0.3488952683195934,1.4955434921098474,0.4051183336228619
0.5582847595214844,0.2377893328666687,0.47949954867362976,-0.14334183931350708,-3.0139293670654297,-1.503790259361267,-2.826401472091675,-0.37709135519103154,1.4915598093583011,0.4338531066034864
0.5683717727661133,0.28111058473587036,0.5401101112365723,-0.11745547503232956,-3.2105016708374023,-1.6083959341049194,-3.262744188308716,-0.41005126080764964,1.4877863321672453,0.46484112488480134
0.5783858299255371,0.3028551936149597,0.6299957036972046,-0.10391264408826828,-3.201387643814087,-1.625150203704834,-3.6585845947265625,-0.44731919307918566,1.48490377534448,0.4969522735036712
0.5892899036407471,0.3200223445892334,0.7152698040008545,-0.10724849253892899,-2.9710853099823,-1.6255335807800293,-4.0084028244018555,-0.4882912206861774,1.4825580749523113,0.527841299029022
0.5984020233154297,0.3418539762496948,0.7845665216445923,-0.11868160963058472,-2.5566775798797607,-1.6510053873062134,-4.290731906890869,-0.5322477986231765,1.4795230683722393,0.5553458655407241
0.6086759567260742,0.36212289333343506,0.8159501552581787,-0.11811566352844238,-2.039595365524292,-1.623779296875,-4.495705604553223,-0.578205951090137,1.4747687065083737,0.5774592057406809
0.6194069385528564,0.3817020654678345,0.8220964670181274,-0.15458208322525024,-1.4655921459197998,-1.5931695699691772,-4.675291061401367,-0.6256615193553196,1.4675045841599628,0.5931149363311269
0.632627010345459,0.3972460627555847,0.8328825235366821,-0.15396451950073242,-0.9014977216720581,-1.562073826789856,-4.783189296722412,-0.6740805811157438,1.4566906145290466,0.6014301085004462
0.6396827697753906,0.41991961002349854,0.8131344318389893,-0.16940557956695557,-0.365896075963974,-1.491181492805481,-4.818227291107178,-0.7224786402891487,1.4417272938951209,0.6018828727151704
0.6482739448547363,0.44333547353744507,0.7514318823814392,-0.1674136519432068,0.06583061069250107,-1.461463212966919,-4.9460368156433105,-0.7711110231186572,1.422086565309094,0.5948239548443153
0.6583259105682373,0.461114764213562,0.6615564227104187,-0.11796452105045319,0.2196606546640396,-1.5597578287124634,-5.104274749755859,-0.8204222281807283,1.3969731155819103,0.5807244466933076
0.6682658195495605,0.4866780638694763,0.6005616784095764,-0.0506974458694458,0.6346930265426636,-1.4914604425430298,-5.1809000968933105,-0.8703675999770522,1.36621658854141,0.5601101249227306
0.6782150268554688,0.5242023468017578,0.5177846550941467,-0.032752931118011475,0.6046725511550903,-1.6625781059265137,-5.420191287994385,-0.9204767176678331,1.3278401975214007,0.5312423191280713
0.6883039474487305,0.5944687724113464,0.5799709558486938,0.04312336444854736,0.3466324806213379,-1.9949697256088257,-5.74233341217041,-0.9725235138146958,1.2818603081014541,0.4963879434849869
0.6982927322387695,0.7050480842590332,0.5770368576049805,0.09782280027866364,0.05390367656946182,-2.1175549030303955,-6.330131530761719,-1.0303072646868976,1.2305732580948867,0.4609080662494513
0.7085089683532715,0.7080719470977783,0.31095361709594727,-0.06502312421798706,0.4889216125011444,-1.583094835281372,-6.2355241775512695,-1.0875104837236524,1.1642528884514585,0.4063902183518808
0.7183680534362793,0.598902702331543,0.444757878780365,-0.2569960951805115,1.0625494718551636,-1.3654460906982422,-6.401546955108643,-1.1415058884056475,1.082296870594102,0.33094789828300514
0.7283730506896973,0.533901572227478,0.8005631566047668,-0.03867200016975403,1.5867936611175537,-1.3723177909851074,-6.720671653747559,-1.190316226648684,0.9601333949142471,0.21322238133285934
0.7382807731628418,0.6127879619598389,0.6541173458099365,-0.04259727895259857,1.4886643886566162,-1.1244051456451416,-6.811013698577881,-1.232833563480003,0.8004324961007384,0.05612479613718875
0.7483439445495605,0.7300973534584045,0.5425429940223694,0.09018869698047638,1.3567118644714355,-1.0483673810958862,-6.9254469871521,-1.266640382330867,0.6044491094087684,-0.13911633236455156
0.7588069438934326,0.8155986666679382,0.45917636156082153,0.20070070028305054,1.4437694549560547,-1.0915813446044922,-7.0668439865112305,-1.2871038516623494,0.3667022417726598,-0.3760951379968011
0.7684638500213623,0.8099308013916016,0.3351876139640808,0.2664841115474701,1.447473406791687,-0.9119566679000854,-7.141515731811523,-1.2896621174580516,0.10564709576026733,-0.6372577357967988
0.7822179794311523,0.777050256729126,0.20968902111053467,0.2876982092857361,1.6948466300964355,-0.7774994969367981,-7.124078273773193,-1.2726551979884217,-0.14217451546918522,-0.8870158826321971
0.7887368202209473,0.794045090675354,-0.041455626487731934,0.3196200430393219,1.8526142835617065,-0.7517708539962769,-7.086318016052246,-1.2378427880808467,-0.3484019865267603,-1.0957682880469082
0.7984347343444824,0.8134075403213501,-0.28693413734436035,0.36226776242256165,2.0059847831726074,-0.6796708106994629,-6.932844161987305,-1.191024579479148,-0.5061525206482363,-1.2563204279821572
0.8085918426513672,0.8017438650131226,-0.4979800581932068,0.38191890716552734,2.1083261966705322,-0.601591169834137,-6.670012474060059,-1.1370649761076272,-0.6207197534646829,-1.3740230132661453
0.8185100555419922,0.7890235185623169,-0.7055531144142151,0.39580631256103516,2.1272683143615723,-0.550937294960022,-6.396276473999023,-1.080004704066752,-0.7038322783514502,-1.4603797353510852
0.8287320137023926,0.7737460136413574,-0.8519633412361145,0.4356071949005127,2.08504056930542,-0.49839910864830017,-6.064074993133545,-1.0225280220272077,-0.7654674198347389,-1.5253083112093953
0.8388137817382812,0.7715238332748413,-0.9552866816520691,0.4820651412010193,2.043361186981201,-0.44663020968437195,-5.665096282958984,-0.9662035322204305,-0.8113291427421101,-1.574301329273434
0.8485298156738281,0.7735363841056824,-1.0545728206634521,0.5174211263656616,1.987057089805603,-0.364749550819397,-5.204469680786133,-0.9124294677608668,-0.8453894523884692,-1.6114383222174922
0.8587818145751953,0.7593387365341187,-1.1510734558105469,0.5368975400924683,1.8410711288452148,-0.25999730825424194,-4.6612725257873535,-0.8624308648172879,-0.8704768455491985,-1.6396795227701397
0.8687179088592529,0.7218930721282959,-1.2458438873291016,0.5446359515190125,1.604062557220459,-0.12733085453510284,-4.016817092895508,-0.8179281039373082,-0.8885118802493566,-1.6612827726577364
0.8787379264831543,0.6737908720970154,-1.3176629543304443,0.5378081798553467,1.253723382949829,0.05822967365384102,-3.354156255722046,-0.7801338946056796,-0.9011353273084868,-1.678326739734057
0.8889548778533936,0.6211069226264954,-1.3549329042434692,0.527417778968811,0.8876179456710815,0.2701989412307739,-2.6526663303375244,-0.7498542197440033,-0.9091668916901341,-1.6924242070879387
0.8989768028259277,0.5825685858726501,-1.3461203575134277,0.5213116407394409,0.5488646626472473,0.4910908639431,-1.8188718557357788,-0.727635035602825,-0.9127252871843642,-1.7033494513330338
0.9094719886779785,0.5758216381072998,-1.2587521076202393,0.4798884987831116,0.2795414924621582,0.6881422996520996,-0.8153976798057556,-0.7146572427270832,-0.9110937650257622,-1.7098613933323972
0.9188189506530762,0.5808807611465454,-1.1629350185394287,0.431342214345932,0.03732592985033989,0.8397315740585327,0.20903280377388,-0.7112991898177031,-0.9039553072406624,-1.7106488735147565
0.9287998676300049,0.5672393441200256,-1.1674695014953613,0.3762756288051605,-0.24031038582324982,0.9869956374168396,1.126762866973877,-0.7172198194177157,-0.891829026237953,-1.706097838712557
0.9391918182373047,0.522050678730011,-1.228779673576355,0.3306560814380646,-0.47887128591537476,1.111060380935669,1.877659559249878,-0.7312361540596795,-0.8753213495362981,-1.6970195383901268
0.9488430023193359,0.45638662576675415,-1.2411448955535889,0.30303895473480225,-0.6189380288124084,1.2234634160995483,2.4821085929870605,-0.7515192319183938,-0.854486144983162,-1.6834935595972937
0.9588479995727539,0.39977961778640747,-1.1349360942840576,0.30278927087783813,-0.6287858486175537,1.2739838361740112,2.9855103492736816,-0.7761664373399209,-0.8289323400276964,-1.664719945667545
0.9689769744873047,0.36619889736175537,-0.9940748810768127,0.3223693370819092,-0.6237132549285889,1.209152340888977,3.4368271827697754,-0.8038193558658226,-0.7987140088164004,-1.6397597120587046
0.9789080619812012,0.3535560369491577,-0.8985392451286316,0.34898775815963745,-0.6544181704521179,1.1138943433761597,3.849759340286255,-0.8340698339981701,-0.7641887835846244,-1.6083979161072621
0.989346981048584,0.33741751313209534,-0.8662881851196289,0.3682878315448761,-0.7642958760261536,1.0714737176895142,4.193265438079834,-0.8665522581736207,-0.7249672216047013,-1.5707081288931108
0.9989368915557861,0.31521308422088623,-0.8394710421562195,0.3878876566886902,-0.9048029184341431,1.059077501296997,4.4946441650390625,-0.901043098283868,-0.6804054317445436,-1.5268526074291304
1.0091290473937988,0.3139459192752838,-0.7738727331161499,0.40252774953842163,-1.1062382459640503,1.058669090270996,4.7375168800354,-0.9371699709854777,-0.6297378401392452,-1.476448248973123
1.0191068649291992,0.3448939323425293,-0.6495248079299927,0.4166419208049774,-1.3430184125900269,1.0123013257980347,4.962064743041992,-0.9747549451669216,-0.5723879308400854,-1.4190070641711678
1.0307650566101074,0.40106844902038574,-0.5060871839523315,0.4352036714553833,-1.6219007968902588,0.8884449005126953,5.173751354217529,-1.0135664879465023,-0.507628985313902,-1.3531585893753106
1.040565013885498,0.4579545557498932,-0.4059740900993347,0.44303804636001587,-1.939894676208496,0.7180473208427429,5.389910697937012,-1.0534288341295381,-0.43398076015350956,-1.276832637736241
1.0493049621582031,0.5005891919136047,-0.3617669939994812,0.4184243381023407,-2.290649652481079,0.5567711591720581,5.587703227996826,-1.0940335369934837,-0.34879749217457334,-1.1871678859494765
1.0590648651123047,0.5245292782783508,-0.37842798233032227,0.3686683773994446,-2.688265085220337,0.455613374710083,5.697723865509033,-1.1344232851895266,-0.24853503881247915,-1.081083631963477
1.0693249702453613,0.5267869830131531,-0.3917430639266968,0.297988623380661,-3.0529582500457764,0.3761567771434784,5.765294551849365,-1.1736909800261108,-0.12915624803330247,-0.9551420574322822
1.0792179107666016,0.536723256111145,-0.3670065402984619,0.21485435962677002,-3.396155595779419,0.3135024607181549,5.778388977050781,-1.2092062060222835,0.0145925946005791,-0.8041323968883329
1.08951997756958,0.5734450221061707,-0.25630104541778564,0.1095927357673645,-3.5651705265045166,0.18950048089027405,5.843281269073486,-1.2384087979766811,0.18709887912905995,-0.623532037577496
1.0991530418395996,0.6357057094573975,-0.14328795671463013,0.048535943031311035,-3.4500930309295654,-0.012096554040908813,5.934347629547119,-1.2555074855667097,0.3866583501187803,-0.41406256379570516
1.109489917755127,0.6711791753768921,-0.13168740272521973,-0.0028652548789978027,-3.3363821506500244,-0.14009416103363037,5.942928314208984,-1.2574197621568586,0.5970134484265667,-0.1920834657517884
1.1191987991333008,0.6386055946350098,-0.06548899412155151,-0.03193694353103638,-3.093093156814575,-0.20071302354335785,5.966113567352295,-1.2438738664930749,0.795994462363356,0.019287455799773194
1.129516839981079,0.5966090559959412,-0.03591567277908325,-0.06522105634212494,-2.7509186267852783,-0.24500775337219238,6.043548107147217,-1.2160673586673254,0.9656406021680551,0.20157878337850527
1.1392219066619873,0.5694597363471985,-0.05140465497970581,-0.08498567342758179,-2.3115639686584473,-0.24414540827274323,6.145171165466309,-1.1766440203238282,1.0984617784911606,0.3468901488281565
1.1493608951568604,0.5422098636627197,-0.06459349393844604,-0.11393611133098602,-1.750120759010315,-0.17200134694576263,6.2736663818359375,-1.1283093669947324,1.1958028039409476,0.45567232143687514
1.1590700149536133,0.5197736024856567,-0.02609473466873169,-0.15124495327472687,-1.1463872194290161,-0.01837877184152603,6.355349540710449,-1.0734733660283355,1.2633083882894407,0.5324697661908067
1.169325828552246,0.5233764052391052,0.13437676429748535,-0.1658749133348465,-0.6523590087890625,0.23370736837387085,6.446789264678955,-1.0145356695817007,1.310132100715145,0.5853684186823772
1.1791529655456543,0.5664714574813843,0.3873986005783081,-0.15022319555282593,-0.1173909455537796,0.4543294608592987,6.696990966796875,-0.9516926251439879,1.3431512226709352,0.6208153006186227
1.1895298957824707,0.6182132959365845,0.5108593702316284,-0.15071922540664673,0.35317397117614746,0.6506891250610352,6.95842170715332,-0.884591248311216,1.36629961536247,0.6429356695699755
1.1991558074951172,0.5950883626937866,0.4601837396621704,-0.14622457325458527,0.7019950747489929,0.9265007376670837,7.109054088592529,-0.8144257176645835,1.3837883143249647,0.6557612687249843
1.2097139358520508,0.5141412615776062,0.35165923833847046,-0.12230908870697021,0.9351068139076233,1.2826505899429321,7.197002410888672,-0.7424726087420711,1.3993870536982893,0.6622866685960989
1.2191758155822754,0.4593687653541565,0.29326945543289185,-0.09750931710004807,1.1123675107955933,1.6831245422363281,7.274382591247559,-0.6693062715451247,1.4156981262274806,0.664476400137218
1.2293219566345215,0.4763832688331604,0.2986987829208374,-0.04835110157728195,1.0915627479553223,2.077144145965576,7.237314701080322,-0.5957550975728054,1.4340976092422117,0.6639095381324679
1.239677906036377,0.5542057156562805,0.3382333517074585,0.03784286975860596,1.1831430196762085,2.5209715366363525,7.222443580627441,-0.5224986266672391,1.4562325854596188,0.6615949843421043
1.2493479251861572,0.6601951718330383,0.3916838765144348,0.11838699132204056,1.5041146278381348,2.527207136154175,7.152266502380371,-0.4495713680631877,1.478455040989837,0.6548215316401863
1.2592988014221191,0.8089039921760559,0.4754907786846161,0.18664312362670898,1.8755584955215454,2.357612133026123,7.015505790710449,-0.37743140361793776,1.4981848265755366,0.6428692793285553
1.2693257331848145,0.9491597414016724,0.6010030508041382,0.1759272813796997,2.318617820739746,2.217010021209717,6.7892889976501465,-0.3070747440892135,1.5152123495761074,0.6253643940513101
1.2810649871826172,0.9916985034942627,0.6911307573318481,0.11350876092910767,2.807570695877075,2.1126039028167725,6.483941078186035,-0.239434109685897,1.5306245786890076,0.6021034305912246
1.289862871170044,0.9670825004577637,0.7892986536026001,0.02748197689652443,3.3503870964050293,2.0314245223999023,6.13759708404541,-0.17525057764730423,1.5453480743336014,0.5727182281482458
1.299272060394287,0.9052833318710327,0.8967024087905884,-0.06081867218017578,3.6910622119903564,1.8633906841278076,5.702510833740234,-0.1152560727955712,1.5599333034427656,0.5380071013719219
1.309217929840088,0.8236753344535828,0.9471970200538635,-0.07011020183563232,3.733654260635376,1.5938040018081665,5.135123252868652,-0.06079023296928634,1.574002743498542,0.5006969276639728
1.319221019744873,0.7237435579299927,0.8423256874084473,-0.005752919241786003,3.44816255569458,1.3236356973648071,4.515803337097168,-0.012822994782396215,1.5872478795680374,0.464038415849113
1.3292150497436523,0.6010867953300476,0.6797799468040466,0.06659567356109619,2.886672258377075,1.101802110671997,3.883089303970337,0.028508177607956743,1.5996143562744,0.43125491343022454
1.3395748138427734,0.47172969579696655,0.5585850477218628,0.10317051410675049,2.1676506996154785,0.9615675210952759,3.241506338119507,0.06326589785909793,1.611119576023135,0.4046557252123062
1.349106788635254,0.35824888944625854,0.48586463928222656,0.09030520915985107,1.3859063386917114,0.8531227707862854,2.6188714504241943,0.09175200162834005,1.6217031732186067,0.38546148360751414
1.3593299388885498,0.27272307872772217,0.4508057236671448,0.059512265026569366,0.6266194581985474,0.7235528230667114,2.0206716060638428,0.11435439551876098,1.6307913877812417,0.3740838851210112
1.3693218231201172,0.2149072289466858,0.442829430103302,0.018491148948669434,-0.037084005773067474,0.5879391431808472,1.4674996137619019,0.13153235469142358,1.6378648342717874,0.3701021567464251
1.3793048858642578,0.18306845426559448,0.46233659982681274,-0.051166169345378876,-0.59228515625,0.4621908366680145,0.9603429436683655,0.14377011258614464,1.6428791301872603,0.37242070463169186
1.3895998001098633,0.15671062469482422,0.5220927000045776,-0.1241835281252861,-1.0431455373764038,0.33842310309410095,0.5238057374954224,0.15164046992499614,1.645800336987758,0.3802202854900302
1.399275779724121,0.14331531524658203,0.5836328268051147,-0.18342649936676025,-1.4083030223846436,0.22455087304115295,0.18555687367916107,0.15596541229513275,1.6467885922951766,0.3923852781834508
1.4092960357666016,0.13088196516036987,0.6219548583030701,-0.2186737060546875,-1.6427969932556152,0.1297401636838913,-0.10031706094741821,0.15744029991921607,1.646201411314643,0.4078397104450834
1.4193730354309082,0.1016344428062439,0.654577374458313,-0.24875187873840332,-1.752642273902893,0.053550057113170624,-0.34844136238098145,0.15634265420159965,1.6444256314679955,0.42524354332067044
1.4310839176177979,0.06103008985519409,0.6859201788902283,-0.2848048210144043,-1.8001723289489746,-0.011413851752877235,-0.5594176650047302,0.1529618767382854,1.6418599930804116,0.44353256934815155
1.4407539367675781,0.01887035369873047,0.717594563961029,-0.32118046283721924,-1.8249200582504272,-0.07100661098957062,-0.7431187629699707,0.14758841085208294,1.6386616055638359,0.4623219394168998
1.4493837356567383,-0.023370563983917236,0.7281789779663086,-0.355515718460083,-1.8212108612060547,-0.11993105709552765,-0.9110882878303528,0.14038278236593513,1.6349951904405755,0.48128211414610633
1.4595847129821777,-0.06286585330963135,0.7185490131378174,-0.39734137058258057,-1.788540005683899,-0.14271731674671173,-1.037546157836914,0.1316179191164388,1.6311256897055932,0.500109450903299
1.469425916671753,-0.09844493865966797,0.7123876810073853,-0.40591180324554443,-1.7635822296142578,-0.16258388757705688,-1.141557216644287,0.1216843516441859,1.627271588721545,0.5186298776544019
1.4794049263000488,-0.1267504096031189,0.6839372515678406,-0.38636910915374756,-1.7707408666610718,-0.21128776669502258,-1.2512544393539429,0.11063069406063862,1.6232664868932216,0.5370663143468113
1.4895048141479492,-0.14150887727737427,0.6201147437095642,-0.35632896423339844,-1.819374442100525,-0.26651349663734436,-1.349995493888855,0.0984843389445187,1.6189206820400028,0.5557437624138624
1.4993939399719238,-0.15540897846221924,0.5666602253913879,-0.3248567581176758,-1.8242621421813965,-0.31338831782341003,-1.4414318799972534,0.08533373446827035,1.6142544889398485,0.5747176314872162
1.5094668865203857,-0.17018502950668335,0.5375106930732727,-0.30232954025268555,-1.8141041994094849,-0.3456288278102875,-1.5382716655731201,0.07115533456854764,1.6094853463626129,0.5935885365579182
1.519542932510376,-0.17389702796936035,0.5387775897979736,-0.28708910942077637,-1.7837833166122437,-0.4170162081718445,-1.6392667293548584,0.0558812691183465,1.6045112555406584,0.6122168103586221
1.5305049419403076,-0.1589629054069519,0.5354463458061218,-0.2586010694503784,-1.7711355686187744,-0.5229488611221313,-1.7252068519592285,0.03956131594210798,1.5989392713268646,0.630542305681729
1.5395970344543457,-0.13296711444854736,0.5273361206054688,-0.22295260429382324,-1.7570064067840576,-0.6342045664787292,-1.8037352561950684,0.022333141930897846,1.5925689954448206,0.6486371732573535
1.5495519638061523,-0.11087346076965332,0.5115289688110352,-0.20561563968658447,-1.7496144771575928,-0.689960241317749,-1.8950917720794678,0.004128498088366735,1.5856626212449987,0.6665475207385207
1.5595989227294922,-0.09296327829360962,0.4973806142807007,-0.21169495582580566,-1.719804286956787,-0.7263858914375305,-1.9965944290161133,-0.015162678464697899,1.5786654493651022,0.6841432853899185
1.5696029663085938,-0.06804460287094116,0.4859771132469177,-0.197845458984375,-1.6657488346099854,-0.779121994972229,-2.104294538497925,-0.035636863988389444,1.5715445466257763,0.7011931733477794
1.5794849395751953,-0.039962172508239746,0.47496581077575684,-0.1588183045387268,-1.598093032836914,-0.7588108777999878,-2.2240939140319824,-0.05735321713531191,1.5645347814819495,0.7174790379473325
1.5899548530578613,-0.01574575901031494,0.45861703157424927,-0.13443690538406372,-1.5486282110214233,-0.6928170323371887,-2.358177900314331,-0.08045592550777153,1.5583114844605521,0.7330495213617993
1.5996227264404297,0.018000245094299316,0.4576490521430969,-0.11297744512557983,-1.4867416620254517,-0.6447064876556396,-2.5090420246124268,-0.10505936319841916,1.5529985190880602,0.7479449934962994
1.609731912612915,0.06562209129333496,0.45375245809555054,-0.08772259950637817,-1.4392132759094238,-0.5978196859359741,-2.707388401031494,-0.13144937342150312,1.54844584188994,0.7621401777522598
1.619703769683838,0.11886686086654663,0.44315874576568604,-0.06858593225479126,-1.3950258493423462,-0.5136387348175049,-2.947309732437134,-0.16010928340502464,1.5448087891039766,0.7757783973060384
1.629755973815918,0.17246097326278687,0.4412611424922943,-0.05127274990081787,-1.3121871948242188,-0.4611523151397705,-3.1793198585510254,-0.19118809963594932,1.542214140395557,0.7886570559037451
1.6400480270385742,0.23012793064117432,0.4404715895652771,-0.015282273292541504,-1.26449716091156,-0.4214611053466797,-3.3948488235473633,-0.22452658103786047,1.5403107145260078,0.8008505710682511
1.6496388912200928,0.294369101524353,0.43610817193984985,0.0144540686160326,-1.1960567235946655,-0.41702643036842346,-3.6176812648773193,-0.2600502418312349,1.538875885079438,0.8123979213522268
1.660104751586914,0.3425775170326233,0.4046582281589508,0.034240901470184326,-1.1525163650512695,-0.3872024714946747,-3.8468306064605713,-0.2979738756354331,1.5377484965586918,0.8233147244212385
1.6697497367858887,0.3704015016555786,0.3845197856426239,0.04847591742873192,-1.066785454750061,-0.29256516695022583,-4.080377101898193,-0.33819920795227143,1.537503347841333,0.833621700869574
1.6797618865966797,0.3869355320930481,0.3724953532218933,0.06352001428604126,-0.9125621318817139,-0.2203974723815918,-4.343548774719238,-0.3807312622789062,1.5381682987155572,0.8427423285487446
1.6898748874664307,0.4191862940788269,0.35238295793533325,0.08589178323745728,-0.7828985452651978,-0.2412387877702713,-4.617983818054199,-0.4258941694492695,1.538854844185513,0.850360736561266
1.6996328830718994,0.4782770276069641,0.36440160870552063,0.11111856251955032,-0.587486982345581,-0.30407580733299255,-4.8814873695373535,-0.473635358699926,1.5387742156044262,0.8563235450160692
1.7097840309143066,0.5374769568443298,0.3825669288635254,0.15455186367034912,-0.41615790128707886,-0.4428333044052124,-5.19340705871582,-0.5242173156787637,1.5368656752124374,0.8601019379131125
1.7196629047393799,0.5927282571792603,0.4346850514411926,0.21027714014053345,-0.3112066984176636,-0.6056022047996521,-5.433355331420898,-0.5776155822632261,1.5326528840811897,0.862129244248638
1.7297039031982422,0.652971088886261,0.5237360596656799,0.22394680976867676,-0.2346479296684265,-0.7232945561408997,-5.625175952911377,-0.63301049477564,1.5262009071654221,0.8625755848662638
1.7398300170898438,0.6956722736358643,0.5758068561553955,0.22268539667129517,-0.27063122391700745,-0.7261505126953125,-5.819751262664795,-0.6903922905761067,1.5186847539427493,0.8622376812110103
1.7499589920043945,0.7146998643875122,0.6174972653388977,0.19311058521270752,-0.2601887285709381,-0.6663122177124023,-5.919875144958496,-0.7492876293204886,1.5111431622594649,0.8614001945279703
1.7599077224731445,0.7346928119659424,0.6070929765701294,0.1263701319694519,-0.3998478055000305,-0.5487262010574341,-6.066420078277588,-0.809284863103011,1.5043669832755773,0.8605460336903591
1.7752809524536133,0.7219266891479492,0.5549542903900146,0.08038944005966187,-0.5852648019790649,-0.2953551411628723,-6.274066925048828,-0.871313352538659,1.5010039669759725,0.8616787562156768
1.7822718620300293,0.6969611048698425,0.4894345998764038,0.03476906195282936,-0.7077345252037048,-0.05232839658856392,-6.425845146179199,-0.9352366773866034,1.5019928906868336,0.8651812666568667
1.7907328605651855,0.7028617858886719,0.41681861877441406,0.03746408596634865,-0.6685602068901062,0.16558583080768585,-6.565156936645508,-1.0005857341735351,1.506239469137192,0.869650141810183
1.8001580238342285,0.6959807872772217,0.3685149550437927,0.045995596796274185,-0.5148916244506836,0.40485528111457825,-6.726044178009033,-1.0673933736489523,1.5123619825750576,0.8734713190233028
1.810929775238037,0.6649189591407776,0.41577959060668945,0.04265153408050537,-0.2418212592601776,0.601201593875885,-6.851916313171387,-1.1354649836476713,1.517393549329995,0.8733991669928729
1.8198699951171875,0.6705132722854614,0.5114894509315491,0.048216938972473145,0.26396867632865906,0.819145917892456,-6.829324245452881,-1.2040602976559138,1.5161743927482931,0.8642898270946174
1.8299269676208496,0.7345384359359741,0.5335263609886169,0.04554343223571777,0.7854517698287964,0.9046134948730469,-6.792850494384766,-1.2716177513489009,1.4963467395361238,0.8342315137457319
1.840061902999878,0.7912681102752686,0.44774264097213745,0.020834799855947495,1.1128168106079102,0.9875943660736084,-6.878586769104004,-1.338833404559871,1.445791533599542,0.7720843648495952
1.8507089614868164,0.8159598708152771,0.3681529760360718,0.028369542211294174,1.4150896072387695,1.0613733530044556,-6.817624092102051,-1.4042083957761178,1.3329679666844816,0.6465468098305127
1.8599209785461426,0.8517745137214661,0.2781967520713806,0.01617705076932907,1.7541933059692383,1.0402299165725708,-6.709452152252197,-1.4619427969508887,1.0568628831448854,0.35730715585476724
1.8701229095458984,0.8638946413993835,0.1007959246635437,-0.0015053674578666687,1.8611030578613281,1.046142816543579,-6.7390828132629395,-1.4942787581951296,0.37840617775795155,-0.3341646784218753
1.8799488544464111,0.8328809142112732,-0.011505424976348877,0.0030857399106025696,2.038827657699585,1.0891187191009521,-6.6584014892578125,-1.4727135213910572,-0.39671009279220426,-1.122684535844278
1.890315055847168,0.8381836414337158,-0.0770578384399414,0.009141989052295685,2.103476047515869,1.0690515041351318,-6.5667243003845215,-1.4185626296595422,-0.7414903769820732,-1.4808499636019778
1.8999347686767578,0.8723007440567017,-0.12601721286773682,0.033063411712646484,2.2437753677368164,1.0556666851043701,-6.419566631317139,-1.3561931610037357,-0.8869154651333382,-1.6395400291513182
1.910099983215332,0.8979901671409607,-0.16244995594024658,0.056590735912323,2.349695920944214,1.01638925075531,-6.245757579803467,-1.291658751114464,-0.9558216515986343,-1.7212176081145458
1.919950008392334,0.9170795679092407,-0.19902795553207397,0.08155173063278198,2.4745240211486816,0.9406552314758301,-6.020960330963135,-1.227251159286252,-0.991158572192559,-1.7686702664861584
1.9305768013000488,0.9267949461936951,-0.23525196313858032,0.12466728687286377,2.5060198307037354,0.819134533405304,-5.812129020690918,-1.163948565428327,-1.010360428611702,-1.798776690222001
1.9401350021362305,0.925826907157898,-0.30216336250305176,0.15710386633872986,2.451195478439331,0.6816749572753906,-5.613289833068848,-1.1021713342919854,-1.02184927443411,-1.819708840108571
1.950028896331787,0.9042701721191406,-0.3405609130859375,0.17462030053138733,2.2568037509918213,0.5801517367362976,-5.396187782287598,-1.0427942195914708,-1.0309597207040389,-1.8373072692140258
1.9599390029907227,0.8711085915565491,-0.3868318200111389,0.20821857452392578,2.0871670246124268,0.4156954288482666,-5.101161479949951,-0.9864670538683697,-1.039076517595944,-1.8527581837859377
1.970078945159912,0.8371094465255737,-0.55507493019104,0.2276974320411682,1.8309860229492188,0.24947673082351685,-4.8145647048950195,-0.9337468590873498,-1.0471943810451165,-1.8667019896889105
1.9799790382385254,0.7834689617156982,-0.7319133281707764,0.2470555603504181,1.4468791484832764,0.1487024575471878,-4.576820373535156,-0.8847441713032751,-1.056880110836674,-1.8814241551281357
1.99013090133667,0.7082542777061462,-0.8106153607368469,0.2712441384792328,1.0488877296447754,0.11568573117256165,-4.242376327514648,-0.8400127748938548,-1.0679777994675692,-1.897745873462845
2.0001819133758545,0.6516144871711731,-0.8425511717796326,0.29819393157958984,0.6467671990394592,0.07690158486366272,-3.79516339302063,-0.8004992043801485,-1.07945483533515,-1.914797655705294
2.010887861251831,0.6180000901222229,-0.8684543967247009,0.3418411910533905,0.21735121309757233,0.0766875147819519,-3.2441744804382324,-0.767243066442888,-1.0913303590759986,-1.932712606963465
2.020120859146118,0.588430643081665,-0.8881279826164246,0.3702036738395691,-0.21470139920711517,0.04959171265363693,-2.578974723815918,-0.7412244631542527,-1.1031806595349511,-1.9509862448698336
2.0302908420562744,0.5611854791641235,-0.9743413329124451,0.37269169092178345,-0.6596928238868713,-0.0035068830475211143,-1.8499778509140015,-0.7232928264810331,-1.1152998492202886,-1.9694594284779403
2.04048490524292,0.5306522250175476,-1.1002838611602783,0.34636640548706055,-1.0767996311187744,-0.05245551839470863,-1.1144967079162598,-0.7137409091888757,-1.1281289653830577,-1.9885469665652422
2.050090789794922,0.5039697289466858,-1.2121391296386719,0.30251625180244446,-1.319899559020996,-0.1115836426615715,-0.4008105397224426,-0.7119769631403214,-1.1412516416072402,-2.007311780599431
2.0603139400482178,0.4812125563621521,-1.2657060623168945,0.2433580756187439,-1.295124888420105,-0.16842694580554962,0.30589601397514343,-0.7169775831262943,-1.1534097281650608,-2.0236925987698444
2.0704588890075684,0.45842963457107544,-1.2325677871704102,0.17441484332084656,-0.9420675039291382,-0.1832200139760971,1.028481125831604,-0.7276393888776648,-1.1620215968152712,-2.0339557075855264
2.080216884613037,0.4393068552017212,-1.1302199363708496,0.09957271814346313,-0.43693456053733826,-0.15690451860427856,1.7186545133590698,-0.7430616218878069,-1.16457980344538,-2.0352534178325543
2.0913820266723633,0.4304693341255188,-0.9655754566192627,0.06314942240715027,0.14472895860671997,-0.18181324005126953,2.346763849258423,-0.7623561635492413,-1.1599006036150585,-2.025992003524967
2.1004178524017334,0.42159366607666016,-0.8450706601142883,0.061222225427627563,0.7253289222717285,-0.19298653304576874,2.865738868713379,-0.7845052204292577,-1.1475501151088812,-2.005598009978121
2.1104679107666016,0.38619208335876465,-0.7501063942909241,0.08514943718910217,1.1962265968322754,-0.13371583819389343,3.2675623893737793,-0.8083215907664804,-1.1269465148952453,-1.9744402557380307
2.120548725128174,0.32527703046798706,-0.5912368297576904,0.13139241933822632,1.4878629446029663,-0.044679976999759674,3.593350648880005,-0.8331761178757229,-1.0984781923579743,-1.9343306791896013
2.130532741546631,0.2720455527305603,-0.4295418858528137,0.1803492307662964,1.5502052307128906,0.02263084426522255,3.8722126483917236,-0.8589597097918827,-1.063374846854984,-1.8873001482280696
2.1404988765716553,0.22056430578231812,-0.37519216537475586,0.21544808149337769,1.2825056314468384,0.09389916062355042,4.071207046508789,-0.8861406329555598,-1.0241148407394152,-1.8368004671222642
2.150512933731079,0.15652835369110107,-0.3897131085395813,0.24562960863113403,0.7630128264427185,0.14137418568134308,4.21364688873291,-0.9156223214077626,-0.9838200252664989,-1.7869246876214235
2.1606009006500244,0.10401999950408936,-0.4618326425552368,0.25493866205215454,0.16328974068164825,0.16284139454364777,4.238306045532227,-0.9477389704476215,-0.944390180161265,-1.7396544530708342
2.1721720695495605,0.06935599446296692,-0.47869545221328735,0.24655985832214355,-0.7024886608123779,0.23047135770320892,4.181612491607666,-0.9831113112051488,-0.9092060721983555,-1.6992612920555303
2.180424928665161,0.0761963427066803,-0.33390891551971436,0.24103662371635437,-1.2067475318908691,0.14723558723926544,4.273866176605225,-1.02214092418802,-0.8775699829370703,-1.6640968644319534
2.190358877182007,0.14732667803764343,-0.31592267751693726,0.18462607264518738,-1.5912045240402222,-0.0016509699635207653,4.353724956512451,-1.064123259869351,-0.8468821331176958,-1.6293776788919
2.200356960296631,0.1848619282245636,-0.3020176887512207,0.13717466592788696,-1.8255094289779663,-0.08230054378509521,4.3538007736206055,-1.1079291896313557,-0.8156375971937565,-1.593547667406361
2.2102808952331543,0.18717136979103088,-0.2491934895515442,0.0635276734828949,-1.8881927728652954,-0.1365683525800705,4.375308036804199,-1.1522936665176036,-0.7805160949881457,-1.5535165567891613
2.2203807830810547,0.20258274674415588,-0.2577784061431885,-0.01336294412612915,-1.8522571325302124,-0.18115073442459106,4.3652167320251465,-1.1960473037387676,-0.737132759558069,-1.5047419107238997
2.2303357124328613,0.21884186565876007,-0.25198060274124146,-0.05051228404045105,-1.8198890686035156,-0.19291134178638458,4.3444390296936035,-1.2383550167978785,-0.6817773218372384,-1.4437415282242765
2.2408969402313232,0.23936642706394196,-0.16321438550949097,-0.06746938824653625,-1.7384718656539917,-0.2117534726858139,4.420945167541504,-1.2790384426386592,-0.6086569568758242,-1.3648275770630593
2.2507758140563965,0.2778368592262268,-0.11316829919815063,-0.06843608617782593,-1.5876681804656982,-0.2436199188232422,4.525784015655518,-1.316876647834466,-0.5062193246410788,-1.2560876844847466
2.2609829902648926,0.2956618666648865,-0.11333996057510376,-0.05530589818954468,-1.5694652795791626,-0.21731747686862946,4.557631969451904,-1.3504776615576912,-0.365459788516888,-1.1089144319827113
2.2706289291381836,0.2824065685272217,-0.05659914016723633,-0.018044501543045044,-1.4523817300796509,-0.1997283697128296,4.66109037399292,-1.3775645385572683,-0.17472855019439246,-0.9119764104902793
2.2813777923583984,0.27828001976013184,-0.04760795831680298,-0.01464398205280304,-1.2742490768432617,-0.206851527094841,4.763875484466553,-1.3937060743398852,0.07209556955311724,-0.6588418390260166
2.2905139923095703,0.26703909039497375,-0.08600366115570068,-0.02065664529800415,-1.2811108827590942,-0.1571640819311142,4.749039173126221,-1.396173687656457,0.34832562986645554,-0.3764316845331049
2.300467014312744,0.24137327075004578,-0.05488002300262451,-0.017894163727760315,-1.295616865158081,-0.08425605297088623,4.79974889755249,-1.3855408641932818,0.6136349515408845,-0.10561656681129857
2.310399055480957,0.24057362973690033,-0.01010817289352417,-0.02614384889602661,-1.2956854104995728,-0.05767175927758217,4.8265700340271,-1.3628721106849173,0.8374351716674614,0.12322560023778456
2.3206210136413574,0.24237878620624542,0.04112136363983154,-0.021917998790740967,-1.638839602470398,-0.022498860955238342,4.720640182495117,-1.3334080722167196,1.0159159964962847,0.30664162526475186
2.330782890319824,0.23656852543354034,0.16941684484481812,0.030585646629333496,-1.6498563289642334,-0.03072137013077736,4.793015003204346,-1.299052060058866,1.1575930706430675,0.45322548730884943
2.340640068054199,0.2604133188724518,0.17010927200317383,0.018995828926563263,-1.419763207435608,-0.0584012009203434,4.914712905883789,-1.2589303388413275,1.2626465264044568,0.5633465347956881
2.3505208492279053,0.24017378687858582,0.09406405687332153,-0.027435302734375,-1.1052255630493164,-0.04556139186024666,4.8749918937683105,-1.2149992760124786,1.3351883054312588,0.640691051638351
2.3605358600616455,0.17591050267219543,0.05511099100112915,-0.07207334041595459,-0.7265746593475342,0.025714918971061707,4.84263277053833,-1.1694503681455042,1.3835242713263607,0.6928081680748381
2.37062406539917,0.14749503135681152,0.062252163887023926,-0.11561590433120728,-0.23540005087852478,0.10347332060337067,4.904460906982422,-1.1222559203189508,1.4132477756888404,0.7247002987286584
2.3807709217071533,0.15764498710632324,0.06655997037887573,-0.14515650272369385,0.3154662847518921,0.1986352503299713,4.999497413635254,-1.073178221346721,1.428544272304354,0.7401692661348166
2.3906750679016113,0.15645861625671387,0.06630730628967285,-0.15000057220458984,0.7869840264320374,0.3355052173137665,5.00822114944458,-1.0226804707489563,1.4335392914733656,0.7428867053159849
2.4005980491638184,0.14287608861923218,0.13353359699249268,-0.1197933554649353,0.9850283861160278,0.5523142218589783,4.987865924835205,-0.9719742286462596,1.4347756284890063,0.739094013762203
2.4106578826904297,0.15423887968063354,0.2968003749847412,-0.051470644772052765,1.1520991325378418,0.7758059501647949,5.129633903503418,-0.9204119827167666,1.4362270817511213,0.7326145506975642
2.4206998348236084,0.20127546787261963,0.38875526189804077,0.0010963156819343567,1.1484832763671875,0.8579860329627991,5.2413153648376465,-0.8673178466498418,1.4386980714538105,0.7251764968629713
2.4305858612060547,0.21862691640853882,0.35436588525772095,0.07488322257995605,1.0453943014144897,0.9332350492477417,5.265012264251709,-0.8137117878224256,1.4431117369278728,0.7191286141961233
2.440631866455078,0.20002084970474243,0.23416632413864136,0.14533543586730957,0.9174424409866333,1.0150343179702759,5.22120475769043,-0.7603688701394061,1.4495231416021572,0.7144601859733505
2.450626850128174,0.1695646047592163,0.10269927978515625,0.19417297840118408,0.845404326915741,1.1468124389648438,5.137571334838867,-0.7078274353362826,1.458024630571552,0.7109958099178904
2.4607787132263184,0.165305495262146,0.028932690620422363,0.21162265539169312,0.9523643255233765,1.298354983329773,5.010891914367676,-0.6563284790912771,1.4675334688793615,0.7066393116031194
2.4707798957824707,0.1985049843788147,0.03765290975570679,0.18353188037872314,1.0369679927825928,1.3973596096038818,4.891168594360352,-0.6060576628921619,1.47729662901745,0.7003339209112751
2.480660915374756,0.26048439741134644,0.15058237314224243,0.14363425970077515,1.1881098747253418,1.4496546983718872,4.828309535980225,-0.5566468300345399,1.487431830264367,0.6923971216105681
2.490884780883789,0.3325517773628235,0.26595497131347656,0.0845535397529602,1.4038922786712646,1.3846373558044434,4.795045375823975,-0.50764461484037,1.4961471006731808,0.6817249472611991
2.5007898807525635,0.4080418348312378,0.3467788100242615,0.03356248512864113,1.6253985166549683,1.3544981479644775,4.786251544952393,-0.4587559275155125,1.503684078885842,0.6685276956514263
2.511366844177246,0.44464242458343506,0.4114757180213928,-0.029330845922231674,1.8478238582611084,1.4087715148925781,4.757933616638184,-0.4099045973004078,1.5108377623467777,0.6526631242792392
2.523594856262207,0.43420034646987915,0.43204399943351746,-0.08035135269165039,2.0208537578582764,1.478570818901062,4.689842700958252,-0.3615969394176243,1.5185181420886262,0.6346837441085795
2.530768871307373,0.41610270738601685,0.4480054974555969,-0.09773534536361694,2.1373400688171387,1.5311377048492432,4.596946716308594,-0.3141396441551829,1.5270817743336969,0.6149414800295777
2.540684938430786,0.40592193603515625,0.4548076391220093,-0.09757649898529053,2.142078161239624,1.5625051259994507,4.471536636352539,-0.26789832865275126,1.536671379448738,0.5943595521283065
2.550601005554199,0.4059743881225586,0.43577730655670166,-0.07554882764816284,2.032400369644165,1.5582389831542969,4.283980369567871,-0.22345686815054713,1.5473720768428676,0.5740600153520667
2.560722827911377,0.40670305490493774,0.4009266495704651,-0.047129929065704346,1.857300043106079,1.5164363384246826,4.0642900466918945,-0.18130277731514363,1.5589396001139675,0.5549192012117464
2.573701858520508,0.40069580078125,0.3799056112766266,-0.019187092781066895,1.6774332523345947,1.4522122144699097,3.8237669467926025,-0.14171695868893652,1.5709574404445004,0.537252598314758
2.58091402053833,0.3863307237625122,0.3764421045780182,0.001874803565442562,1.5181580781936646,1.3940916061401367,3.5700817108154297,-0.10479820063880099,1.5832112106950298,0.5208999384453232
2.5906119346618652,0.36978602409362793,0.38487643003463745,0.005567312240600586,1.3800164461135864,1.2763441801071167,3.2960612773895264,-0.07068777927428367,1.5953067676922283,0.5057026534104452
2.6008119583129883,0.35684001445770264,0.3814903497695923,0.003908276557922363,1.2249025106430054,1.1013717651367188,3.0026891231536865,-0.03955571453026929,1.606443790420373,0.4916900842143189
2.6110310554504395,0.33210283517837524,0.3410162925720215,0.006162762641906738,1.0487573146820068,0.9765961170196533,2.697181463241577,-0.01152301766825047,1.6164714048663638,0.479154120572725
2.622931957244873,0.29491567611694336,0.3149089813232422,0.0010221004486083984,0.865412175655365,0.912818431854248,2.407747983932495,0.013502554357693156,1.6259443256007011,0.4682649857407153
2.631103038787842,0.25887203216552734,0.31388401985168457,-0.014980792999267578,0.673019289970398,0.800168514251709,2.0976874828338623,0.03555593427766723,1.6347809768670507,0.4592453334101653
2.6412668228149414,0.2319278120994568,0.30930519104003906,-0.022046692669391632,0.4826067090034485,0.6637883186340332,1.8075273036956787,0.054632676057613856,1.6424344361816927,0.4521458432285558
2.6508219242095947,0.20311081409454346,0.312242329120636,-0.019420035183429718,0.3063301146030426,0.543973982334137,1.5492790937423706,0.07106067592631107,1.6487807059936697,0.44694533111174134
2.661098003387451,0.1665700078010559,0.3229885697364807,-0.025803454220294952,0.1377091407775879,0.4497404396533966,1.3130028247833252,0.0851458669576071,1.6540038318786032,0.4435678343498608
2.6732497215270996,0.12505465745925903,0.3309163451194763,-0.04488372057676315,-0.018490664660930634,0.36472287774086,1.0929005146026611,0.09705990601738898,1.6582251148921612,0.4419429827155553
2.6811790466308594,0.0877792239189148,0.34037986397743225,-0.0630335733294487,-0.16311496496200562,0.2947528660297394,0.9166014790534973,0.10712518642025363,1.6615276417262952,0.4419667899840339
2.690861940383911,0.06031674146652222,0.341268926858902,-0.0794672966003418,-0.32393383979797363,0.20821183919906616,0.7348723411560059,0.11555855603719709,1.663881175345611,0.44362752890108154
2.7011280059814453,0.034130990505218506,0.33390429615974426,-0.08569622039794922,-0.4667740762233734,0.13779599964618683,0.5680428743362427,0.12238709686346393,1.6651961211669808,0.4469991427171791
2.7109227180480957,0.008751392364501953,0.3272012770175934,-0.09305107593536377,-0.584999144077301,0.09867385774850845,0.43090277910232544,0.12782682537728354,1.665755536794487,0.45182730903466195
2.7209010124206543,-0.01319652795791626,0.3408534526824951,-0.10436473786830902,-0.669125497341156,0.08141151815652847,0.3080833852291107,0.13206959167945076,1.665877216473252,0.4577976903832566
2.730912923812866,-0.029134631156921387,0.3672710955142975,-0.11289238929748535,-0.7089349627494812,0.06006667762994766,0.20008915662765503,0.13523050960847793,1.6657146465146007,0.46452177234620984
2.740920066833496,-0.03164350986480713,0.3851352334022522,-0.12061858177185059,-0.7161193490028381,0.016571398824453354,0.10226619243621826,0.13738278957044214,1.6651446068744369,0.4715700346124375
2.7508068084716797,-0.03552299737930298,0.39892569184303284,-0.12994778156280518,-0.6949501633644104,-0.005190488416701555,0.026065219193696976,0.13865791617047288,1.6642080915483546,0.4786146519071593
2.760941982269287,-0.04399818181991577,0.4086824357509613,-0.14048123359680176,-0.6665049195289612,-0.008857661858201027,-0.04514824226498604,0.13917280146659952,1.6631984080906497,0.4854584899398277
2.7712607383728027,-0.04958456754684448,0.4020615220069885,-0.14570879936218262,-0.6444804072380066,-0.032618872821331024,-0.1011461541056633,0.13900473438589217,1.6620914412884358,0.4921343780604619
2.780975818634033,-0.051979005336761475,0.3697482943534851,-0.1390061378479004,-0.6199052929878235,-0.07515328377485275,-0.156130850315094,0.13828553808608632,1.6606550281814785,0.4986189612674016
2.7909979820251465,-0.06340640783309937,0.3162428140640259,-0.1264723539352417,-0.6101841330528259,-0.06794823706150055,-0.22666290402412415,0.1368909163943755,1.6590229156133656,0.5049677610984623
2.8009798526763916,-0.08224296569824219,0.2866303622722626,-0.12527811527252197,-0.6031230092048645,-0.026572829112410545,-0.28224441409111023,0.1348629303999151,1.6576958538826105,0.5112986217654805
2.811093807220459,-0.0839189887046814,0.2698162794113159,-0.12484348565340042,-0.603176474571228,-0.0028851674869656563,-0.33262380957603455,0.13229291504690668,1.6567157524398133,0.51763531484664
2.8231258392333984,-0.06748777627944946,0.2599024474620819,-0.11293315887451172,-0.5965074300765991,-0.008043711073696613,-0.3620480000972748,0.12931161555898438,1.6558548684703391,0.5239816519908964
2.831199884414673,-0.04454517364501953,0.2574846148490906,-0.09582579135894775,-0.5743359327316284,-0.032130271196365356,-0.3858562409877777,0.12605858958967495,1.6548753539587437,0.5301786076432388
2.8412790298461914,-0.028624892234802246,0.24983270466327667,-0.08427906781435013,-0.5506529808044434,-0.04683491587638855,-0.4084851145744324,0.12254520747982646,1.6537318973669606,0.5361797929923146
2.8510069847106934,-0.01861816644668579,0.24274486303329468,-0.07835496217012405,-0.5137946009635925,-0.05614466220140457,-0.43603354692459106,0.11875622557341037,1.652533515632403,0.5418904653481151
2.8610458374023438,-0.011425375938415527,0.23061394691467285,-0.07587754726409912,-0.4647897779941559,-0.06330403685569763,-0.46147283911705017,0.11465405876890805,1.6513173517083766,0.5471756095029986
2.8726930618286133,-0.0032341480255126953,0.21551111340522766,-0.073555588722229,-0.40929844975471497,-0.07047726213932037,-0.4810138940811157,0.11029639428114088,1.6501198776590493,0.551949651350469
2.8810458183288574,0.008715212345123291,0.19544805586338043,-0.07231557369232178,-0.3599756360054016,-0.0862322598695755,-0.5032275915145874,0.10567884751370141,1.6488755249972638,0.5561931967828405
2.891124725341797,0.018336117267608643,0.17600233852863312,-0.06617975234985352,-0.31195133924484253,-0.09186337143182755,-0.5276006460189819,0.10077918211519898,1.6475879507937126,0.5599706076948988
2.901272773742676,0.021733343601226807,0.1674829125404358,-0.06485819816589355,-0.2640219032764435,-0.10123477131128311,-0.5403715372085571,0.09563768495925967,1.6462943897715907,0.563263279473209
2.9115357398986816,0.021940290927886963,0.15244391560554504,-0.06620454788208008,-0.2249656319618225,-0.10511548817157745,-0.550476610660553,0.0903567432860417,1.6449855223941958,0.5661068122948993
2.923625946044922,0.016080498695373535,0.12961043417453766,-0.06187784671783447,-0.19288279116153717,-0.0936223492026329,-0.5679179430007935,0.084912646181087,1.6437590809708615,0.5686112756528876
2.9314589500427246,0.004469454288482666,0.10693453252315521,-0.06562674045562744,-0.1595308482646942,-0.07782234996557236,-0.5756329894065857,0.07930769762768539,1.6427230427228778,0.5707903617127785
2.941250801086426,-0.004403531551361084,0.07741133123636246,-0.0661618709564209,-0.1313098669052124,-0.06229212507605553,-0.5843124985694885,0.07360204804860158,1.6418642423425815,0.5726418152827678
2.951190948486328,-0.012359619140625,0.04679081588983536,-0.06224619597196579,-0.10330789536237717,-0.030585061758756638,-0.5902000665664673,0.0678083708482383,1.6412889649111186,0.5742294594551083
2.9614219665527344,-0.018889784812927246,0.02745833247900009,-0.06428707391023636,-0.08480372279882431,-0.005088489968329668,-0.5898048877716064,0.06196759778580736,1.6410285204974575,0.5755867692386515
2.9728758335113525,-0.019525110721588135,0.02016257494688034,-0.06483268737792969,-0.060679130256175995,0.005360555835068226,-0.5762177109718323,0.05617235098184098,1.640970015914972,0.5767133454150027
2.981221914291382,-0.015869140625,0.012921981513500214,-0.06232500076293945,-0.03902736306190491,0.016087235882878304,-0.5550916790962219,0.05054116514689326,1.6410201880709774,0.5776067589446884
2.9913368225097656,-0.01600545644760132,0.007145017385482788,-0.059289224445819855,-0.0163447055965662,0.030519038438796997,-0.5241711735725403,0.045154755204208544,1.6412170905897896,0.578272650173865
3.0012738704681396,-0.014120161533355713,0.003015618771314621,-0.055589452385902405,0.006683915387839079,0.044888123869895935,-0.4887511134147644,0.04008995701098333,1.6415774042236777,0.5786728928691875
3.0113840103149414,-0.009990513324737549,0.004017520695924759,-0.052102215588092804,0.03766331821680069,0.054562635719776154,-0.45102325081825256,0.03535118970451852,1.6420769559691752,0.5787953383878951
3.023378849029541,-0.00018024444580078125,0.011128151789307594,-0.049074411392211914,0.06617885082960129,0.04255976900458336,-0.40793144702911377,0.031000076255331684,1.642580447580724,0.5785693109295599
3.031280994415283,0.010727524757385254,0.014780079945921898,-0.04299713671207428,0.09739705175161362,0.004685977008193731,-0.35474416613578796,0.027112508825588123,1.6428434809688066,0.5780380850216401
3.04129695892334,0.014157116413116455,0.0003712959587574005,-0.03563261032104492,0.11831191927194595,-0.02773587964475155,-0.3104424774646759,0.023704213306917358,1.6427203174486904,0.5771931619873023
3.0515379905700684,0.006995439529418945,-0.01784431003034115,-0.031809091567993164,0.12083445489406586,-0.010452095419168472,-0.27886340022087097,0.02065509468623304,1.6425229423742174,0.576205021205779
3.0613229274749756,-0.005108535289764404,-0.011420588940382004,-0.03287053853273392,0.12909212708473206,0.011428434401750565,-0.2406470626592636,0.017953555827300176,1.6425584662764576,0.5751523646145426
3.0726637840270996,7.808208465576172e-05,-0.0014827530831098557,-0.02852822095155716,0.13971775770187378,0.0006781416013836861,-0.20222148299217224,0.015638254985009616,1.6426539032219707,0.573970310137112
3.08133602142334,0.01571410894393921,0.00603950209915638,-0.024025090038776398,0.15431587398052216,-0.021517707034945488,-0.1725304275751114,0.013654072523863763,1.6425734667980236,0.5726373024355815
3.091296911239624,0.027328014373779297,0.013587597757577896,-0.02243185043334961,0.16513918340206146,-0.04052339866757393,-0.1547262966632843,0.01189416601433387,1.6422749342070027,0.571156189676881
3.101456880569458,0.031594693660736084,0.017399746924638748,-0.02592683583498001,0.1721068024635315,-0.0555630698800087,-0.13817048072814941,0.01028934283365355,1.6418001045281563,0.5695927277448621
3.1115479469299316,0.027831435203552246,0.020317796617746353,-0.026429899036884308,0.17453357577323914,-0.06239403784275055,-0.1342756599187851,0.008797530906263125,1.6412173160487173,0.5679493399111498
3.123291015625,0.022143423557281494,0.023384595289826393,-0.026162385940551758,0.17499029636383057,-0.07224906235933304,-0.1326998621225357,0.007317164478008955,1.6405659044020076,0.5662916748249499
3.13156795501709,0.019330918788909912,0.021238569170236588,-0.026681654155254364,0.1650969237089157,-0.09171783924102783,-0.1363944709300995,0.005827238808247265,1.6397549757394572,0.5646771580549691
3.141592025756836,0.013673961162567139,0.013298936188220978,-0.023759014904499054,0.13984297215938568,-0.09297218918800354,-0.14651554822921753,0.004296271639219559,1.6388132181996788,0.5632521332413569
3.151516914367676,0.005247712135314941,0.01755167916417122,-0.02434074878692627,0.11880716681480408,-0.0802694782614708,-0.15632621943950653,0.0026743726219804376,1.637942965693772,0.5620713503292062
3.161468982696533,0.0011968016624450684,0.032519154250621796,-0.026506781578063965,0.1043856218457222,-0.0732608363032341,-0.16064240038394928,0.000994509553697186,1.6371926974257298,0.5610742633530929
3.172813892364502,0.006898105144500732,0.046667519956827164,-0.02271425724029541,0.10722965747117996,-0.08229237794876099,-0.1640835702419281,-0.0007110087925791216,1.6364196735556988,0.5601303015629429
3.181461811065674,0.01527327299118042,0.05731673538684845,-0.01596963405609131,0.11609532684087753,-0.09792539477348328,-0.16803410649299622,-0.002436675155261024,1.6349364045878687,0.5591207764986539
3.191554069519043,0.021654903888702393,0.06512130051851273,-0.012976638972759247,0.1315949410200119,-0.11749452352523804,-0.1683352142572403,-0.004214640329347387,1.6334514302321566,0.5579956397191658
3.201859951019287,0.025224745273590088,0.06432496011257172,-0.011335857212543488,0.1402965486049652,-0.14473839104175568,-0.17651644349098206,-0.006033342365929273,1.6318081077638737,0.5567348708456507
3.21304988861084,0.024360477924346924,0.056771762669086456,-0.00834561139345169,0.14598912000656128,-0.16465258598327637,-0.1854705661535263,-0.00794083324044489,1.6298985486302797,0.5554067541785991
3.2229127883911133,0.018034517765045166,0.05316249653697014,-0.009416460990905762,0.13474658131599426,-0.17672203481197357,-0.1952401101589203,-0.009902228654840577,1.62786932531606,0.554107001036681
3.2315008640289307,0.008680880069732666,0.05311372131109238,-0.008144497871398926,0.11560098826885223,-0.16717855632305145,-0.2014516144990921,-0.01196529448721314,1.6258323441468845,0.5529601543354679
3.241581916809082,0.0004730224609375,0.05904014781117439,-0.007237426936626434,0.09493299573659897,-0.15629954636096954,-0.2047342211008072,-0.014156730479294919,1.6239167614456154,0.552018112927788
3.2514889240264893,-0.0008658170700073242,0.06220089644193649,-0.00653076171875,0.0754634290933609,-0.16251836717128754,-0.21292082965373993,-0.016489417796754852,1.6221412863758695,0.551271995149155
3.2614998817443848,0.0001601576805114746,0.06349777430295944,-0.0032776519656181335,0.06384085863828659,-0.17546160519123077,-0.21589531004428864,-0.018946590334275367,1.620444341153901,0.5507119039207486
3.2738869190216064,-0.0028336644172668457,0.059253476560115814,-0.0018516778945922852,0.06130882725119591,-0.1879202276468277,-0.22582906484603882,-0.021528207461693337,1.6186827522152747,0.5501986515238428
3.2816247940063477,-0.014372289180755615,0.053013965487480164,-0.0038192234933376312,0.06609825044870377,-0.1729719042778015,-0.23744072020053864,-0.02424365506972205,1.6169735172722521,0.549683456375757
3.2916948795318604,-0.02681785821914673,0.05751402676105499,-0.008302688598632812,0.07806132733821869,-0.15471065044403076,-0.24482886493206024,-0.02703820884069514,1.6155225221598082,0.5490818522207254
3.301623821258545,-0.03197121620178223,0.0620734840631485,-0.011487368494272232,0.08826123923063278,-0.1483566164970398,-0.2483980357646942,-0.029559841985497763,1.6139933234492279,0.5483571650474756
3.3122687339782715,-0.027104437351226807,0.06391547620296478,-0.00978875532746315,0.0950431376695633,-0.14902417361736298,-0.2510671615600586,-0.032113591171552255,1.6124790413803938,0.5475388203097897
3.323333740234375,-0.021222174167633057,0.0642828643321991,-0.006733536720275879,0.10112553089857101,-0.1574200540781021,-0.2572614252567291,-0.034707856733157384,1.6109205866557306,0.5466585167901225
3.331824779510498,-0.017087876796722412,0.0634688064455986,-0.003670688718557358,0.1026589497923851,-0.16870014369487762,-0.26050037145614624,-0.03735469550653685,1.6092477024276932,0.5457341533845045
3.341826915740967,-0.01682358980178833,0.05992945656180382,0.0013115368783473969,0.09598906338214874,-0.18421146273612976,-0.26158109307289124,-0.04002628920487093,1.607440573952581,0.5448406680170247
3.351719856262207,-0.020138442516326904,0.05150315538048744,0.008333563804626465,0.07714368402957916,-0.19573038816452026,-0.26652270555496216,-0.04271759050672123,1.605500760861229,0.5440519661414264
3.3617289066314697,-0.024709641933441162,0.04103618115186691,0.011606093496084213,0.04668297991156578,-0.19787876307964325,-0.26845109462738037,-0.0454357408296767,1.603495678225072,0.5435207040781913
3.3733859062194824,-0.027760207653045654,0.036736730486154556,0.015879152342677116,0.01483421865850687,-0.1988794505596161,-0.26172760128974915,-0.04812069560021137,1.6014969843220999,0.543313398589127
3.381880760192871,-0.028944313526153564,0.03649561479687691,0.020794983953237534,-0.0071304673328995705,-0.20534001290798187,-0.250349760055542,-0.050699552252314053,1.5994654039080431,0.5433523618587228
3.391854763031006,-0.02841585874557495,0.039068181067705154,0.02334415912628174,-0.011920428834855556,-0.2021445631980896,-0.2358424961566925,-0.05315043904405562,1.5974198034239027,0.5435178041359862
3.401777744293213,-0.029211759567260742,0.04607471823692322,0.02087068185210228,-0.006174392998218536,-0.19212868809700012,-0.2179761528968811,-0.05543987325630169,1.5954525707278178,0.543679222867706
3.411876916885376,-0.028587043285369873,0.0539439357817173,0.020200131461024284,0.01409179624170065,-0.18665029108524323,-0.2032591551542282,-0.05756856056475462,1.5935588878603846,0.5436925908362068
3.4231719970703125,-0.022697389125823975,0.05639784783124924,0.022945761680603027,0.036839719861745834,-0.18743060529232025,-0.1931268870830536,-0.059573661616306055,1.5916666989516124,0.5434869467275828
3.431756019592285,-0.018849611282348633,0.05717325583100319,0.025456786155700684,0.06089935079216957,-0.18509243428707123,-0.18871019780635834,-0.06150259181513509,1.589764426795153,0.543029757236846
3.4417898654937744,-0.014490842819213867,0.05928296595811844,0.02836466021835804,0.07485271245241165,-0.18068677186965942,-0.1896931678056717,-0.06342495536946736,1.5878923450611897,0.5423799608436153
3.4517569541931152,-0.012426555156707764,0.0607033371925354,0.030630826950073242,0.0848403200507164,-0.1792120486497879,-0.19627830386161804,-0.06538082667708411,1.5860361393879887,0.541614021522147
3.461798906326294,-0.012362897396087646,0.05892748385667801,0.03330683708190918,0.09343540668487549,-0.16926459968090057,-0.2049032300710678,-0.06742058134952968,1.584227709537518,0.5407557229986523
3.473021984100342,-0.015714943408966064,0.05851586163043976,0.03162229061126709,0.10801318287849426,-0.14483924210071564,-0.21852241456508636,-0.06957675573920545,1.5825836957146364,0.5397815168203701
3.4819068908691406,-0.01871037483215332,0.05983883887529373,0.028275728225708008,0.11742425709962845,-0.12225697189569473,-0.23694084584712982,-0.07189115096937496,1.5811676092974796,0.5386824442598201
3.4919278621673584,-0.013992071151733398,0.06301818788051605,0.02737748622894287,0.1364501416683197,-0.10498304665088654,-0.25736480951309204,-0.07439477100975299,1.5799587329174443,0.5374331829317229
3.501884937286377,-0.0005210041999816895,0.06604299694299698,0.027076363563537598,0.1598992645740509,-0.1086622029542923,-0.27959713339805603,-0.07711507119536051,1.5787933627438062,0.5359811706200839
3.5119199752807617,0.015279650688171387,0.07113443315029144,0.02993595600128174,0.18609605729579926,-0.1289023905992508,-0.3040553033351898,-0.08005885277673074,1.5774724519527032,0.534271162740642
3.5241527557373047,0.022030293941497803,0.07505780458450317,0.033478736877441406,0.20839042961597443,-0.1453719139099121,-0.32721176743507385,-0.08324141522681518,1.5759249096803882,0.5323039707154793
