timestamp,accel_x,accel_y,accel_z,rotation_x,rotation_y,rotation_z, pitch,roll,yaw
0.04188799858093262,-0.009322203695774078,-0.012917160987854004,-0.003159046173095703,-0.001707372721284628,0.007742228917777538,0.0011024581035599113,-0.8079365036340614,-0.09208274080615692,-0.03938615072383918
0.05505800247192383,-0.00928061455488205,-0.011782169342041016,-0.0019741058349609375,-0.0019494540756568313,0.005461498163640499,0.0014851543819531798,-0.8079501197851315,-0.09201144395366988,-0.039377179171511435
0.06757998466491699,-0.009105361998081207,-0.010888099670410156,-0.002252519130706787,-0.0030399186071008444,0.0037997739855200052,0.0010037082247436047,-0.8079811441389688,-0.09195865161960784,-0.03936417461867235
0.07425212860107422,-0.008485987782478333,-0.011410236358642578,-0.0019657015800476074,-0.006488978862762451,0.0027651358395814896,-0.0011340111959725618,-0.8080301410087539,-0.09193214842825019,-0.03937053950364475
0.0757908821105957,-0.009023614227771759,-0.013677477836608887,-0.0014547109603881836,-0.0050198957324028015,0.006236255634576082,0.0006760327378287911,-0.8080873154797018,-0.09188814184568944,-0.03937544259792221
0.08445096015930176,-0.011580392718315125,-0.01391690969467163,-0.0025130510330200195,-0.0016019948525354266,0.007948402315378189,0.004811921622604132,-0.8081246642177107,-0.09179058389810162,-0.03935056202385834
0.09124398231506348,-0.011234231293201447,-0.011768221855163574,-0.004188418388366699,0.000690137967467308,0.003125639632344246,0.002451136242598295,-0.8081287492892666,-0.09169527433289539,-0.039304058645736405
0.09976696968078613,-0.00918375700712204,-0.013585448265075684,-0.0026603341102600098,0.000324486056342721,0.003675315994769335,0.0028844326734542847,-0.8081307722460783,-0.09163737310157923,-0.03926531720008632
0.10971403121948242,-0.009921573102474213,-0.015630900859832764,-0.00221329927444458,-0.003472765674814582,0.00558209465816617,0.004875411745160818,-0.8081539079824976,-0.09154301886031348,-0.03920886272814448
0.11971282958984375,-0.010900020599365234,-0.014607489109039307,-0.003747701644897461,-0.004332433920353651,0.0035996376536786556,0.007154012098908424,-0.8081966204598193,-0.09143348024250743,-0.03912163985526451
0.1298670768737793,-0.00968305766582489,-0.015069246292114258,-0.0033072233200073242,-0.008646688424050808,0.0003446335904300213,0.004033373668789864,-0.8082686966776457,-0.09136840953209328,-0.03905127702109893
0.13997793197631836,-0.009716823697090149,-0.018843352794647217,-0.0018020868301391602,-0.009510351344943047,0.0004556872881948948,0.005617155693471432,-0.808364542533084,-0.09132850203868466,-0.03900002759186357
0.15009117126464844,-0.011044450104236603,-0.0199701189994812,-0.0013532042503356934,-0.007638232316821814,0.005597496405243874,0.009468724951148033,-0.8084494284129744,-0.09122556051998165,-0.03890244265268006
0.16003203392028809,-0.012085981667041779,-0.014897286891937256,-0.005380868911743164,0.001712924800813198,0.006599377375096083,0.010548902675509453,-0.8084835503202037,-0.09106778166682102,-0.03876345747482905
0.17006492614746094,-0.012232229113578796,-0.01162046194076538,-0.00659412145614624,0.010011101141571999,0.00784662552177906,0.005634252913296223,-0.8084227959649071,-0.09091589833742421,-0.038645730729542124
0.1801280975341797,-0.013326041400432587,-0.012067973613739014,-0.006999552249908447,0.011245742440223694,0.0075827063992619514,0.006242252420634031,-0.8083195913994874,-0.0907799590104774,-0.038558042847191276
0.19010114669799805,-0.013646729290485382,-0.010471463203430176,-0.00839853286743164,0.009712944738566875,0.004407019354403019,0.0027607553638517857,-0.8082174177968986,-0.09065896811769203,-0.03847727867685318
0.2000119686126709,-0.013276100158691406,-0.008916199207305908,-0.00656050443649292,0.0003993373829871416,0.00023437850177288055,-0.0023644983302801847,-0.807777302097761,-0.09073437730053821,-0.03854219315625849
0.21004104614257812,-0.014592766761779785,-0.010649681091308594,-0.003912389278411865,-0.00617249496281147,0.0014059471432119608,-0.0069103543646633625,-0.8074375063729432,-0.09085081526178104,-0.0386674885522171
0.22002005577087402,-0.01578196883201599,-0.01375424861907959,-0.0039044618606567383,-0.007115786895155907,0.0019734667148441076,-0.009464592672884464,-0.8071166945987757,-0.09099890709145098,-0.038853379373256586
0.22992396354675293,-0.016890771687030792,-0.010483860969543457,-0.004130721092224121,0.0014173975214362144,0.00021520396694540977,-0.009960472583770752,-0.8067565653157256,-0.09119347549795177,-0.03906768678815394
0.2399599552154541,-0.016364946961402893,-0.008073389530181885,-0.007292568683624268,0.006257958710193634,-0.0008942689746618271,-0.011476610787212849,-0.8063602134465715,-0.0914093847491663,-0.039300522322178
0.250032901763916,-0.01493632048368454,-0.005107522010803223,-0.008603811264038086,0.011566588655114174,-0.0036109155043959618,-0.01267897430807352,-0.8059553004970422,-0.09165011763977432,-0.03953314251048057
0.2601439952850342,-0.01363585889339447,-0.00570601224899292,-0.006601214408874512,0.009592652320861816,-0.0031121056526899338,-0.018346447497606277,-0.8055415663467748,-0.09194735004266559,-0.03982673555044583
0.2700810432434082,-0.015267260372638702,-0.009854793548583984,-0.0018352270126342773,0.0033631031401455402,-0.0032258667051792145,-0.018088705837726593,-0.8051868831612908,-0.09226897703489476,-0.04015324475091261
0.2800619602203369,-0.014647915959358215,-0.012724816799163818,0.00034612417221069336,-0.001672668382525444,-0.0026173340156674385,-0.018765149638056755,-0.8049466284948396,-0.09259050599978819,-0.04048591770195313
0.29016804695129395,-0.015003003180027008,-0.016798317432403564,0.0017321109771728516,-0.004395617172122002,0.0012108704540878534,-0.021013498306274414,-0.8047697775225244,-0.09294325075072503,-0.04087109977052703
0.3002629280090332,-0.014616087079048157,-0.017456889152526855,0.002050042152404785,0.002760562812909484,0.0007743784226477146,-0.018847016617655754,-0.804509122708337,-0.09327947443294123,-0.041256659852203115
0.3101019859313965,-0.01152712106704712,-0.0149308443069458,0.0012822151184082031,0.012841758318245411,0.0008983933366835117,-0.018052008002996445,-0.8042111014457565,-0.0935916366530182,-0.04160775509711652
0.3201429843902588,-0.010694228112697601,-0.010768711566925049,0.0005689263343811035,0.019287409260869026,0.0018472776282578707,-0.013980567455291748,-0.8038202729810069,-0.09385352923635085,-0.041902188017451526
0.33021998405456543,-0.010092340409755707,-0.007200896739959717,0.001171410083770752,0.0180477574467659,0.0027557266876101494,-0.013857635669410229,-0.803428544901092,-0.09406797093668276,-0.04215555427597783
0.3402550220489502,-0.008387379348278046,-0.009985804557800293,0.0021622180938720703,0.005820118822157383,0.000725599005818367,-0.01709444262087345,-0.803132141056882,-0.09429802646458091,-0.04243299620931102
0.3503098487854004,-0.006117083132266998,-0.016442418098449707,0.005454719066619873,-0.003901135176420212,-0.0006146370433270931,-0.017588192597031593,-0.8029594511966821,-0.09460738353667991,-0.042781444143631095
0.3601350784301758,-0.007205501198768616,-0.017435967922210693,0.009509563446044922,-0.010775286704301834,0.0010498387273401022,-0.015121838077902794,-0.8028741679116413,-0.09490062835850635,-0.04311122428538036
0.3703329563140869,-0.008757933974266052,-0.017420470714569092,0.010547995567321777,-0.008368920534849167,0.003936260938644409,-0.013073921203613281,-0.8027639170223231,-0.09516026460122964,-0.04341391529324914
0.38034605979919434,-0.008370503783226013,-0.013835251331329346,0.007824540138244629,0.004124767147004604,0.009525436908006668,-0.009291966445744038,-0.8025671917811489,-0.09532591860232835,-0.043648926720643355
0.39036083221435547,-0.008768253028392792,-0.01009666919708252,0.004485130310058594,0.016584748402237892,0.013596832752227783,-0.0065545556135475636,-0.8022814675571512,-0.0953844101940953,-0.04382567965047762
0.40038585662841797,-0.00684211403131485,-0.006086766719818115,0.001879572868347168,0.022964883595705032,0.011675628833472729,-0.004510579630732536,-0.8019568023074205,-0.0953794149588203,-0.04394790663991361
0.4101901054382324,-0.004723548889160156,-0.0059087276458740234,0.0044899582862854,0.017339222133159637,0.013133442960679531,-0.006928996182978153,-0.8016788576463462,-0.09537053069869462,-0.0440493169451062
0.420255184173584,-0.004730671644210815,-0.01226586103439331,0.00675809383392334,0.0022846388164907694,0.015152651816606522,-0.009022507816553116,-0.8014949518866119,-0.09536408860662694,-0.04419882789695637
0.4302680492401123,-0.003026440739631653,-0.013348639011383057,0.008758306503295898,-0.012829415500164032,0.011137980967760086,-0.009408826008439064,-0.8014283580656139,-0.09537268531249998,-0.044364144412213216
0.4402198791503906,-0.002192467451095581,-0.014632880687713623,0.009615778923034668,-0.02413586527109146,0.004258769564330578,-0.013276002369821072,-0.8015415807559586,-0.09548646795536322,-0.04459363143695872
0.4512619972229004,-0.0012053176760673523,-0.017054617404937744,0.00939178466796875,-0.026727721095085144,0.003205489832907915,-0.00856337882578373,-0.8017327766289772,-0.09565290507190155,-0.044837703092809524
0.46024084091186523,-0.0032096058130264282,-0.013642549514770508,0.0077435970306396484,-0.017821844667196274,0.009105456992983818,-0.004045059438794851,-0.8018947260567448,-0.09574937695511467,-0.04500989172605346
0.47037506103515625,-0.007505558431148529,-0.010469794273376465,0.002862095832824707,-0.0032778719905763865,0.01936523988842964,0.0012150033144280314,-0.8019402189812393,-0.09569793148295654,-0.045101144522007496
0.48040008544921875,-0.010152071714401245,-0.0026467442512512207,-0.002575695514678955,0.016313139349222183,0.019133012741804123,0.0021231411956250668,-0.8018153437971663,-0.0955214558314859,-0.045085618581843234
0.4904780387878418,-0.009209081530570984,-0.001867830753326416,-0.0023130178451538086,0.023768842220306396,0.020601967349648476,0.0011913543567061424,-0.8015949276523725,-0.09531893867156471,-0.045055636070626806
0.5005350112915039,-0.0078059956431388855,-0.0045125484466552734,-0.00010073184967041016,0.026750784367322922,0.02356899529695511,0.0020662026945501566,-0.8012730585469725,-0.09510991455618314,-0.04504683160045245
0.5104119777679443,-0.008566781878471375,-0.005447208881378174,0.005163788795471191,0.039242856204509735,0.011540606617927551,-0.001868404564447701,-0.8009057761675523,-0.09492272233364595,-0.045018816353289054
0.5203790664672852,-0.007410980761051178,-0.007899105548858643,0.01578158140182495,0.047548454254865646,-0.0092594800516963,-0.00322901364415884,-0.8004167387403911,-0.0949351612173965,-0.045036044806987294
0.5306491851806641,-0.0065858736634254456,-0.006430506706237793,0.019109010696411133,0.049647677689790726,-0.04529298096895218,-0.0003113608108833432,-0.7998638431354441,-0.09512455065780183,-0.044974940868461405
0.5406088829040527,0.001899905502796173,-0.0049855709075927734,0.013577401638031006,0.04511390998959541,-0.09086339920759201,-0.026167992502450943,-0.7993232153130666,-0.0959976490710923,-0.0451603194420717
0.5503520965576172,0.0018395408987998962,-0.021264493465423584,0.016654014587402344,0.019094295799732208,-0.08991566300392151,-0.001951122423633933,-0.7989699402376726,-0.09710664861262258,-0.045389692764516036
0.560554027557373,-0.009842246770858765,-0.022540032863616943,0.0006026029586791992,0.004392581060528755,-0.07411086559295654,0.01817731373012066,-0.798829801560672,-0.09789314530440363,-0.045290398982689745
0.5705909729003906,-0.01013880968093872,-0.009484529495239258,-0.024335145950317383,-0.027799110859632492,-0.08595509827136993,0.022881576791405678,-0.7989696435993191,-0.09851324271987043,-0.04505310979340233
0.5805339813232422,-0.008434653282165527,-0.02095174789428711,-0.022377371788024902,-0.0483669713139534,-0.1082414984703064,0.017377087846398354,-0.799331058944909,-0.09935678856179314,-0.04484138952162801
0.5904698371887207,-0.008113652467727661,-0.04756289720535278,-0.014038801193237305,-0.04562930762767792,-0.11554965376853943,0.013350335881114006,-0.799856255376356,-0.10044585787199575,-0.04475096911934019
0.6006860733032227,-0.009975343942642212,-0.039133429527282715,-0.01670938730239868,-0.026167457923293114,-0.11844983696937561,0.02794046327471733,-0.8003505468610314,-0.10151000325521625,-0.044561017129552336
0.6104960441589355,-0.01411961019039154,-0.02026468515396118,-0.015724003314971924,-0.006458568386733532,-0.10747592151165009,0.05474613979458809,-0.8007102379916597,-0.10228362867951842,-0.04402819054009786
0.6205201148986816,-0.016907185316085815,-0.010770201683044434,-0.0098152756690979,0.00820399634540081,-0.10092508792877197,0.06384935975074768,-0.8008367666563835,-0.10267853280910816,-0.04314814958720083
0.6329231262207031,-0.0175226628780365,-0.013924121856689453,0.0002174973487854004,0.0039504459127783775,-0.0885583907365799,0.07337404787540436,-0.800720406597197,-0.10287911248146515,-0.04213129180188256
0.6406409740447998,-0.015835829079151154,-0.018919706344604492,0.004285454750061035,0.007957171648740768,-0.07063078880310059,0.07498632371425629,-0.8004441400238341,-0.10294994036797864,-0.04108390382745296
0.6504290103912354,-0.015556760132312775,-0.022864818572998047,0.014944612979888916,0.018162621185183525,-0.057301174849271774,0.07370837777853012,-0.7999961344341774,-0.10282055777744989,-0.040014435950732744
0.6605119705200195,-0.015693679451942444,-0.017010390758514404,0.020203709602355957,0.032309334725141525,-0.05354585126042366,0.08324382454156876,-0.7993901174607109,-0.10253675628627583,-0.038860218241568135
0.670536994934082,-0.010093867778778076,-0.003412008285522461,0.02557551860809326,0.04387256130576134,-0.04937707260251045,0.09113018959760666,-0.7985109913341926,-0.10211390739364856,-0.037548259842301736
0.6822991371154785,-0.004307933151721954,-0.006903946399688721,0.029286503791809082,0.03350381180644035,-0.03817368671298027,0.08946864306926727,-0.7977207595811585,-0.10161764537558642,-0.036221426463040565
0.6906969547271729,-0.005252167582511902,-0.0182989239692688,0.02684885263442993,0.020610783249139786,-0.022795528173446655,0.08972292393445969,-0.7972791224494219,-0.10104728991237492,-0.034952234647768206
0.7006149291992188,-0.006354838609695435,-0.023555278778076172,0.0246201753616333,0.0013191099278628826,-0.0055467672646045685,0.0958215668797493,-0.7971584941622832,-0.10032659784883068,-0.03369358857217811
0.7106471061706543,-0.005528353154659271,-0.029448747634887695,0.025505423545837402,-0.002445084974169731,0.015342402271926403,0.09605751931667328,-0.7971855238022231,-0.09938922707138916,-0.03238062530110796
0.7207140922546387,-0.006612300872802734,-0.037399113178253174,0.024688720703125,-0.011369338259100914,0.04130742698907852,0.10924762487411499,-0.7972953901910803,-0.098148620100498,-0.031007899797259052
0.7326831817626953,-0.008311651647090912,-0.04024690389633179,0.026999056339263916,-0.01664036512374878,0.05266411975026131,0.1314932256937027,-0.7975276987783985,-0.09651776419196284,-0.029355717907507402
0.7407960891723633,-0.0072898268699646,-0.04402577877044678,0.038803040981292725,-0.03807109221816063,0.06652667373418808,0.15715065598487854,-0.7979570954887829,-0.09453969763501043,-0.027380320839074334
0.751133918762207,-0.008955255150794983,-0.06287187337875366,0.05315113067626953,-0.08443950861692429,0.08321958780288696,0.18474073708057404,-0.7987900878821814,-0.09213502229994071,-0.025054726321922217
0.7607440948486328,-0.014852859079837799,-0.08438879251480103,0.06611013412475586,-0.13362088799476624,0.09974051266908646,0.21906700730323792,-0.8001282503850403,-0.08925989515053978,-0.02231210395078135
0.7707171440124512,-0.01734541729092598,-0.10971128940582275,0.08029067516326904,-0.18382839858531952,0.12132995575666428,0.24673698842525482,-0.8019378846260323,-0.08596070735535484,-0.019208834681072817
0.7827701568603516,-0.023878194391727448,-0.13408374786376953,0.08774542808532715,-0.223670095205307,0.154759019613266,0.29104506969451904,-0.8042068432753438,-0.08198846077357907,-0.015602607615620443
0.7907629013061523,-0.024812713265419006,-0.13448041677474976,0.07711589336395264,-0.227408304810524,0.15401843190193176,0.33115220069885254,-0.8067176495711862,-0.07737488700027496,-0.011378760419465415
0.8007819652557373,-0.01401139423251152,-0.12298917770385742,0.0789143443107605,-0.23783084750175476,0.13881950080394745,0.37012410163879395,-0.8092552268206331,-0.0724335570453857,-0.006562371157659896
0.8107089996337891,-0.004677832126617432,-0.11382681131362915,0.07552593946456909,-0.2574796974658966,0.1310441493988037,0.4221941828727722,-0.812057417333671,-0.06712707122766472,-0.0010865131731052856
0.821295976638794,-0.0003190860152244568,-0.10770732164382935,0.07676494121551514,-0.1888366937637329,0.11608303338289261,0.44272369146347046,-0.8145658875390044,-0.0614596766364164,0.005001751505806793
0.8326349258422852,0.003961954265832901,-0.10264766216278076,0.052269697189331055,-0.1272571086883545,0.09453598409891129,0.5015614628791809,-0.8164893558219839,-0.05563840349528681,0.011675726771653178
0.8407211303710938,0.014023978263139725,-0.04655259847640991,0.005309104919433594,0.013842758722603321,0.1107783392071724,0.5461808443069458,-0.8173087124887265,-0.049041332829351615,0.019293016966365595
0.8508691787719727,0.026156848296523094,-0.02186530828475952,-0.03238028287887573,0.12366863340139389,0.08650082349777222,0.636299729347229,-0.8169093740830572,-0.04170407024689372,0.027962099411087526
0.8607211112976074,0.016144851222634315,-0.029597222805023193,-0.019419193267822266,0.23649878799915314,0.11760041862726212,0.6714063286781311,-0.8152995048469731,-0.033656648182110484,0.03769188929731385
0.8708009719848633,0.0013874340802431107,-0.056888699531555176,0.00010985136032104492,0.3172916769981384,0.21650871634483337,0.713702917098999,-0.8128008102581428,-0.024615836168456622,0.047829196399792565
0.8824348449707031,-0.01567559316754341,-0.09343498945236206,0.004291236400604248,0.45820966362953186,0.31443101167678833,0.8014500737190247,-0.8090593528471084,-0.01389967080299302,0.058941776894954875
0.8909380435943604,0.009560754522681236,-0.0684327483177185,-0.012673437595367432,0.6151235699653625,0.4119773209095001,0.884337842464447,-0.8037559150621985,-0.0013757833168166747,0.07121022227046404
0.9011931419372559,0.06292635202407837,-0.04680931568145752,0.0007675886154174805,0.7227528095245361,0.4644186794757843,0.9912967681884766,-0.7970052084959363,0.012643531138088176,0.08460115996117532
0.9109621047973633,0.12696261703968048,-0.07299453020095825,0.009100198745727539,0.8016344904899597,0.5087118148803711,1.1068367958068848,-0.7890694920605361,0.028016734680579355,0.09935157866848442
0.921360969543457,0.21319666504859924,-0.05096316337585449,-0.012242913246154785,0.7298833727836609,0.5551599860191345,1.2088662385940552,-0.7809191063052447,0.04465565886873916,0.11533442479961153
0.9324309825897217,0.3035893142223358,-0.02393251657485962,-0.035725533962249756,0.4997020959854126,0.5147976279258728,1.250631332397461,-0.7739934010604085,0.0618954997712021,0.13220967605542194
0.940911054611206,0.39046522974967957,-0.07285255193710327,-0.030856668949127197,0.16120874881744385,0.4422968029975891,1.242053747177124,-0.769756669248027,0.07860756740015826,0.14927038950214605
0.9509580135345459,0.47068095207214355,-0.1319904923439026,-0.029309451580047607,-0.15876442193984985,0.3339685797691345,1.221459984779358,-0.7687512173734061,0.09440541869921228,0.16638527325303673
0.9609320163726807,0.5327776670455933,-0.12513864040374756,-0.02503228187561035,-0.40433555841445923,0.2154131829738617,1.2056019306182861,-0.7703437196684352,0.10913687204692116,0.1835971326958737
0.9709501266479492,0.5688028931617737,-0.07054883241653442,-0.02352595329284668,-0.6145042777061462,0.09693482518196106,1.2214810848236084,-0.773994492405459,0.12301921863542495,0.20123365349777544
0.9827051162719727,0.582447350025177,0.0061307549476623535,-0.029305338859558105,-0.7969406843185425,-0.06553983688354492,1.2568777799606323,-0.7794441648875606,0.13618349094967824,0.21976587884414397
0.9913079738616943,0.5880984663963318,0.04374426603317261,-0.024425089359283447,-0.9357043504714966,-0.21400019526481628,1.2793116569519043,-0.7862449948750846,0.14847427594866186,0.2392279228579155
1.0010600090026855,0.5767504572868347,0.027939140796661377,-0.028644919395446777,-1.0677369832992554,-0.3297659456729889,1.3127233982086182,-0.794155274338932,0.16026597884644542,0.25964344246058635
1.0111708641052246,0.5416072010993958,0.014262735843658447,-0.04752516746520996,-1.239192247390747,-0.43942075967788696,1.3241908550262451,-0.8033046537808305,0.17173495161207727,0.28104928682828445
1.0213780403137207,0.4971398711204529,-0.005374133586883545,-0.05694770812988281,-1.3950473070144653,-0.511832594871521,1.3528892993927002,-0.8139766771341298,0.18319707848775008,0.30350653807330275
1.0324468612670898,0.44410496950149536,-0.019754767417907715,-0.07137167453765869,-1.4903465509414673,-0.5514705777168274,1.4074355363845825,-0.825592168433722,0.19529547998095675,0.3273735579261483
1.0410380363464355,0.3859831988811493,-0.005074918270111084,-0.09754467010498047,-1.4936357736587524,-0.560093879699707,1.4798502922058105,-0.8374126639233503,0.20856185804843952,0.3528545128679835
1.0510869026184082,0.33087408542633057,0.028069257736206055,-0.12893563508987427,-1.4165319204330444,-0.5769436359405518,1.5520926713943481,-0.8484186486682627,0.22304798685005794,0.37984735300528505
1.0610060691833496,0.2937700152397156,0.04089784622192383,-0.169142484664917,-1.187264084815979,-0.6176993250846863,1.6141061782836914,-0.8576119844921306,0.2381900507410567,0.40789542378291055
1.0711159706115723,0.2682197690010071,0.06420916318893433,-0.2104172706604004,-0.9718679785728455,-0.6794685125350952,1.6635141372680664,-0.8640560390450386,0.2532351686217767,0.43627351201743636
1.08231782913208,0.24818816781044006,0.1218608021736145,-0.2536051869392395,-0.7758135199546814,-0.7355368733406067,1.772851824760437,-0.8680540078156793,0.26835576425618374,0.4654248874748555
1.0910921096801758,0.22841812670230865,0.1698826551437378,-0.2753387689590454,-0.5591962337493896,-0.7627038359642029,1.8415791988372803,-0.8696099179677195,0.2836536802196865,0.4952835933119657
1.101151943206787,0.2011185735464096,0.16488903760910034,-0.3147825002670288,-0.23542271554470062,-0.8209447860717773,1.8825719356536865,-0.8680801181762737,0.2982606831000136,0.5247530290829704
1.1111669540405273,0.16275209188461304,0.19075101613998413,-0.32470232248306274,0.06414584070444107,-0.8772527575492859,1.9187885522842407,-0.8631859534776319,0.3113677065906256,0.5531524056324904
1.1215181350708008,0.13328199088573456,0.24294984340667725,-0.32695770263671875,0.3321240246295929,-0.8927478194236755,1.972577691078186,-0.8551972500014743,0.32323763863697413,0.5805427664718877
1.1327929496765137,0.11444975435733795,0.29217278957366943,-0.3516174554824829,0.5979176163673401,-0.9070652723312378,2.0198023319244385,-0.8442676084481239,0.33414209836978614,0.6069796280643117
1.1411709785461426,0.0966656506061554,0.3306748867034912,-0.3652021884918213,0.8199546933174133,-0.9659000635147095,2.0432186126708984,-0.8307649862239861,0.34349637261491917,0.6321444452662404
1.151144027709961,0.08752918243408203,0.33522534370422363,-0.3539084196090698,0.980493426322937,-1.043925404548645,2.0421833992004395,-0.815277011316064,0.3508596125164319,0.6559125455362607
1.161133050918579,0.08603493869304657,0.30409008264541626,-0.33994877338409424,1.0425509214401245,-1.1024925708770752,2.031299114227295,-0.7986322613905106,0.3564120193973408,0.6784720511821097
1.171144962310791,0.08587843179702759,0.29027748107910156,-0.3232582211494446,1.0316132307052612,-1.1802722215652466,2.024256467819214,-0.7817455364249337,0.36051995894450517,0.7002989902357247
1.1821861267089844,0.0842469334602356,0.29618507623672485,-0.28935378789901733,0.9634934663772583,-1.2911121845245361,2.0158684253692627,-0.7652350818950832,0.36317247023016935,0.7217920971526981
1.191828966140747,0.08624812960624695,0.29191774129867554,-0.24172425270080566,0.8995566368103027,-1.389675498008728,2.0090363025665283,-0.7493329347809516,0.36438854754031214,0.7431251721560939
1.2027511596679688,0.08479055762290955,0.2880052328109741,-0.20428979396820068,0.8650862574577332,-1.4958975315093994,1.985419511795044,-0.7339862087701328,0.36424343608852466,0.7642613251777561
1.211298942565918,0.08232995867729187,0.28747791051864624,-0.18103629350662231,0.8738020062446594,-1.6148022413253784,1.9250555038452148,-0.7188926588476666,0.36218709374614866,0.7846060458185188
1.2213170528411865,0.08883747458457947,0.30750471353530884,-0.17667365074157715,0.9526403546333313,-1.739682912826538,1.889549970626831,-0.703675002343629,0.3580353273442909,0.803942840612968
1.2322649955749512,0.10274496674537659,0.3701730966567993,-0.18356436491012573,1.100764274597168,-1.8844269514083862,1.8587664365768433,-0.6875144039075717,0.3516283292220814,0.822233870813887
1.2412281036376953,0.11909246444702148,0.41021448373794556,-0.1925753355026245,1.2294663190841675,-2.0185070037841797,1.8180196285247803,-0.6702579339005316,0.3428291428233345,0.8393653067250405
1.2512569427490234,0.1251564621925354,0.41045576333999634,-0.1955382227897644,1.3259210586547852,-2.1181037425994873,1.7801223993301392,-0.6522037009802064,0.3320116594204182,0.8555045761749677
1.26124906539917,0.12262269854545593,0.39474916458129883,-0.17318236827850342,1.3943746089935303,-2.2024738788604736,1.7588021755218506,-0.6336026924242053,0.31969736566319973,0.8710308940150169
1.271353006362915,0.11483168601989746,0.38461798429489136,-0.12628090381622314,1.4408955574035645,-2.2969634532928467,1.723433017730713,-0.6147407947968,0.30598584407258533,0.8861145635117741
1.2827880382537842,0.1007760763168335,0.366186261177063,-0.06929057836532593,1.5176607370376587,-2.3637747764587402,1.6698275804519653,-0.5955733780499407,0.2908450220034017,0.9005643919732881
1.291365146636963,0.07222938537597656,0.34033018350601196,-0.023118138313293457,1.6387377977371216,-2.397531032562256,1.6143943071365356,-0.5758796539434611,0.27457554663247746,0.9142612004814151
1.3013670444488525,0.024609491229057312,0.3449596166610718,0.0045920610427856445,1.7923260927200317,-2.417390823364258,1.5256990194320679,-0.5551610831505,0.25724142883328605,0.9269123863539559
1.311460018157959,-0.03602592647075653,0.3577265739440918,0.018426060676574707,1.972578763961792,-2.4264919757843018,1.4109914302825928,-0.5332996658313599,0.23881766108788474,0.9381800380713884
1.3223628997802734,-0.11274124681949615,0.3808680474758148,0.04176551103591919,2.1832971572875977,-2.422159194946289,1.2738187313079834,-0.5099868764841903,0.21934823568710127,0.9478539635910459
1.3327419757843018,-0.2016696184873581,0.3936353325843811,0.07003289461135864,2.398111343383789,-2.353635549545288,1.0998914241790771,-0.48505662427111135,0.19912893751970923,0.9556826602329109
1.3413610458374023,-0.3068736791610718,0.3886433243751526,0.07500410079956055,2.5544023513793945,-2.2087628841400146,0.9154451489448547,-0.4587962265329526,0.17894031015085113,0.9615723024829262
1.3513870239257812,-0.4170735776424408,0.3900352418422699,0.06393969058990479,2.727829933166504,-2.0571343898773193,0.7192872762680054,-0.43133675431594787,0.1593293149414618,0.9656166534392887
1.3614280223846436,-0.5136939287185669,0.39838191866874695,0.06379717588424683,2.8590426445007324,-1.912310004234314,0.49326851963996887,-0.4027470438334933,0.14028587831378198,0.9676251267832984
1.3714141845703125,-0.588671088218689,0.403742253780365,0.06295889616012573,2.959530830383301,-1.7833882570266724,0.2773840129375458,-0.37334944394316355,0.12181850106861004,0.9676396537500338
1.3826260566711426,-0.6311644315719604,0.41580280661582947,0.07132411003112793,3.007617235183716,-1.703712821006775,0.055682770907878876,-0.3434258890365015,0.10375246853463407,0.9658329714565941
1.39158296585083,-0.6472852826118469,0.40290552377700806,0.09937858581542969,2.9845526218414307,-1.6446477174758911,-0.17826569080352783,-0.3135728693975463,0.08582011900588533,0.9621783338895937
1.4016408920288086,-0.6527246236801147,0.38432177901268005,0.14128994941711426,2.8952484130859375,-1.6044044494628906,-0.4048953652381897,-0.28443009660712804,0.06798189066930005,0.9567539675604074
1.411695957183838,-0.6416180729866028,0.3659062087535858,0.1924191117286682,2.7416014671325684,-1.5905107259750366,-0.6178185939788818,-0.25649539689127926,0.05012324863611502,0.9497161716142174
1.421741008758545,-0.6110530495643616,0.34909892082214355,0.23404169082641602,2.5102648735046387,-1.6021405458450317,-0.8385744094848633,-0.23048142500760185,0.03208823608804581,0.9411084702328675
1.4323768615722656,-0.570040762424469,0.3186470866203308,0.2663562297821045,2.2034029960632324,-1.6324354410171509,-1.0490596294403076,-0.2070759053431938,0.01366193295771097,0.9308366913988255
1.4414880275726318,-0.5221481919288635,0.2723379135131836,0.30807381868362427,1.8915836811065674,-1.6746526956558228,-1.2460317611694336,-0.1866448752711849,-0.005194262774701437,0.9190195116906015
1.4515109062194824,-0.47183549404144287,0.2451239675283432,0.3522653579711914,1.6110748052597046,-1.6851146221160889,-1.4075968265533447,-0.16891669493143438,-0.02437872122185815,0.9057608639597138
1.4615440368652344,-0.4235364496707916,0.231074720621109,0.3834270238876343,1.3530350923538208,-1.673088550567627,-1.5619741678237915,-0.15357675352679326,-0.04354236843423319,0.8912202721594863
1.4715580940246582,-0.3778190016746521,0.21965345740318298,0.4141958951950073,1.1206519603729248,-1.646389126777649,-1.7126680612564087,-0.1403651222383586,-0.06250274103045755,0.8753178910429888
1.4824161529541016,-0.3284756541252136,0.20332108438014984,0.45495736598968506,0.9049577116966248,-1.6054470539093018,-1.8264219760894775,-0.12899129931474768,-0.08106883421740058,0.8581904663389649
1.4916911125183105,-0.2766045331954956,0.20193156599998474,0.4878161549568176,0.7123010158538818,-1.5742546319961548,-1.917352318763733,-0.11924315088236619,-0.099231227566808,0.8400956856841091
1.501878023147583,-0.22436068952083588,0.20339441299438477,0.5237442851066589,0.5176846385002136,-1.5147804021835327,-1.9765090942382812,-0.11101193749658511,-0.11689424083007201,0.8212245653318111
1.51157808303833,-0.18576394021511078,0.19836333394050598,0.5660486221313477,0.33149418234825134,-1.407132625579834,-2.002814531326294,-0.10431600090184442,-0.13364090689965724,0.8018661737825179
1.521677017211914,-0.15805934369564056,0.1953519880771637,0.5942990779876709,0.1788175404071808,-1.273006796836853,-2.013072967529297,-0.09898376580324855,-0.14906624244908898,0.7821986220895164
1.5327458381652832,-0.1297081559896469,0.19850482046604156,0.6143168807029724,0.06973645091056824,-1.1298071146011353,-1.9908283948898315,-0.0946509779925014,-0.16299880246528775,0.7624783868455913
1.541651964187622,-0.09313526749610901,0.2112891972064972,0.6226983070373535,-0.01713799312710762,-0.9815399050712585,-1.9768340587615967,-0.09106746894234151,-0.1753924024340073,0.7428682256803739
1.551727056503296,-0.05567152798175812,0.21761390566825867,0.6155704855918884,-0.06402245908975601,-0.8138951063156128,-1.968683123588562,-0.08794989183800851,-0.1861375175108959,0.7232901214089794
1.5616819858551025,-0.0273076593875885,0.2239319086074829,0.5846480131149292,-0.09060027450323105,-0.6556903123855591,-1.9676830768585205,-0.08500833653542537,-0.19518009639102984,0.7037223523390729
1.5718188285827637,-0.005396440625190735,0.2368994653224945,0.5432297587394714,-0.08174838125705719,-0.5128058195114136,-1.9831970930099487,-0.08196363304019372,-0.2026728802473889,0.6841039268553173
1.5827040672302246,0.01237228512763977,0.24720679223537445,0.5173367261886597,-0.07354824244976044,-0.32504522800445557,-2.0086333751678467,-0.0786494199455719,-0.20852029428986138,0.6643141401368322
1.5918920040130615,0.020461544394493103,0.26230013370513916,0.5067617893218994,-0.06945714354515076,-0.10465963929891586,-2.005836009979248,-0.07521890796784625,-0.21225306767428165,0.6444314663825914
1.6021509170532227,0.03302206099033356,0.2978988289833069,0.5073963403701782,-0.04865332692861557,0.08337923884391785,-2.00130033493042,-0.07157758304504158,-0.21381010339515352,0.6246495417771658
1.6116549968719482,0.052761197090148926,0.31141892075538635,0.5150474905967712,-0.06152764707803726,0.2654491066932678,-2.0121145248413086,-0.0678445426713161,-0.21346592741150697,0.6048636031723517
1.621778964996338,0.07078021764755249,0.3030061721801758,0.509515106678009,-0.11330828070640564,0.4632612466812134,-2.0326590538024902,-0.06442424717034584,-0.21114715312015922,0.5848571391550789
1.6328370571136475,0.08470273017883301,0.29211634397506714,0.48539239168167114,-0.15572044253349304,0.6332334280014038,-2.0797600746154785,-0.0614990752837101,-0.20692601536147323,0.5644176479938678
1.6417250633239746,0.0992138683795929,0.25961199402809143,0.43200933933258057,-0.16444389522075653,0.7642473578453064,-2.1528306007385254,-0.05882708274512002,-0.201179355746046,0.543307489997876
1.6518678665161133,0.10980594158172607,0.2366546392440796,0.36029529571533203,-0.08514901995658875,0.8491118550300598,-2.2124905586242676,-0.05579374512597402,-0.1943351463778332,0.5215550006621328
1.6617798805236816,0.11650757491588593,0.2517048120498657,0.27961087226867676,-0.018900755792856216,0.8895103931427002,-2.2332851886749268,-0.0520907316816742,-0.1867984073882549,0.4995477775246162
1.671800136566162,0.12388022243976593,0.27340540289878845,0.2079066038131714,0.06839696317911148,0.8828614354133606,-2.233848810195923,-0.047779778532004845,-0.17899274001520654,0.4775654165134252
1.682650089263916,0.1308365762233734,0.2762261629104614,0.18422025442123413,0.12432440370321274,0.8790562748908997,-2.2032434940338135,-0.04295515397115517,-0.1712274214953759,0.4558189714408735
1.6919360160827637,0.1336614340543747,0.26129817962646484,0.19825094938278198,0.17341303825378418,0.9458462595939636,-2.1249682903289795,-0.037874680156332025,-0.16294018973353527,0.4346649647774563
1.7019469738006592,0.13587817549705505,0.2689409554004669,0.2263590693473816,0.19116328656673431,0.9520940184593201,-2.0538878440856934,-0.03274641535896916,-0.15410200948016373,0.4143096442807931
1.7118959426879883,0.15603862702846527,0.24261072278022766,0.2475605010986328,0.11725509911775589,0.8568605184555054,-2.0147829055786133,-0.028129685668335493,-0.14557757827494908,0.39441558051059356
1.7220489978790283,0.18129582703113556,0.18471498787403107,0.2711750268936157,-0.037111300975084305,0.6881809830665588,-2.0034139156341553,-0.024851789080491425,-0.1383528609709773,0.37458613777572625
1.7327051162719727,0.193167582154274,0.1201433539390564,0.29272526502609253,-0.211687371134758,0.5177293419837952,-2.0058557987213135,-0.02338294938882635,-0.13281818399041617,0.35451884694514924
1.7417101860046387,0.17765921354293823,0.06480817496776581,0.285256564617157,-0.4176535904407501,0.3811427056789398,-1.9902724027633667,-0.023847655603713623,-0.12881154335149708,0.33427419753504556
1.7518630027770996,0.1395026445388794,0.0467042550444603,0.2238614559173584,-0.6037909388542175,0.2689288258552551,-1.9481263160705566,-0.02646473575180443,-0.1260865500334755,0.3140557846439228
1.761713981628418,0.09711390733718872,0.05690371245145798,0.18068444728851318,-0.777541995048523,0.21791251003742218,-1.8885223865509033,-0.03094608390400197,-0.12428744387171943,0.2940884718603143
1.7717909812927246,0.05796342343091965,0.09467292577028275,0.20608508586883545,-0.9036679267883301,0.30785518884658813,-1.7586349248886108,-0.03709522915075611,-0.12239390916188904,0.2748783850475666
1.783069133758545,0.038324907422065735,0.16841231286525726,0.28406888246536255,-0.9615830183029175,0.40724000334739685,-1.6114314794540405,-0.044340259004737176,-0.11949099734305277,0.2570237217197471
1.7919859886169434,0.06878349930047989,0.19507695734500885,0.29938769340515137,-1.0476723909378052,0.3793196678161621,-1.5674134492874146,-0.05245992554841747,-0.11630908910453162,0.24009746061413273
1.8021240234375,0.13092318177223206,0.15679675340652466,0.2781764268875122,-1.173873782157898,0.2986237406730652,-1.5959858894348145,-0.06170247734797561,-0.11388362433992107,0.2230797197843053
1.8119449615478516,0.1770910620689392,0.11940338462591171,0.26691919565200806,-1.267678141593933,0.2515237033367157,-1.6221191883087158,-0.07204992992507787,-0.11235636460014119,0.20564751384198396
1.821929931640625,0.18183057010173798,0.11260826140642166,0.20718169212341309,-1.3672540187835693,0.28187522292137146,-1.6594072580337524,-0.08333472652470317,-0.11110899923188935,0.1878072290621146
1.8323800563812256,0.1458066999912262,0.10179662704467773,0.10968971252441406,-1.4581308364868164,0.35160547494888306,-1.7057768106460571,-0.0955533111654336,-0.10959867562275864,0.1694252557030837
1.8422770500183105,0.09200440347194672,0.09871261566877365,0.05405104160308838,-1.4878040552139282,0.41721510887145996,-1.7236738204956055,-0.10839343695847815,-0.10764370937191542,0.15062177188562212
1.852065086364746,0.03924848884344101,0.11724647879600525,0.067466139793396,-1.456352949142456,0.44396933913230896,-1.6777645349502563,-0.12125540572646687,-0.10544793631163203,0.13195590646193245
1.8620610237121582,-0.0024864375591278076,0.14096719026565552,0.11824339628219604,-1.4044604301452637,0.5263984799385071,-1.5923523902893066,-0.13381536995428422,-0.10295372277547055,0.11400409166973828
1.872143030166626,-0.033945657312870026,0.1586698293685913,0.17101669311523438,-1.2885178327560425,0.7094927430152893,-1.4611276388168335,-0.1457549963020841,-0.09913250865952496,0.09725195327891568
1.8832969665527344,-0.05553758144378662,0.19062507152557373,0.17265170812606812,-1.0201992988586426,0.8956170678138733,-1.370140552520752,-0.15601540255321927,-0.09339006240284096,0.08188497045087823
1.8921749591827393,-0.04921504110097885,0.20411936938762665,0.11434245109558105,-0.6670476794242859,1.0228567123413086,-1.3417574167251587,-0.16324286116192313,-0.08603614149478853,0.06744574577871613
1.9033880233764648,-0.024843789637088776,0.23934681713581085,0.04479694366455078,-0.33941787481307983,1.0375897884368896,-1.3633979558944702,-0.16709991976754845,-0.07797423962177567,0.05336419915242964
1.9123690128326416,0.02300967276096344,0.275659441947937,-0.0016374588012695312,-0.11638759821653366,0.9871101379394531,-1.3908520936965942,-0.16832583292781406,-0.07018575146941239,0.039222385637489456
1.9225449562072754,0.06462595611810684,0.2624935507774353,-0.02087193727493286,0.08703769743442535,0.9566494226455688,-1.3977205753326416,-0.16750312367940676,-0.06286101837396003,0.025084146428244525
1.9333419799804688,0.06755254417657852,0.24012377858161926,-0.038567304611206055,0.15344339609146118,0.9924511909484863,-1.4022516012191772,-0.16536828305473633,-0.055489734983964235,0.010963920372334013
1.9430739879608154,0.04060574620962143,0.22466400265693665,-0.0779924988746643,0.07958035916090012,1.0620267391204834,-1.3831305503845215,-0.16343751792908495,-0.047512648999119576,-0.003095505748052326
1.953904151916504,0.01687866821885109,0.18084551393985748,-0.10185742378234863,-0.0872100442647934,1.1346375942230225,-1.365977168083191,-0.1628141509040721,-0.038778670327084035,-0.017013611583789695
1.962143898010254,0.01507878303527832,0.11278755962848663,-0.11183720827102661,-0.33671921491622925,1.1685161590576172,-1.3865383863449097,-0.1644572959181324,-0.029488450536267304,-0.031016179432873072
1.9720799922943115,0.03769383579492569,0.06199614703655243,-0.11201179027557373,-0.5367257595062256,1.1196190118789673,-1.4315427541732788,-0.168521453788986,-0.02037522185953165,-0.04541596474816314
1.9824471473693848,0.08576808124780655,0.027860179543495178,-0.09373319149017334,-0.7631669044494629,1.0170036554336548,-1.4680118560791016,-0.17474906060657042,-0.012193095073267863,-0.06025310047437658
1.9921729564666748,0.14068299531936646,0.023868486285209656,-0.10863155126571655,-1.067619800567627,0.855278491973877,-1.5255776643753052,-0.18375259811672576,-0.005506556318772046,-0.07554733467221789
2.0022878646850586,0.1869395226240158,-0.0023375600576400757,-0.11345022916793823,-1.3434324264526367,0.6776211261749268,-1.5673201084136963,-0.1958634741056013,-0.0008597742853456253,-0.09137567515595092
2.0134739875793457,0.19854827225208282,-0.044641077518463135,-0.0984918475151062,-1.5244216918945312,0.6130099296569824,-1.5647635459899902,-0.21028035080377686,0.0022770353184181557,-0.10740759098678437
2.022271156311035,0.16992639005184174,-0.019028574228286743,-0.13870465755462646,-1.6107754707336426,0.640474796295166,-1.509482741355896,-0.22612028010479,0.005115337957491815,-0.12312239005308324
2.033320903778076,0.1321127712726593,0.03740119934082031,-0.2161405086517334,-1.5120680332183838,0.7039008736610413,-1.4795926809310913,-0.24200805432552397,0.00828059752540039,-0.13836044219225943
2.0422279834747314,0.11889573186635971,0.05703604221343994,-0.2919085621833801,-1.2630640268325806,0.7770882248878479,-1.4780299663543701,-0.25607134116675473,0.01198862506927768,-0.1534875182852958
2.0523159503936768,0.1304025501012802,0.09122338891029358,-0.38198035955429077,-1.0050487518310547,0.7526758313179016,-1.4528907537460327,-0.2676586847814995,0.015821852639774994,-0.16855698942566247
2.0622658729553223,0.17687873542308807,0.12329614162445068,-0.4292784333229065,-0.7228706479072571,0.6658032536506653,-1.3804112672805786,-0.27653131183407503,0.01898841954562228,-0.18312905330286217
2.072287082672119,0.22846750915050507,0.10961449146270752,-0.43548792600631714,-0.5261428952217102,0.611073911190033,-1.2925961017608643,-0.28303482835876065,0.02155236672311322,-0.19694545923245443
2.0827059745788574,0.24610134959220886,0.10576486587524414,-0.4470866322517395,-0.37933534383773804,0.539257824420929,-1.193847417831421,-0.2878100445160129,0.023689240131495003,-0.20979735544109976
2.0923070907592773,0.2472410351037979,0.08119836449623108,-0.41552984714508057,-0.316423237323761,0.4680234491825104,-1.1201198101043701,-0.2915197626573095,0.025298026584598562,-0.22177677393500395
2.102509021759033,0.23582899570465088,0.013942301273345947,-0.35089749097824097,-0.3373626172542572,0.4198002517223358,-1.0739861726760864,-0.295021541162349,0.026487785055487024,-0.2331237856682779
2.1125130653381348,0.21555936336517334,-0.06013879179954529,-0.28114986419677734,-0.4718702435493469,0.3637256920337677,-1.04456627368927,-0.2993458804973502,0.027120181014726682,-0.24414003309713048
2.1228790283203125,0.18906176090240479,-0.12902745604515076,-0.20504248142242432,-0.5233579874038696,0.37796613574028015,-1.0045593976974487,-0.3049189225614384,0.02746415745786687,-0.254748240305677
2.133172035217285,0.15703529119491577,-0.17491623759269714,-0.15775293111801147,-0.6169422268867493,0.4174787402153015,-1.1455693244934082,-0.3106888649385054,0.028218188717265773,-0.2658339601754168
2.142332077026367,0.12137863039970398,-0.18760526180267334,-0.1356445550918579,-0.46366530656814575,0.5134654641151428,-1.0510047674179077,-0.31645701599410136,0.02963309042767219,-0.27728504676690324
2.152438163757324,0.1109791100025177,-0.16553962230682373,-0.12924808263778687,-0.3900373876094818,0.5886131525039673,-1.1054461002349854,-0.32105098827249223,0.03147254763562264,-0.288360098772753
2.162447929382324,0.1396065354347229,-0.2171323001384735,-0.12827461957931519,-0.22686229646205902,0.6466514468193054,-1.2024517059326172,-0.3246258718575658,0.03389221177608263,-0.30057878938637256
2.172394037246704,0.14366671442985535,-0.20422101020812988,-0.11676466464996338,-0.06526809185743332,0.6189099550247192,-1.0818696022033691,-0.32645931802199607,0.03631359563041263,-0.3126754168541097
2.1828160285949707,0.19955973327159882,-0.13206079602241516,-0.11261045932769775,0.0931476503610611,0.5999642014503479,-1.0006253719329834,-0.3267316971113706,0.038896476597299945,-0.32361370647894916
2.1923880577087402,0.24870359897613525,-0.07941707968711853,-0.10973721742630005,0.2580065131187439,0.5996047258377075,-0.9249579310417175,-0.3253455235199009,0.04160691058537812,-0.33387793197574894
2.202409029006958,0.26364368200302124,-0.11230245232582092,-0.14632397890090942,0.3710113763809204,0.5630815625190735,-0.8068491220474243,-0.32256371947792617,0.044497063348955965,-0.34320688208353967
2.2123851776123047,0.29096296429634094,-0.14657309651374817,-0.18551647663116455,0.43766316771507263,0.5597031712532043,-0.7344826459884644,-0.31883287056150644,0.047475707203738636,-0.3514378580239244
2.2227821350097656,0.30904892086982727,-0.17360934615135193,-0.22196513414382935,0.48226073384284973,0.5348625183105469,-0.6536983251571655,-0.31457523551708055,0.050585912110610365,-0.3590254135721244
2.233595848083496,0.31697195768356323,-0.1783856749534607,-0.2406221628189087,0.48571330308914185,0.45347946882247925,-0.5443811416625977,-0.31000578152709546,0.0535397211155754,-0.36560719340519027
2.242568016052246,0.34674516320228577,-0.18584078550338745,-0.2316538691520691,0.3906160891056061,0.3297918736934662,-0.40553826093673706,-0.3058359309258017,0.05586900828258528,-0.37088253450382974
2.2528860569000244,0.3672744631767273,-0.2204817831516266,-0.18940186500549316,0.23608815670013428,0.233877494931221,-0.2700932025909424,-0.30288080251585975,0.05753991456906128,-0.37456408020009097
2.262606143951416,0.3563118577003479,-0.27201148867607117,-0.1386743187904358,0.07193464040756226,0.17484374344348907,-0.17353923618793488,-0.3014751004890895,0.05888233917890544,-0.3769740461362504
2.272524833679199,0.3274362087249756,-0.30897048115730286,-0.10873651504516602,-0.0730835497379303,0.09571948647499084,-0.060912176966667175,-0.3015892615743927,0.05989927817556136,-0.3782165199624776
2.283262014389038,0.3173522353172302,-0.3042571544647217,-0.08298850059509277,-0.17782807350158691,-0.002802024595439434,0.04486565291881561,-0.3028696516948367,0.06033742873511122,-0.37822123415398917
2.292814016342163,0.3204711079597473,-0.2777308225631714,-0.06267720460891724,-0.24391315877437592,-0.06765217334032059,0.16309833526611328,-0.3049576711970307,0.06033857116355451,-0.37700973742755123
2.3027591705322266,0.3131166398525238,-0.2187546193599701,-0.06278771162033081,-0.25100597739219666,-0.13163967430591583,0.3079972267150879,-0.30729307807336803,0.06012628936254372,-0.37439620444462013
2.3126320838928223,0.3120270371437073,-0.1595097780227661,-0.061698198318481445,-0.2807478606700897,-0.20353765785694122,0.4442138969898224,-0.30971658866252494,0.059713904910837674,-0.3702700409277172
2.3230061531066895,0.3226129412651062,-0.13488897681236267,-0.052669525146484375,-0.3399536609649658,-0.2962619960308075,0.5591378211975098,-0.31248067888338027,0.058887446965123845,-0.36480835930477346
2.33292818069458,0.33612072467803955,-0.13934630155563354,-0.035387516021728516,-0.44196075201034546,-0.3886154592037201,0.6607984304428101,-0.3160122958078924,0.057503939757814676,-0.35815138913301975
2.342708110809326,0.3444516658782959,-0.15776357054710388,-0.018739819526672363,-0.5747906565666199,-0.47218838334083557,0.7358577847480774,-0.32068744091039847,0.05558003217910929,-0.3504777271141968
2.3527750968933105,0.3383927047252655,-0.18064260482788086,-0.0015996694564819336,-0.7186697125434875,-0.5395524501800537,0.7873860597610474,-0.3267294102114391,0.053193297776818076,-0.3420751662907124
2.362652063369751,0.3225928843021393,-0.19585207104682922,0.010480403900146484,-0.831243097782135,-0.5918359160423279,0.8511450886726379,-0.3340815629166123,0.05045623675804125,-0.3330044070214906
2.3728151321411133,0.3121640682220459,-0.18672063946723938,0.012442588806152344,-0.8885461688041687,-0.6291296482086182,0.9346028566360474,-0.3422751885213953,0.047641575782569584,-0.32310941741232563
2.3829431533813477,0.3110198974609375,-0.15179768204689026,0.004033088684082031,-0.8685545921325684,-0.6826229691505432,1.0442484617233276,-0.3506508500959179,0.044809233873758084,-0.31214607791232557
2.39274001121521,0.3226492404937744,-0.10986590385437012,-0.006333053112030029,-0.781161367893219,-0.7383984923362732,1.1311769485473633,-0.3584439034002398,0.04188655564814581,-0.30014151225437935
2.4028160572052,0.3373285233974457,-0.08036404848098755,-0.025063753128051758,-0.61245197057724,-0.806695282459259,1.2104054689407349,-0.364978912671258,0.03868765198324394,-0.2873227523306715
2.4128308296203613,0.3481966555118561,-0.054987549781799316,-0.04273343086242676,-0.38176053762435913,-0.8645068407058716,1.2998323440551758,-0.3695227518594292,0.03521432730070648,-0.27368360578250134
2.4228148460388184,0.36215612292289734,-0.00887143611907959,-0.07007700204849243,-0.1348002851009369,-0.9478400349617004,1.4020735025405884,-0.371613732352518,0.031476739303593286,-0.25907727148385173
2.432900905609131,0.38025254011154175,0.04555094242095947,-0.10177171230316162,0.08422406762838364,-1.0612291097640991,1.4779080152511597,-0.3714069557380906,0.027035119079325716,-0.24359880227779637
2.442754030227661,0.39635446667671204,0.06432473659515381,-0.12272435426712036,0.22552579641342163,-1.1493337154388428,1.5688738822937012,-0.369420468441538,0.02185429091563811,-0.22730545377308328
2.4527878761291504,0.4061529338359833,0.07089149951934814,-0.15508532524108887,0.3227052092552185,-1.231720209121704,1.6704237461090088,-0.3663402598501269,0.016170079244821122,-0.209977550315941
2.462730884552002,0.40743470191955566,0.08441781997680664,-0.17973065376281738,0.3675174117088318,-1.300237774848938,1.7535622119903564,-0.36257646268491933,0.010026390067281192,-0.19166418365186733
2.472820997238159,0.3971295952796936,0.08306640386581421,-0.19114035367965698,0.3488894999027252,-1.3552323579788208,1.8216819763183594,-0.35883480300119935,0.003466562873160644,-0.17256934604811028
2.483337879180908,0.3807745575904846,0.07529833912849426,-0.17855393886566162,0.31117063760757446,-1.3899251222610474,1.8925660848617554,-0.355481188281615,-0.0033438751799788635,-0.15271793153102842
2.492755889892578,0.36500483751296997,0.060329318046569824,-0.15618616342544556,0.2519875466823578,-1.4029241800308228,1.95210862159729,-0.3527645749303173,-0.01017826511501985,-0.1321601218570218
2.502790927886963,0.34930670261383057,0.06189858913421631,-0.14099335670471191,0.2208898365497589,-1.4149479866027832,1.9956248998641968,-0.35062163811348895,-0.016998148251140755,-0.11104807453751064
2.5128321647644043,0.3370153307914734,0.059063345193862915,-0.13859856128692627,0.13902994990348816,-1.425841212272644,2.018554449081421,-0.3491729189370533,-0.023834757054981368,-0.08961428158733879
2.522834062576294,0.3247282803058624,0.06285876035690308,-0.14271163940429688,0.060303185135126114,-1.4528014659881592,2.038968324661255,-0.3486738164332116,-0.03081046881850361,-0.06795775115022641
2.533154010772705,0.30745798349380493,0.06574028730392456,-0.11529207229614258,-0.02820003218948841,-1.4591964483261108,2.035161018371582,-0.34911478758214254,-0.03796735310757448,-0.04624622887457491
2.543184995651245,0.27607446908950806,0.05689436197280884,-0.0826985239982605,-0.12720011174678802,-1.4355462789535522,2.0613787174224854,-0.35063717034821545,-0.04493614841516532,-0.02448400534894093
2.5529839992523193,0.23617064952850342,0.07986637949943542,-0.05313783884048462,-0.15366651117801666,-1.4209805727005005,2.097769021987915,-0.35290470964102183,-0.051532138959386055,-0.0023550793168588113
2.5629310607910156,0.20423561334609985,0.0999445915222168,-0.016697049140930176,-0.16198036074638367,-1.3783942461013794,2.0924906730651855,-0.3554125352160981,-0.05775954740866397,0.01993161171248988
2.574399948120117,0.16302672028541565,0.1084757149219513,0.006272852420806885,-0.13512414693832397,-1.2963817119598389,2.105573892593384,-0.3580000973935972,-0.0632885428305679,0.04222357865849352
2.583259105682373,0.12547509372234344,0.14231091737747192,0.011944770812988281,-0.0297471284866333,-1.2091556787490845,2.139437198638916,-0.3600956880619022,-0.06779938433331996,0.06484390578349274
2.5929689407348633,0.10624793916940689,0.18824225664138794,0.01091843843460083,0.12939277291297913,-1.135240077972412,2.1485483646392822,-0.3609247854658895,-0.07135087873888374,0.08781451110194825
2.6029820442199707,0.09110906720161438,0.24326211214065552,-0.010659098625183105,0.29097530245780945,-1.0795626640319824,2.175713300704956,-0.36025975834382834,-0.07414264810914672,0.11105551145058422
2.612916946411133,0.08296012878417969,0.30643609166145325,-0.02318626642227173,0.4865208566188812,-1.0469377040863037,2.2099416255950928,-0.35789370841604107,-0.07637944600571993,0.13480093175022867
2.622931957244873,0.07108578830957413,0.34163016080856323,-0.007499992847442627,0.6462727189064026,-0.9802103638648987,2.2315514087677,-0.35379998860092376,-0.07810346837334714,0.158939704834316
2.63333797454834,0.04504726082086563,0.35123324394226074,-3.737211227416992e-05,0.7221810817718506,-0.9086093902587891,2.265906810760498,-0.34869151717637614,-0.07908961566915186,0.18343406031075574
2.642937183380127,0.020366571843624115,0.3595154583454132,0.012133896350860596,0.7567225098609924,-0.873564600944519,2.2845816612243652,-0.3430507360489236,-0.07955487863750015,0.20825309148846816
2.6530041694641113,0.008638724684715271,0.3304235339164734,0.05068230628967285,0.7147625684738159,-0.8589233160018921,2.274740695953369,-0.33749164397498194,-0.07994003154902035,0.23301759443312262
2.662961006164551,0.00014925003051757812,0.2976013422012329,0.08500558137893677,0.643929660320282,-0.855417013168335,2.2586193084716797,-0.332467424694494,-0.08044190300168588,0.25756365679833054
2.673107147216797,-0.0036785081028938293,0.2809441089630127,0.1202552318572998,0.5465418696403503,-0.8665155172348022,2.2574546337127686,-0.32838051680456615,-0.08113994027592578,0.28187514429828914
2.683380126953125,0.005955502390861511,0.2848685383796692,0.13777756690979004,0.5429806709289551,-0.9108845591545105,2.244025707244873,-0.3248009097404307,-0.08225903635848857,0.30607581044666715
2.6930599212646484,0.024173498153686523,0.292847216129303,0.11790734529495239,0.5467671751976013,-0.9716092348098755,2.2192423343658447,-0.32123047676591043,-0.08404754633667139,0.3300235423367325
2.7030320167541504,0.03737667202949524,0.32058945298194885,0.057645201683044434,0.6213833689689636,-1.0705482959747314,2.2121663093566895,-0.3173233665574032,-0.08676424384823003,0.35383842249332625
2.7130441665649414,0.04369116574525833,0.33900538086891174,0.022925376892089844,0.6875222325325012,-1.155148983001709,2.202592134475708,-0.3127029304063436,-0.09054279780966194,0.3776034044230325
2.723024845123291,0.043081119656562805,0.309985488653183,-0.003037393093109131,0.7063801288604736,-1.2385408878326416,2.2394821643829346,-0.307813197514724,-0.09519289538974594,0.4014950334812267
2.733275890350342,0.04146484285593033,0.2867094874382019,0.0026910901069641113,0.6998982429504395,-1.3387391567230225,2.2988498210906982,-0.30300410867411637,-0.10073612357173324,0.42593369854735
2.743159055709839,0.05199938267469406,0.2483062446117401,0.05755561590194702,0.7036274671554565,-1.4350990056991577,2.366851329803467,-0.2984796560622221,-0.10716562268198887,0.45101478844336346
2.753249168395996,0.06726725399494171,0.208616703748703,0.10597872734069824,0.682361364364624,-1.5712391138076782,2.425034761428833,-0.29420543175885194,-0.11463893185648776,0.4767751545434693
2.7634689807891846,0.09272901713848114,0.17629852890968323,0.1178939938545227,0.6548783779144287,-1.749661922454834,2.4649510383605957,-0.29050858086260023,-0.12368021778945956,0.5029948096461843
2.7732648849487305,0.11308102309703827,0.14542365074157715,0.14093971252441406,0.6534534692764282,-1.8916741609573364,2.511652946472168,-0.28723599966785784,-0.13435356657550993,0.5296318378397095
2.7833659648895264,0.11430241167545319,0.13063594698905945,0.16918212175369263,0.689397394657135,-1.9807335138320923,2.5746560096740723,-0.2842004417784327,-0.1460334508057947,0.556896456158585
2.7931718826293945,0.09894759953022003,0.16223183274269104,0.1796969771385193,0.8026406764984131,-2.0640408992767334,2.6296842098236084,-0.28078969903652934,-0.15844719196692836,0.5849039830514922
2.803463935852051,0.088804230093956,0.18729817867279053,0.18670886754989624,0.9041147828102112,-2.131837844848633,2.6715590953826904,-0.2768099128185093,-0.17151982380549718,0.6136127763977991
2.813081979751587,0.0832013338804245,0.19960731267929077,0.17676663398742676,1.042373538017273,-2.185850143432617,2.6922545433044434,-0.2720116514031187,-0.18514185188787988,0.6428889319649841
2.823173999786377,0.07875749468803406,0.20565640926361084,0.16243940591812134,1.171180248260498,-2.242469549179077,2.69779372215271,-0.26636968843411146,-0.19926794216343732,0.6726168530474473
2.833353042602539,0.06600970029830933,0.21594059467315674,0.15248650312423706,1.1979634761810303,-2.3067057132720947,2.699428081512451,-0.260348764621121,-0.21411536370007134,0.7025764785272263
2.8431501388549805,0.046304985880851746,0.214348703622818,0.17486512660980225,1.148674726486206,-2.3299195766448975,2.6926941871643066,-0.2548626358114108,-0.22958747186255477,0.7325431038405282
2.8533170223236084,0.012004435062408447,0.18373003602027893,0.24482619762420654,0.9768307209014893,-2.305232048034668,2.64310622215271,-0.2508537075869933,-0.2453261829393787,0.7620053956305088
2.8631839752197266,-0.03915828466415405,0.1456623673439026,0.31559252738952637,0.7501211762428284,-2.266530990600586,2.5347578525543213,-0.2489765961355118,-0.2612090298855032,0.7902043363085023
2.8732850551605225,-0.09370079636573792,0.10635107755661011,0.3617345690727234,0.445654034614563,-2.180103063583374,2.377474069595337,-0.24975292007748406,-0.27701759909404805,0.8163349606614646
2.883553981781006,-0.14690986275672913,0.06023457646369934,0.3732442259788513,0.15374815464019775,-2.072281837463379,2.1951725482940674,-0.253318041334389,-0.29243564578533554,0.8398931081728389
2.893333911895752,-0.20134761929512024,0.04300427436828613,0.3690272569656372,-0.08990414440631866,-1.9576358795166016,2.0315380096435547,-0.2593312342063151,-0.3072771004613104,0.8608587372576573
2.9033889770507812,-0.24322089552879333,0.06237480044364929,0.34378910064697266,-0.23133638501167297,-1.85040283203125,1.8642127513885498,-0.26694079879570815,-0.32146673753684246,0.8795385712397273
2.913477897644043,-0.2753155827522278,0.09983479976654053,0.3236340284347534,-0.26891976594924927,-1.749138593673706,1.6794801950454712,-0.27511300738372163,-0.3350328793909242,0.8961288662969429
2.9234471321105957,-0.30662181973457336,0.1414048671722412,0.32012689113616943,-0.2028278410434723,-1.6376557350158691,1.4778141975402832,-0.2827104495015089,-0.3479568002820937,0.9107869769087749
2.9335579872131348,-0.3436208665370941,0.182559072971344,0.33312731981277466,-0.09164810180664062,-1.4984649419784546,1.2685582637786865,-0.28886396314227475,-0.36003986224621554,0.9237042906369132
2.9433860778808594,-0.3864229917526245,0.21458503603935242,0.3339272141456604,0.014518018811941147,-1.3208520412445068,1.0502794981002808,-0.2933901384714239,-0.3709615618278437,0.934883399429991
2.9534130096435547,-0.43344804644584656,0.2224419116973877,0.3378260135650635,0.11905117332935333,-1.109695553779602,0.8485082387924194,-0.2962620423487328,-0.3803766540556806,0.9443646369723698
2.9634060859680176,-0.47012755274772644,0.22873663902282715,0.33497893810272217,0.22725380957126617,-0.9226348996162415,0.6465575098991394,-0.29749820695765206,-0.3881920042626975,0.9523066439062995
2.973428964614868,-0.4808972179889679,0.23537233471870422,0.3083266019821167,0.309212863445282,-0.7476919293403625,0.44425544142723083,-0.2970533248704475,-0.3946997979589573,0.9586591119783325
2.983436107635498,-0.48458734154701233,0.2172451913356781,0.27126455307006836,0.35663577914237976,-0.573046088218689,0.27473193407058716,-0.295361914237597,-0.39988396778211205,0.9634742200578774
2.993433952331543,-0.47340136766433716,0.18864405155181885,0.24777758121490479,0.3582211136817932,-0.42377012968063354,0.13475468754768372,-0.29283338606069614,-0.40385617330351514,0.9669049590066203
3.003467082977295,-0.43813344836235046,0.15645942091941833,0.23407596349716187,0.3721664845943451,-0.3273434638977051,0.02808257006108761,-0.2898266177655583,-0.4069244272222234,0.9691677963127906
3.013810157775879,-0.38459205627441406,0.14078432321548462,0.2148469090461731,0.387812077999115,-0.2806302011013031,-0.08430054038763046,-0.28621856209109015,-0.40956388958758155,0.9704907929227022
3.02333402633667,-0.32332539558410645,0.11761900782585144,0.18224281072616577,0.36361220479011536,-0.2443007081747055,-0.19722868502140045,-0.28218343903853355,-0.4121398088924557,0.9707131062031443
3.033517837524414,-0.27647849917411804,0.08387959003448486,0.14792782068252563,0.3002990186214447,-0.18128055334091187,-0.27737176418304443,-0.2781686475131159,-0.4145313358736569,0.9698198599219496
3.0432989597320557,-0.24796342849731445,0.04554241895675659,0.13462722301483154,0.2527610659599304,-0.1143939346075058,-0.32905149459838867,-0.27443297498216435,-0.4164868376263148,0.968075993857607
3.0535359382629395,-0.22263026237487793,0.02950635552406311,0.12709194421768188,0.23057378828525543,-0.047025278210639954,-0.36942172050476074,-0.27085127196616654,-0.4179187493452395,0.9657589389347908
3.06331205368042,-0.19918715953826904,0.03320503234863281,0.09594345092773438,0.3290635943412781,0.021201444789767265,-0.41007834672927856,-0.26677738064242557,-0.41874251912664134,0.9631979932195792
3.073531150817871,-0.18061718344688416,0.04176470637321472,0.044868290424346924,0.478103369474411,0.10682953149080276,-0.4412354826927185,-0.26137199902101343,-0.4187322445875983,0.9608488421164648
3.083287000656128,-0.16227343678474426,0.06598314642906189,-0.041930556297302246,0.6476458311080933,0.17902915179729462,-0.46276208758354187,-0.2543941105251856,-0.4177618354367987,0.9589328412012773
3.093502998352051,-0.13815036416053772,0.0883704125881195,-0.10187232494354248,0.7779899835586548,0.19860684871673584,-0.4718913733959198,-0.2459341462858412,-0.4162001844525518,0.9575120064524791
3.1033520698547363,-0.10635745525360107,0.08164308965206146,-0.10535162687301636,0.8387894034385681,0.1809367835521698,-0.47233399748802185,-0.23658249618505003,-0.41452556266698687,0.9564503278852238
3.113555908203125,-0.08704167604446411,0.07520784437656403,-0.07242637872695923,0.7953974604606628,0.16137492656707764,-0.49817031621932983,-0.22707738153178286,-0.41309282395775,0.9553062486329178
3.1233649253845215,-0.08972910046577454,0.04121945798397064,-0.02087855339050293,0.6575613021850586,0.15986225008964539,-0.5356388688087463,-0.2183233245569327,-0.41191582144644445,0.9534449238223072
3.1340999603271484,-0.1128159761428833,-0.0029149502515792847,0.03411054611206055,0.4629954397678375,0.16881079971790314,-0.6022771596908569,-0.21088011822212152,-0.41091794780734087,0.9504232260722686
3.1437740325927734,-0.14289164543151855,-0.04004037380218506,0.08133935928344727,0.25205177068710327,0.17687617242336273,-0.6998583078384399,-0.20501728503739516,-0.4101577120613242,0.9457871580015088
3.153998851776123,-0.17855602502822876,-0.0519387423992157,0.11095243692398071,0.030560817569494247,0.21319739520549774,-0.7959914803504944,-0.20074525923087197,-0.40953299244810326,0.9393341052970613
3.1633758544921875,-0.20861893892288208,-0.03420834243297577,0.11670011281967163,-0.135665163397789,0.27426472306251526,-0.8856268525123596,-0.1979279470841243,-0.40870588690908555,0.9312215897781827
3.1737220287323,-0.23597672581672668,-0.0004843473434448242,0.12208068370819092,-0.22289979457855225,0.34283843636512756,-0.9742994904518127,-0.19593422322386114,-0.40748427767548395,0.9217516269989919
3.183414936065674,-0.25976812839508057,0.03895352780818939,0.13630402088165283,-0.23492902517318726,0.4183608889579773,-1.0624672174453735,-0.19404290570825064,-0.405711419836198,0.9112595194322967
3.193725109100342,-0.26739493012428284,0.09312036633491516,0.13925856351852417,-0.19175021350383759,0.4872604310512543,-1.1495177745819092,-0.19166611222771487,-0.40333393076919377,0.900017682632504
3.203521966934204,-0.26242902874946594,0.1409793347120285,0.14839184284210205,-0.12541672587394714,0.551036536693573,-1.228857398033142,-0.18848867318563226,-0.40038023491646907,0.8882040454325494
3.2165720462799072,-0.2520281672477722,0.1655699759721756,0.1676936149597168,-0.04965418949723244,0.613947331905365,-1.2900569438934326,-0.1843959560518953,-0.39681392177822034,0.8760296821855196
3.2235031127929688,-0.24113333225250244,0.17447766661643982,0.18341785669326782,0.023058360442519188,0.6812089085578918,-1.3400599956512451,-0.17945020655107688,-0.3926029230406748,0.8636113935177765
3.234285831451416,-0.22741249203681946,0.17654675245285034,0.19103902578353882,0.09056488424539566,0.7420184016227722,-1.3778131008148193,-0.17375246582011464,-0.3876800530532806,0.8510474399275214
3.243494987487793,-0.20904219150543213,0.17983676493167877,0.19743144512176514,0.14514850080013275,0.7808235883712769,-1.4048515558242798,-0.16742567316661994,-0.382208541434477,0.8383904375569909
3.2537660598754883,-0.18772682547569275,0.16966518759727478,0.22145730257034302,0.16454830765724182,0.8139349818229675,-1.434665560722351,-0.16069160951199848,-0.37633505049891963,0.8255993316851473
3.2636828422546387,-0.17194518446922302,0.15173085033893585,0.25193077325820923,0.11584548652172089,0.8589687943458557,-1.471649408340454,-0.15405354694998966,-0.37003695792219277,0.8124125863922521
3.273733139038086,-0.16287893056869507,0.1371316760778427,0.284725546836853,0.008221791125833988,0.8950461745262146,-1.5053437948226929,-0.14810770931703654,-0.3633430639441038,0.7985572434479021
3.283735990524292,-0.15407729148864746,0.12561088800430298,0.3158973455429077,-0.1068805679678917,0.92350172996521,-1.5295524597167969,-0.14321930232634272,-0.3563639670717612,0.7840012586848307
3.2937378883361816,-0.1390710175037384,0.11989004909992218,0.3334643244743347,-0.24535046517848969,0.963802695274353,-1.5630091428756714,-0.13951906741819012,-0.349082480723545,0.7687153177949737
3.3037819862365723,-0.12599164247512817,0.12537260353565216,0.3310481905937195,-0.37679874897003174,1.0104492902755737,-1.6114089488983154,-0.13709563123251464,-0.3414327369803555,0.7525505497502039
3.315298080444336,-0.11877316236495972,0.1350722312927246,0.32763922214508057,-0.4686615467071533,1.079208493232727,-1.6641120910644531,-0.1356836892711897,-0.33330290870970203,0.7355036664876999
3.323793888092041,-0.11021310091018677,0.14969030022621155,0.3113362789154053,-0.5318916440010071,1.1501489877700806,-1.7014541625976562,-0.13497516077249658,-0.3245480657385323,0.7177921101179112
3.33414888381958,-0.09429341554641724,0.18172802031040192,0.27439093589782715,-0.6258940100669861,1.2036787271499634,-1.7668832540512085,-0.13504254276069533,-0.31522858108359914,0.6993235106915254
3.343952178955078,-0.07443559169769287,0.20034536719322205,0.2630992531776428,-0.6710782647132874,1.244720697402954,-1.821515440940857,-0.1357646879215737,-0.3055953245571587,0.6800396374927516
3.3546881675720215,-0.06669646501541138,0.18734796345233917,0.2866191864013672,-0.6754668951034546,1.3395068645477295,-1.8917737007141113,-0.13673185451448114,-0.2954167551035659,0.6601047709378276
3.365967035293579,-0.07425552606582642,0.18506669998168945,0.2845417857170105,-0.5958980321884155,1.453114628791809,-1.9699516296386719,-0.13738658553052807,-0.2842340828153935,0.6395447811230911
3.374441146850586,-0.07622167468070984,0.20792368054389954,0.2736121416091919,-0.4349263608455658,1.5495975017547607,-2.0407683849334717,-0.13681735653905286,-0.2720714986113905,0.6186054013415041
3.3839101791381836,-0.060836851596832275,0.2379198968410492,0.2453736662864685,-0.26587340235710144,1.6330138444900513,-2.0843615531921387,-0.13480246490513328,-0.2589773889454602,0.5975408553113769
3.3940579891204834,-0.03615909814834595,0.2839486598968506,0.20635509490966797,-0.09830056130886078,1.685976266860962,-2.118114709854126,-0.1312995227624724,-0.2451258394955136,0.5765343136031911
3.404171943664551,-0.012666404247283936,0.29680100083351135,0.19387894868850708,0.05242317169904709,1.705849289894104,-2.138712167739868,-0.12649445473297816,-0.2308299898154379,0.5555891107449592
3.4154810905456543,0.002281978726387024,0.2870609164237976,0.20134961605072021,0.16116994619369507,1.7221603393554688,-2.1515965461730957,-0.12061043237915248,-0.21624600878270686,0.5347348491103746
3.4240550994873047,0.010199293494224548,0.2722584307193756,0.19943583011627197,0.16039469838142395,1.7386796474456787,-2.1531107425689697,-0.1145274347943665,-0.20135930886338207,0.5138556650124486
3.434074878692627,0.019474253058433533,0.2450006902217865,0.18786150217056274,0.0926230400800705,1.731228232383728,-2.1555099487304688,-0.10911279033918587,-0.1863250093614666,0.4928158939875843
3.444005012512207,0.03382508456707001,0.19382409751415253,0.1983931064605713,-0.011076723225414753,1.721816062927246,-2.141967535018921,-0.10487575021047779,-0.17131009580433243,0.47158992168224495
3.454029083251953,0.04267589747905731,0.15892541408538818,0.21354156732559204,-0.11871901899576187,1.720106601715088,-2.1022613048553467,-0.10203954544112775,-0.15627283392868313,0.450397740792398
3.4654741287231445,0.047677040100097656,0.1504056453704834,0.21960467100143433,-0.2383151799440384,1.7568212747573853,-2.0712270736694336,-0.10067988439205382,-0.1410033212617733,0.4293896954254321
3.473989963531494,0.0512518435716629,0.1394679695367813,0.22225266695022583,-0.3270752727985382,1.7854105234146118,-2.0275166034698486,-0.10083037288241357,-0.1253502268067348,0.4085444302341392
3.4839439392089844,0.06684540957212448,0.13702499866485596,0.22172212600708008,-0.36840271949768066,1.7819302082061768,-2.001582622528076,-0.10195158531695579,-0.10956341514984239,0.38801268859995786
3.4939780235290527,0.08746577799320221,0.14109763503074646,0.22136467695236206,-0.3880319893360138,1.7494473457336426,-2.003539562225342,-0.10370178269571008,-0.09396745299821309,0.3675990630621529
3.5040931701660156,0.1073363795876503,0.1455588936805725,0.20730090141296387,-0.3923686742782593,1.6956264972686768,-2.0181925296783447,-0.10584408660307056,-0.0788673249324172,0.3470834964576558
3.515542984008789,0.12599292397499084,0.14381924271583557,0.17265081405639648,-0.42316263914108276,1.6381561756134033,-2.0227084159851074,-0.10846852213469882,-0.06438857393585341,0.32648521704717737
3.5240421295166016,0.14006748795509338,0.15153494477272034,0.12939107418060303,-0.4991953372955322,1.641780138015747,-2.01110577583313,-0.11189727722874217,-0.05029999318738558,0.3059067112043235
3.534174919128418,0.1396445780992508,0.16138502955436707,0.1364545226097107,-0.5659447908401489,1.7038949728012085,-1.944031000137329,-0.11640453757200327,-0.035845095446269445,0.28574345807171636
3.544097900390625,0.14985540509223938,0.16657839715480804,0.14847195148468018,-0.6543627977371216,1.7461763620376587,-1.885672688484192,-0.12193152992679177,-0.02087678201536137,0.26628995884843215
3.5540549755096436,0.18577678501605988,0.14465874433517456,0.13264018297195435,-0.7781600952148438,1.7462003231048584,-1.8530153036117554,-0.12884502695934988,-0.0057247783340314065,0.24734601501177336
3.5673370361328125,0.22439195215702057,0.11854487657546997,0.13759702444076538,-0.8999541401863098,1.6965032815933228,-1.8338385820388794,-0.13730300457311626,0.009061371768204974,0.22874750221673126
3.5754029750823975,0.2569039762020111,0.08023481070995331,0.1542186737060547,-1.0222337245941162,1.6288201808929443,-1.8294720649719238,-0.14720976575820033,0.023102571206489012,0.2103932627624442
3.5840530395507812,0.27106568217277527,0.03592778742313385,0.15278226137161255,-1.1347105503082275,1.558385968208313,-1.8315449953079224,-0.1586146416392808,0.03628238726210024,0.19215843419432674
3.5940561294555664,0.2624344229698181,0.009379982948303223,0.14782994985580444,-1.1580716371536255,1.499337077140808,-1.7872427701950073,-0.17087851598751275,0.04862589830831111,0.1742808607272066
3.604166030883789,0.23332026600837708,0.011532500386238098,0.13526934385299683,-1.1853053569793701,1.4887079000473022,-1.7054579257965088,-0.18355782432924825,0.06053391813288232,0.1571747219889499
3.615446090698242,0.19099465012550354,0.044198185205459595,0.10518038272857666,-1.2012466192245483,1.5500861406326294,-1.5920970439910889,-0.1965827440981651,0.07267484900287073,0.14119752732560292
3.6241769790649414,0.15352126955986023,0.0678814947605133,0.10077190399169922,-1.184373378753662,1.6405097246170044,-1.4543296098709106,-0.2097455637671196,0.08575020787365523,0.12663850692922676
3.6343300342559814,0.1590278595685959,0.06908024847507477,0.091586172580719,-1.150173544883728,1.6153712272644043,-1.3212556838989258,-0.22265669633406782,0.09932043044506611,0.11359153562641672
3.6442160606384277,0.21145261824131012,0.045548081398010254,0.05831485986709595,-1.1107637882232666,1.5091668367385864,-1.2027066946029663,-0.23527244781892517,0.11235266324910746,0.10193831080379122
3.6542999744415283,0.26327040791511536,0.010416209697723389,0.0365714430809021,-1.0614840984344482,1.3936502933502197,-1.1098637580871582,-0.24741021818648942,0.12435643196846984,0.09142195749554595
3.665712833404541,0.28324076533317566,-0.005062997341156006,0.01524883508682251,-1.0298374891281128,1.2785296440124512,-0.9999961256980896,-0.2591913259513752,0.135376771942763,0.08198153265722667
3.6743111610412598,0.2803684175014496,0.01193326711654663,-0.01370394229888916,-0.9653315544128418,1.1415783166885376,-0.8767130970954895,-0.2703868346221889,0.14535792954311666,0.07379675359832273
3.6841578483581543,0.2708912789821625,0.01743936538696289,-0.03630298376083374,-0.9492633938789368,1.034325122833252,-0.7585132718086243,-0.2810297864976713,0.1543139495776812,0.06685778772688977
3.6952030658721924,0.2596498131752014,-0.0019699931144714355,-0.05091357231140137,-1.039704442024231,0.9642855525016785,-0.6395283937454224,-0.29189449645809945,0.1627630065916582,0.06128701263867506
3.704224109649658,0.26849183440208435,-0.044543296098709106,-0.05720484256744385,-1.245402216911316,0.8436350226402283,-0.5193892121315002,-0.30407508645121806,0.1706690982547714,0.05727955158922614
3.7153780460357666,0.3087931275367737,-0.12177643179893494,-0.05818891525268555,-1.5159459114074707,0.6736077070236206,-0.384477823972702,-0.31846216856169546,0.17761634612428254,0.05510106915282662
3.724277973175049,0.3459433913230896,-0.19260287284851074,-0.044704437255859375,-1.7833222150802612,0.47637397050857544,-0.2243558019399643,-0.335294173252817,0.18334716241383214,0.05504702062014578
3.7343521118164062,0.36967504024505615,-0.24815112352371216,-0.03325527906417847,-1.9661104679107666,0.29004642367362976,-0.0489836111664772,-0.354058736344969,0.1879400817807482,0.057311242738751184
3.744174003601074,0.3727934956550598,-0.29645147919654846,-0.047347843647003174,-2.0830154418945312,0.11897590011358261,0.1129850521683693,-0.3739541165745936,0.19155130207470644,0.06174612179335329
3.754578113555908,0.36252665519714355,-0.3292010724544525,-0.07257461547851562,-2.1031622886657715,-0.01634814962744713,0.28375494480133057,-0.39421873921225514,0.1944575452828955,0.06818241021507074
3.7661349773406982,0.354157954454422,-0.33030664920806885,-0.08773112297058105,-2.0481135845184326,-0.11204564571380615,0.489907830953598,-0.41387515680118053,0.19714739323460237,0.07668218862714474
3.774303913116455,0.3569866418838501,-0.29524916410446167,-0.10878294706344604,-1.9491934776306152,-0.23346656560897827,0.7211843729019165,-0.4323414840706638,0.19990632299329192,0.08752510970541051
3.7843520641326904,0.3771657347679138,-0.24199113249778748,-0.11799919605255127,-1.7862458229064941,-0.39225515723228455,0.9610472917556763,-0.44902130539831936,0.20244976615505658,0.10080864187087793
3.794250011444092,0.407578706741333,-0.21696129441261292,-0.12053483724594116,-1.6342564821243286,-0.5436812043190002,1.1664501428604126,-0.4636166336191112,0.2045853962683851,0.11627805281550384
3.804434061050415,0.42678946256637573,-0.18919378519058228,-0.14888346195220947,-1.5461915731430054,-0.7113218903541565,1.372646450996399,-0.47650833064413617,0.2062824378100479,0.13389189868668153
3.8162760734558105,0.42695900797843933,-0.15473610162734985,-0.15473276376724243,-1.577600121498108,-0.8581221699714661,1.5241354703903198,-0.48878718177072805,0.20752536641599859,0.15355905760077357
3.8244471549987793,0.4070614278316498,-0.17258015275001526,-0.1323401927947998,-1.6759921312332153,-0.9334068298339844,1.6441245079040527,-0.5014016040388445,0.2087157540411884,0.17502454295616637
3.8346071243286133,0.3670688569545746,-0.20578455924987793,-0.10831284523010254,-1.8224126100540161,-0.989547610282898,1.7546334266662598,-0.5149743154197084,0.2103941709845161,0.1982417459136705
3.8443050384521484,0.3231268525123596,-0.2012602686882019,-0.07310205698013306,-1.9721592664718628,-1.0521643161773682,1.858917236328125,-0.5297552611050051,0.21264978145005625,0.2232514785029355
3.8552019596099854,0.2887961268424988,-0.18999356031417847,-0.02899116277694702,-2.0859522819519043,-1.0807156562805176,1.9463458061218262,-0.5455955465509065,0.21562929637114905,0.24998395118217429
3.8658828735351562,0.25176337361335754,-0.1823018193244934,0.0008661150932312012,-2.1440787315368652,-1.0669572353363037,2.0081095695495605,-0.5620276423247809,0.2196398665795998,0.27809470185123475
3.8746039867401123,0.20588597655296326,-0.15932852029800415,0.002700209617614746,-2.13203763961792,-1.0364470481872559,2.0732483863830566,-0.5784767665453826,0.22491638831689015,0.30738328113633473
3.8843979835510254,0.16403986513614655,-0.1315109133720398,0.0028204917907714844,-2.039397716522217,-0.9839364290237427,2.138139247894287,-0.5940458075153077,0.23157656407798585,0.337713784891803
3.894918918609619,0.13430137932300568,-0.11463391780853271,-0.005234360694885254,-1.9437761306762695,-0.9182711839675903,2.202993154525757,-0.6083851305896633,0.2397413509545644,0.36897134062628617
3.904611110687256,0.11442625522613525,-0.07779461145401001,-0.019474327564239502,-1.80484139919281,-0.8780726194381714,2.2950429916381836,-0.6211747207268502,0.24939816504262133,0.4012592966692171
3.9160518646240234,0.1081177145242691,-0.053125202655792236,-0.014969050884246826,-1.6276017427444458,-0.8450607061386108,2.4040334224700928,-0.6318788463110426,0.26036001705604717,0.43469487690453695
3.924700975418091,0.102515310049057,-0.05047863721847534,-0.01039743423461914,-1.4705628156661987,-0.7869611382484436,2.515192747116089,-0.6403304926771223,0.2727447059829023,0.4692979483187862
3.9353480339050293,0.08613854646682739,-0.051781296730041504,0.0012243390083312988,-1.364759087562561,-0.7126973271369934,2.5930726528167725,-0.6468611595776353,0.2866005324850133,0.5049345935193548
3.944706916809082,0.06807632744312286,-0.07256919145584106,0.02576756477355957,-1.3623862266540527,-0.5970420837402344,2.6403722763061523,-0.652271341279938,0.3020765480900704,0.5413851447312132
3.954848051071167,0.0506385862827301,-0.0836411714553833,0.040221452713012695,-1.390081763267517,-0.4809076488018036,2.6857149600982666,-0.6572463589338688,0.3194228778616446,0.5786992443971574
3.965385913848877,0.04337048530578613,-0.0745851993560791,0.05694282054901123,-1.4285684823989868,-0.4045441746711731,2.7256505489349365,-0.6618515560869022,0.33843922144654254,0.6169147753143631
3.974591016769409,0.05025726556777954,-0.07820713520050049,0.08655160665512085,-1.4004459381103516,-0.35520365834236145,2.7331995964050293,-0.6658882859351102,0.3585435460309057,0.6557289952534479
3.9845190048217773,0.0541820228099823,-0.09139078855514526,0.11443436145782471,-1.3513084650039673,-0.24798531830310822,2.696521043777466,-0.6688801740104198,0.37936324463891535,0.694311343535032
3.9945919513702393,0.051400065422058105,-0.06446266174316406,0.07618904113769531,-1.328004240989685,-0.12710444629192352,2.6873273849487305,-0.671084596511332,0.4012864166027088,0.7325920535190107
4.0051350593566895,0.05616557598114014,0.04514187574386597,0.027264833450317383,-1.2540339231491089,-0.07725406438112259,2.7108089923858643,-0.6720973063731599,0.42410241556825173,0.7708433888832179
4.016381025314331,0.07921671867370605,0.10406959056854248,0.020141243934631348,-1.1547545194625854,-0.07281648367643356,2.722172737121582,-0.6715731808046592,0.4470319443313845,0.8088825080039583
4.024673938751221,0.0902591347694397,0.1062319278717041,0.017446517944335938,-1.1338844299316406,-0.07751430571079254,2.7808079719543457,-0.66976739752014,0.4698119681519347,0.8468855236228287
4.034693956375122,0.08371302485466003,0.07394063472747803,-0.0020624399185180664,-1.4153192043304443,-0.08711113035678864,2.450531005859375,-0.6681770236940388,0.4921723529890434,0.8840278322764885
4.044765949249268,0.08377563953399658,-0.09933102130889893,0.016327977180480957,-1.861633062362671,0.07135813683271408,2.1947450637817383,-0.6716327975029207,0.5142755438433253,0.919750217261337
4.054641962051392,0.01950177550315857,-0.10945415496826172,0.09476661682128906,-2.201580047607422,0.18061356246471405,2.3173091411590576,-0.6779140329928272,0.5393134503667997,0.9578342082428435
4.065401077270508,-0.00645899772644043,0.0033683180809020996,0.014219999313354492,-2.464083194732666,0.26591649651527405,2.2699081897735596,-0.6856582537564385,0.5675303212456657,0.9990702041383311
4.074573993682861,-0.011832445859909058,-0.04893535375595093,0.05799388885498047,-2.791606903076172,0.3716944754123688,2.125307083129883,-0.6957299171333575,0.5977228163082409,1.0415818889461945
4.084721088409424,-0.027625560760498047,-0.021113574504852295,0.04442232847213745,-2.737151861190796,0.4380178451538086,2.3371260166168213,-0.7056644650840007,0.6307477633244645,1.086314613078469
4.095180988311768,0.006334364414215088,0.08599728345870972,-0.010757386684417725,-2.377852201461792,0.40227141976356506,2.5521745681762695,-0.7114798813335217,0.6651298337918699,1.1326459888170157
4.104804992675781,0.04495611786842346,0.08418768644332886,0.002329885959625244,-1.7408071756362915,0.399737149477005,2.662564277648926,-0.7110085160165776,0.6978403774989806,1.1766203498223224
4.115778923034668,0.03298372030258179,0.09172332286834717,0.010493159294128418,-1.186837077140808,0.43248629570007324,2.662222385406494,-0.7045648827412617,0.7274123956393305,1.2157439482157018
4.12497091293335,0.00509268045425415,0.11984699964523315,0.03739672899246216,-0.8480582237243652,0.5188198685646057,2.6920440196990967,-0.6938959828798548,0.7544657547218864,1.2504046744681492
4.135288953781128,-0.011495530605316162,0.06051880121231079,0.055471062660217285,-0.894573986530304,0.5870490670204163,2.6908257007598877,-0.6812420569639209,0.7808008454471025,1.283149001314438
4.144811153411865,-0.018693625926971436,-0.008636116981506348,0.07882457971572876,-1.1251102685928345,0.6840330958366394,2.6952574253082275,-0.6691056955639283,0.808004173834406,1.3165436998462
4.154772996902466,-0.037628889083862305,-0.07278686761856079,0.108370840549469,-1.3277534246444702,0.8045546412467957,2.7062482833862305,-0.6576637625379591,0.8369114751998356,1.3513759669442342
4.1658711433410645,-0.049384355545043945,-0.1237635612487793,0.08013075590133667,-1.3773854970932007,0.9043534398078918,2.7169809341430664,-0.646238554640457,0.8669828800693339,1.3867929835830959
4.175081968307495,-0.057392895221710205,-0.10329562425613403,0.0695655345916748,-1.321463704109192,0.9825513362884521,2.7446603775024414,-0.6337516031879986,0.8971435572676305,1.4214696816554846
4.1848578453063965,-0.04863882064819336,-0.05004286766052246,0.051026225090026855,-1.1845016479492188,1.056963562965393,2.822510004043579,-0.6194543292249602,0.9269300828929686,1.4548242832308689
4.194720029830933,-0.027626514434814453,0.011796712875366211,0.035055339336395264,-0.9629833102226257,1.0975501537322998,2.9106929302215576,-0.6025995253086357,0.9556881980440716,1.4861013566605057
4.204975128173828,-0.0010612010955810547,0.047309041023254395,0.030638307332992554,-0.6938285231590271,1.1284809112548828,2.9942400455474854,-0.5829444702454049,0.9827296745500108,1.5145499122404005
4.216207027435303,0.020217597484588623,0.07860064506530762,0.025382250547409058,-0.401731938123703,1.1638257503509521,3.073054552078247,-0.5604323914691817,1.0077964997126987,1.539675444046938
4.225057125091553,0.03005319833755493,0.10630714893341064,0.02389293909072876,-0.1565951406955719,1.2030987739562988,3.130464792251587,-0.5354100327691398,1.031031261112467,1.5614917531440697
4.234822988510132,0.029709935188293457,0.11811563372612,0.03164440393447876,0.04769732803106308,1.2400645017623901,3.1519689559936523,-0.5085143208219073,1.052655200004653,1.5803416820709855
4.245148181915283,0.028839468955993652,0.11355149745941162,0.051027119159698486,0.20428374409675598,1.29208505153656,3.152268409729004,-0.48029471335262997,1.0729842747576284,1.5964840276703935
4.255927085876465,0.030225515365600586,0.11180013418197632,0.05605405569076538,0.30164089798927307,1.352641224861145,3.140411615371704,-0.4512572085863271,1.0925208289661967,1.6104908981424926
4.266165018081665,0.038662493228912354,0.12805551290512085,0.05674868822097778,0.3400766849517822,1.4197033643722534,3.113283395767212,-0.4218518124567676,1.111651944707334,1.6228936721890257
4.275014877319336,0.059333980083465576,0.13300469517707825,0.05341380834579468,0.3262445330619812,1.479897141456604,3.087026596069336,-0.392449098450218,1.130698810439587,1.634293974092504
4.285057067871094,0.08679205179214478,0.1429545283317566,0.04322540760040283,0.29623550176620483,1.5056909322738647,3.059582471847534,-0.36317608776993615,1.1496361117227076,1.6450713561049541
4.2947611808776855,0.11880970001220703,0.16066285967826843,0.029975444078445435,0.2691514194011688,1.5123136043548584,3.0232479572296143,-0.33413703285671353,1.1682518921321867,1.655293067428891
4.304833889007568,0.14621925354003906,0.17465269565582275,0.011174708604812622,0.24239277839660645,1.5219337940216064,2.9723856449127197,-0.3054310750094045,1.186472277398916,1.6649156885212066
4.31601095199585,0.16904646158218384,0.19310680031776428,-0.017783284187316895,0.2167302966117859,1.5229079723358154,2.9041824340820312,-0.2772116585953981,1.204324911072907,1.6739623005631163
4.324811935424805,0.18782538175582886,0.20392043888568878,-0.04424366354942322,0.20947663486003876,1.5039808750152588,2.817937135696411,-0.2496221219990571,1.2216712725919443,1.6823012748581327
4.3351709842681885,0.20793861150741577,0.21372656524181366,-0.05998337268829346,0.2178267240524292,1.4567090272903442,2.71347975730896,-0.22280466853101627,1.2382586929929649,1.6897576493732556
4.3449249267578125,0.22260135412216187,0.24117626249790192,-0.06858721375465393,0.23358836770057678,1.391430377960205,2.602727174758911,-0.19686035729212453,1.2538794633874288,1.6962573490722388
4.355057001113892,0.2328696846961975,0.2708088159561157,-0.07574337720870972,0.24496152997016907,1.318845510482788,2.4771180152893066,-0.17190053817086703,1.2684722339652201,1.7018199077809892
4.366396903991699,0.23467445373535156,0.2962855100631714,-0.08141687512397766,0.2417910397052765,1.2378466129302979,2.329975128173828,-0.14814928478411246,1.2820297491379589,1.7065536939411081
4.3749918937683105,0.22511959075927734,0.3156645894050598,-0.08356058597564697,0.23777271807193756,1.1560266017913818,2.1616013050079346,-0.12587546385951554,1.2945580535416112,1.7105511084618739
4.3852858543396,0.21398651599884033,0.3258698284626007,-0.08426213264465332,0.23012039065361023,1.0696967840194702,1.9754530191421509,-0.10527853405587284,1.3060929612903112,1.7138554244138289
4.394950866699219,0.20164090394973755,0.3249968886375427,-0.08366531133651733,0.22365306317806244,0.9717841744422913,1.7723544836044312,-0.08654912822827074,1.3165776998511258,1.7164869272149965
4.405125141143799,0.188304603099823,0.32567816972732544,-0.082405686378479,0.20708394050598145,0.8702881932258606,1.5557316541671753,-0.06987123632967161,1.3259528312842417,1.7185106131556025
4.415709018707275,0.17489826679229736,0.3265143930912018,-0.08156314492225647,0.18115703761577606,0.7726906538009644,1.3353748321533203,-0.05536508676966423,1.3342802658062105,1.7200763690794743
4.425091028213501,0.16247975826263428,0.3285994231700897,-0.08740603923797607,0.16179105639457703,0.6697040796279907,1.1211285591125488,-0.042995842970234226,1.3415675867630392,1.7212526915505084
4.4351959228515625,0.14926570653915405,0.32546931505203247,-0.09677700698375702,0.14262309670448303,0.5670241117477417,0.9027830362319946,-0.03278241485175188,1.3477852879688406,1.7220421728946638
4.445333957672119,0.13291800022125244,0.3249906897544861,-0.10288375616073608,0.11104467511177063,0.4699968695640564,0.6949880123138428,-0.02469750195057924,1.352987447744466,1.722544665723102
4.455554962158203,0.11260056495666504,0.32397153973579407,-0.11213070154190063,0.06134214624762535,0.3873331844806671,0.4903024137020111,-0.018711433753904265,1.357281508804223,1.722980779057813
4.466057062149048,0.09215354919433594,0.3107426166534424,-0.11779646575450897,-0.0342075414955616,0.3074873685836792,0.2779904007911682,-0.014972050370412862,1.3607652584777017,1.7236684345714959
4.475183963775635,0.0736844539642334,0.2957303822040558,-0.116972416639328,-0.06105924770236015,0.22895948588848114,0.1248469278216362,-0.013107881803223411,1.3634693096834745,1.7245542459300782
4.485154151916504,0.05825209617614746,0.29330986738204956,-0.11816029250621796,-0.08653770387172699,0.14494048058986664,-0.02708268165588379,-0.012781776571698739,1.365338743783632,1.7253911730019802
4.495112895965576,0.03949159383773804,0.2858959138393402,-0.11902868747711182,-0.11259091645479202,0.08791855722665787,-0.17305026948451996,-0.013985524190700465,1.3665030053631788,1.726170870977853
4.505256175994873,0.01857692003250122,0.26980164647102356,-0.11991815268993378,-0.14509479701519012,0.048553843051195145,-0.3078711926937103,-0.016621851630145325,1.367200467160679,1.72694986459841
4.5158350467681885,0.0022963285446166992,0.25688886642456055,-0.12638086080551147,-0.15138240158557892,0.0011950701009482145,-0.42301464080810547,-0.020532613519373,1.3674743742368702,1.727672718963826
4.52524995803833,-0.0067726969718933105,0.2522282302379608,-0.1272687017917633,-0.13323481380939484,-0.053981099277734756,-0.520117461681366,-0.02546922417260697,1.3672200772874692,1.728121618465207
4.53535795211792,-0.014923572540283203,0.2518279254436493,-0.12569919228553772,-0.09789976477622986,-0.10117702186107635,-0.6021305918693542,-0.031227678317210357,1.366440227968664,1.7281318268747203
4.545312881469727,-0.020377755165100098,0.2518308162689209,-0.12147378921508789,-0.04857536032795906,-0.1392975002527237,-0.6706305742263794,-0.037637310221444883,1.3652104865168297,1.727547081072194
4.555421829223633,-0.028529822826385498,0.2421085387468338,-0.12158511579036713,0.003758665407076478,-0.16785293817520142,-0.7320645451545715,-0.04457309355470843,1.3636106781518238,1.7263186050469486
4.567102909088135,-0.033951640129089355,0.22645969688892365,-0.12623992562294006,0.051601022481918335,-0.19318386912345886,-0.7913857102394104,-0.05199084449949075,1.361709063052301,1.7244824674759338
4.575149059295654,-0.03790253400802612,0.20668765902519226,-0.12719985842704773,0.09435291588306427,-0.21706300973892212,-0.8428047895431519,-0.05985807423601763,1.3595197308533349,1.7220608110830422
4.585270881652832,-0.03733187913894653,0.1898762583732605,-0.12365889549255371,0.14655858278274536,-0.231302410364151,-0.8848928213119507,-0.06808037612737519,1.3570745025299602,1.719049120991214
4.595299005508423,-0.035588860511779785,0.17881718277931213,-0.12029188871383667,0.1982017308473587,-0.2431962937116623,-0.9232230186462402,-0.07656768393107855,1.3544243359622001,1.7154218903248792
4.60535192489624,-0.03324437141418457,0.16789743304252625,-0.11679649353027344,0.2620600759983063,-0.24714550375938416,-0.957150399684906,-0.08527288152218492,1.351617119081243,1.7111433429801193
4.6163389682769775,-0.026782214641571045,0.15515545010566711,-0.11479103565216064,0.33937790989875793,-0.24284599721431732,-0.9919707775115967,-0.09414432324243087,1.348699401905574,1.706041533910243
4.625307083129883,-0.015501081943511963,0.14780193567276,-0.12149327993392944,0.4241010546684265,-0.2437799721956253,-1.0273818969726562,-0.10315913335199284,1.345685449445787,1.7000457489174008
4.635458946228027,0.004006385803222656,0.14497308433055878,-0.12995314598083496,0.5128559470176697,-0.26453226804733276,-1.0762155055999756,-0.11235852712068094,1.3423910803148167,1.6930727623771307
4.6455299854278564,0.03550314903259277,0.13548880815505981,-0.12693557143211365,0.5903752446174622,-0.28609296679496765,-1.1444443464279175,-0.12190827512266504,1.338691209167524,1.6850888231543237
4.655611038208008,0.06911104917526245,0.13310059905052185,-0.12773987650871277,0.6142717003822327,-0.32030636072158813,-1.238125205039978,-0.13209957194376287,1.3345649252938965,1.6763506907220544
4.665741920471191,0.1088176965713501,0.14790023863315582,-0.1278906762599945,0.6015048027038574,-0.38445284962654114,-1.3440040349960327,-0.14320767116301433,1.3297972242843483,1.6672809055138986
4.675379991531372,0.15661174058914185,0.1510574221611023,-0.11615180969238281,0.5328234434127808,-0.4404558539390564,-1.4936965703964233,-0.15559997577182652,1.3243034999442094,1.658222157327612
4.685397148132324,0.1975688934326172,0.1449136883020401,-0.10729122161865234,0.41424140334129333,-0.4829167425632477,-1.6761374473571777,-0.16980496807826817,1.3182887648240131,1.64955555439634
4.695420980453491,0.23342204093933105,0.1576661467552185,-0.11693069338798523,0.2337218075990677,-0.5763701796531677,-1.8771464824676514,-0.18619656197942025,1.3116316096442218,1.6417583195956964
4.705603122711182,0.2750546336174011,0.1659507006406784,-0.11882603168487549,0.05172085016965866,-0.6937945485115051,-2.0913913249969482,-0.2050199222062114,1.3039774170900655,1.6351297259434714
4.715680122375488,0.316031813621521,0.15096229314804077,-0.10716462135314941,-0.054047975689172745,-0.7924677133560181,-2.2995541095733643,-0.22623737344529274,1.2952390752632674,1.6291610743510614
4.725510120391846,0.33626890182495117,0.14082716405391693,-0.10172843933105469,-0.07297159731388092,-0.8963429927825928,-2.46887469291687,-0.24941555745241528,1.285347673673251,1.6230323372117856
4.7356181144714355,0.3347678780555725,0.1534844934940338,-0.08261939883232117,-0.03851810097694397,-0.9834060668945312,-2.5899388790130615,-0.2738767130469498,1.2740950995518943,1.6160493469247397
4.745574951171875,0.321119487285614,0.16098910570144653,-0.06689462065696716,0.0050850361585617065,-1.0209294557571411,-2.6708459854125977,-0.2991249976667355,1.2617614085932467,1.6080278357605513
4.756091117858887,0.298129141330719,0.16435843706130981,-0.07554972171783447,0.11578196287155151,-1.0426775217056274,-2.7064690589904785,-0.3246036792384303,1.2485239269414237,1.5986691682311172
4.765805006027222,0.28198784589767456,0.14688226580619812,-0.08075857162475586,0.21803268790245056,-1.0621150732040405,-2.71528697013855,-0.3498176427119718,1.2343319073106642,1.5876563233902863
4.77565598487854,0.2680879831314087,0.1131257712841034,-0.08448737859725952,0.381363183259964,-1.0892856121063232,-2.700092077255249,-0.3745270152126422,1.2189520684757336,1.5748616379978875
4.785539150238037,0.24241697788238525,0.08418270945549011,-0.06426733732223511,0.6000872850418091,-1.073824167251587,-2.674787998199463,-0.398179765147374,1.2022635419458967,1.5596466332111414
4.795490026473999,0.2075757384300232,0.05682802200317383,-0.059114426374435425,0.8001682758331299,-1.0269014835357666,-2.619560480117798,-0.42034641132587275,1.184645195074495,1.5418514083582782
4.8056840896606445,0.17638272047042847,0.06515341997146606,-0.06427130103111267,1.027108907699585,-1.0250327587127686,-2.54514217376709,-0.44072083672474466,1.1659252154455597,1.5216194197127544
4.816275119781494,0.174707293510437,0.04738587141036987,-0.049750298261642456,1.2142716646194458,-1.021466851234436,-2.5117673873901367,-0.4593859453711894,1.145736531668722,1.4988435781977911
4.825735092163086,0.16681665182113647,0.009063124656677246,-0.024349749088287354,1.3969730138778687,-1.004284381866455,-2.467256546020508,-0.4765089500794007,1.1242675838366818,1.4737454568945467
4.835619926452637,0.13748836517333984,-0.005951523780822754,0.021835654973983765,1.5155119895935059,-0.9793807864189148,-2.4150195121765137,-0.4919915797737252,1.101710019033485,1.4466997766968965
4.845576047897339,0.11192387342453003,-0.04495832324028015,0.06687894463539124,1.596329927444458,-0.9038622975349426,-2.3543949127197266,-0.5059693957638435,1.0786697775902736,1.4183655826597825
4.855731964111328,0.08747756481170654,-0.059287309646606445,0.08877256512641907,1.635872483253479,-0.8304268717765808,-2.2835075855255127,-0.5185221821973949,1.055715711767162,1.3892199461635053
4.8663389682769775,0.07443171739578247,-0.045019328594207764,0.10412073135375977,1.7083122730255127,-0.8300430774688721,-2.1968307495117188,-0.5295535885779808,1.0325626199833833,1.3595322534085963
4.875718116760254,0.08292150497436523,-0.05885183811187744,0.14718669652938843,1.7915821075439453,-0.8054715394973755,-2.1343820095062256,-0.5388351324120452,1.0087430006510278,1.3289455576607725
4.88702917098999,0.09026217460632324,-0.09600502252578735,0.16512447595596313,1.8076807260513306,-0.7844136953353882,-2.079275131225586,-0.5467985480344812,0.9847624471389966,1.2978789910833186
4.895581960678101,0.08841520547866821,-0.06792658567428589,0.1694665551185608,1.7969858646392822,-0.8252283334732056,-2.0024142265319824,-0.5535263669555401,0.9604932820975136,1.266834148179092
4.905612945556641,0.10046660900115967,-0.08687430620193481,0.19476854801177979,1.8080966472625732,-0.839241087436676,-1.9565222263336182,-0.5591101690541919,0.9357877718403432,1.236001905039223
4.915872097015381,0.09654521942138672,-0.13930648565292358,0.20270037651062012,1.772193431854248,-0.7621500492095947,-1.9418855905532837,-0.5639088139130802,0.9113194185549564,1.205172201214597
4.925770998001099,0.06597286462783813,-0.11595958471298218,0.16818702220916748,1.8947776556015015,-0.6900010108947754,-1.8459525108337402,-0.567504545127005,0.8874786388144296,1.1742368720911964
4.935978889465332,0.054129719734191895,-0.05677849054336548,0.15952599048614502,2.2024638652801514,-0.6209770441055298,-1.6642794609069824,-0.567929920278559,0.8636512738026243,1.14214295133735
4.946063995361328,0.06987106800079346,0.0033020377159118652,0.11955678462982178,2.3339288234710693,-0.6807128190994263,-1.5261932611465454,-0.5648119286711084,0.8396564526377676,1.1093528740053953
4.9568400382995605,0.11706805229187012,0.08500146865844727,0.10433828830718994,2.2749216556549072,-0.8896525502204895,-1.5903207063674927,-0.5606580062251324,0.8144229632309946,1.0768356084667283
4.967108964920044,0.17419546842575073,-0.020009338855743408,0.16715586185455322,2.3738462924957275,-0.8483914136886597,-1.6120326519012451,-0.556195688481789,0.7880941090502938,1.0440034512711287
4.9759721755981445,0.14499938488006592,-0.10651272535324097,0.1569507122039795,2.575833320617676,-0.6959155797958374,-1.4580355882644653,-0.5493663020373404,0.76288233440577,1.0106946622543704
4.9858078956604,0.08077865839004517,0.05693143606185913,0.08898985385894775,2.896074056625366,-0.6225920915603638,-1.3532027006149292,-0.5389245169752357,0.7388550670066167,0.9769265823472307
4.9957451820373535,0.0760837197303772,0.13974261283874512,0.11841285228729248,3.090327024459839,-0.6489266157150269,-1.3215097188949585,-0.5253938021984451,0.7148430932175679,0.9420983588864
5.005758047103882,0.11993396282196045,0.08695724606513977,0.12557029724121094,3.201387882232666,-0.7762954831123352,-1.2288719415664673,-0.5096850936548765,0.6905689877123319,0.907432477290968
5.016002178192139,0.16127359867095947,0.07792544364929199,0.17646265029907227,3.3059167861938477,-0.8693494200706482,-1.1748558282852173,-0.4917499144523306,0.665923197713865,0.8734064179596858
5.025794982910156,0.17178452014923096,0.014698028564453125,0.2062419056892395,3.127380609512329,-0.9209902882575989,-1.1747444868087769,-0.4733298075844024,0.6417350526693794,0.8406990265497964
5.035815954208374,0.14482629299163818,0.019461899995803833,0.18732255697250366,2.73134183883667,-1.0067387819290161,-1.196947693824768,-0.45649442933702256,0.6186029889049813,0.8105103654146534
5.0458290576934814,0.13831478357315063,-0.0018769800662994385,0.20117467641830444,2.1933319568634033,-1.110206127166748,-1.2715814113616943,-0.44331903300326353,0.5962614442245269,0.7836455819916118
5.055830001831055,0.14580702781677246,-0.11708390712738037,0.22066110372543335,1.7204827070236206,-1.1127324104309082,-1.3597908020019531,-0.4344390910850425,0.5747882971497917,0.7595690539858327
5.0669331550598145,0.1090557873249054,-0.17130091786384583,0.203823983669281,1.42656672000885,-1.0089961290359497,-1.3391976356506348,-0.4285791533659571,0.5549900383953463,0.7377467909732291
5.075857162475586,0.050341904163360596,-0.10176590085029602,0.16421747207641602,1.40269935131073,-0.8984863758087158,-1.2936780452728271,-0.42343414389324224,0.5370396662973034,0.7173119359383822
5.085860967636108,0.023074716329574585,-0.02489355206489563,0.13714218139648438,1.30726158618927,-0.8938930034637451,-1.1762357950210571,-0.4181698178863554,0.5201369967731854,0.6980223695615073
