timestamp,accel_x,accel_y,accel_z,rotation_x,rotation_y,rotation_z, pitch,roll,yaw
0.04000091552734375,-0.04930394887924194,0.1270756721496582,0.18269836902618408,2.2576050758361816,-0.03772525489330292,0.22336913645267487,-0.15386521390389982,1.6174873299502357,2.9947231200678712
0.04749107360839844,-0.04430496692657471,0.1303640604019165,0.19337177276611328,2.2631473541259766,-0.052756138145923615,0.2424653321504593,-0.15257588012492487,1.6135142327782808,2.9717229736874593
0.059684038162231445,-0.034477829933166504,0.1298743486404419,0.2064065933227539,2.2453699111938477,-0.06434302031993866,0.2550864815711975,-0.15103368817444082,1.6094530828376987,2.948786340677283
0.06108903884887695,-0.028129994869232178,0.1276940554380417,0.21766841411590576,2.223814010620117,-0.0742582306265831,0.2679159939289093,-0.14927265753634975,1.6053502019110797,2.926066230636425
0.07303285598754883,-0.027621805667877197,0.12541858851909637,0.22567641735076904,2.208747625350952,-0.09005525708198547,0.27030259370803833,-0.1473152293567083,1.6011911826347485,2.903556551458327
0.07816100120544434,-0.02843451499938965,0.13428422808647156,0.23177862167358398,2.193845748901367,-0.10884785652160645,0.26646313071250916,-0.14527903304707693,1.5969254760624663,2.88120728256381
0.08766603469848633,-0.03191697597503662,0.14010906219482422,0.23838448524475098,2.1700758934020996,-0.12888415157794952,0.25434303283691406,-0.14321695663386133,1.5925392271125085,2.8590635777018525
0.09765291213989258,-0.03579443693161011,0.14515849947929382,0.2442694902420044,2.127889394760132,-0.14554302394390106,0.23262175917625427,-0.14122972876183237,1.5880676120893262,2.8372712208785207
0.10769891738891602,-0.04136455059051514,0.14613491296768188,0.24895644187927246,2.0655477046966553,-0.1552761197090149,0.20083357393741608,-0.13941147449779465,1.5835763472977087,2.816032360361175
0.11824512481689453,-0.04759854078292847,0.1442881077528,0.2529628276824951,1.9930723905563354,-0.16703370213508606,0.16925673186779022,-0.1378096858820724,1.5791280110550334,2.79549791359045
0.12766408920288086,-0.050263941287994385,0.1439114212989807,0.26151204109191895,1.9196205139160156,-0.18420009315013885,0.12628529965877533,-0.13648019786352483,1.5746707823960335,2.77571585274844
0.13769006729125977,-0.04463601112365723,0.1458730846643448,0.2731955051422119,1.8521666526794434,-0.20055723190307617,0.08439697325229645,-0.13550130581028225,1.5701475075165872,2.7566560246747702
0.14767217636108398,-0.03786122798919678,0.1479814350605011,0.2879459261894226,1.7984795570373535,-0.21205836534500122,0.042825937271118164,-0.13483645070946526,1.5655944913529547,2.738221934355397
0.15780901908874512,-0.0348052978515625,0.150861918926239,0.29423946142196655,1.7662920951843262,-0.2215261608362198,0.0053832270205020905,-0.13450117030584935,1.5610144453571733,2.720214936005631
0.16814708709716797,-0.03423517942428589,0.15641511976718903,0.30480843782424927,1.7437083721160889,-0.22491542994976044,-0.03340832144021988,-0.13447137215729144,1.5564002236514272,2.7024819877267348
0.17817997932434082,-0.027976810932159424,0.1612100601196289,0.31869250535964966,1.723382592201233,-0.2287628948688507,-0.06757082045078278,-0.13471405083223037,1.551781051650623,2.6849632253377886
0.18783998489379883,-0.020528435707092285,0.16335952281951904,0.3295208811759949,1.7290637493133545,-0.2189839482307434,-0.10226824134588242,-0.1352550579215094,1.5471795514105569,2.667494933093475
0.1978609561920166,-0.01675790548324585,0.162733256816864,0.3327362537384033,1.7364897727966309,-0.20511074364185333,-0.12800264358520508,-0.13599492114057365,1.5426828389120917,2.649956822993986
0.20785903930664062,-0.01602756977081299,0.1678416132926941,0.33539849519729614,1.757286787033081,-0.18797393143177032,-0.15452435612678528,-0.1369223974316057,1.538310920858084,2.6322622920248513
0.21831703186035156,-0.010909676551818848,0.16896116733551025,0.34400618076324463,1.7695870399475098,-0.16713868081569672,-0.18025103211402893,-0.13802578850909644,1.5340806455610128,2.6144176258490406
0.22794294357299805,-0.005626678466796875,0.16766653954982758,0.35182076692581177,1.7966463565826416,-0.1391431838274002,-0.19434358179569244,-0.13925591775280244,1.5300631529755535,2.5963217759234247
0.23788905143737793,-0.003311336040496826,0.16665871441364288,0.3576565980911255,1.8367122411727905,-0.11512785404920578,-0.21514712274074554,-0.14058188655443715,1.5262231097243106,2.5778756624614045
0.2479560375213623,0.0008866190910339355,0.16978920996189117,0.36232203245162964,1.8809680938720703,-0.09047013521194458,-0.2328966110944748,-0.14199735552072984,1.5225455011953786,2.5590043390829913
0.25800395011901855,0.0029668211936950684,0.17124252021312714,0.36865323781967163,1.9186699390411377,-0.06694749742746353,-0.24814586341381073,-0.1434889137259262,1.5190168082606192,2.5396874656100654
0.2693009376525879,0.0049471259117126465,0.16789618134498596,0.37534838914871216,1.9445371627807617,-0.04635465145111084,-0.2714157998561859,-0.14509721069284634,1.5156570856762737,2.520029283201036
0.27796506881713867,0.00615769624710083,0.16221250593662262,0.38563865423202515,1.9765366315841675,-0.03270088881254196,-0.2852562367916107,-0.14680121019260525,1.5123620049783535,2.50004394434804
0.2880280017852783,0.01336216926574707,0.15863174200057983,0.39298391342163086,1.9854998588562012,-0.002431668806821108,-0.3164754807949066,-0.14866274442054445,1.509217679042729,2.4798140322811926
0.29827404022216797,0.01638484001159668,0.15904417634010315,0.39328914880752563,1.9665570259094238,0.031891416758298874,-0.34228286147117615,-0.15076096135701972,1.5063681038932102,2.4596401973929956
0.30829405784606934,0.012630343437194824,0.1435154527425766,0.3929552435874939,1.9447048902511597,0.06444638967514038,-0.37823906540870667,-0.15310255625767605,1.5038365714158919,2.439629847797507
0.31842613220214844,0.023321032524108887,0.13778142631053925,0.39083749055862427,1.9175843000411987,0.11110629886388779,-0.4163949489593506,-0.1558017138017371,1.501684073128447,2.419841882844134
0.3283569812774658,0.035289108753204346,0.13729144632816315,0.3870311379432678,1.8989261388778687,0.14912168681621552,-0.4576514661312103,-0.15887790330630505,1.4999533031152972,2.400251527678624
0.3380708694458008,0.04857414960861206,0.1288534253835678,0.3792399764060974,1.8907523155212402,0.1716775894165039,-0.5060840249061584,-0.16238674198530248,1.498449571240239,2.3807399284032513
0.34827089309692383,0.06405693292617798,0.12472662329673767,0.3677522540092468,1.8742645978927612,0.2050590217113495,-0.556641161441803,-0.16636886817123667,1.497158374779706,2.3612770297012666
0.358165979385376,0.06266683340072632,0.12103493511676788,0.3570464253425598,1.852612018585205,0.2410591095685959,-0.6081932783126831,-0.17085662600022386,1.4961799889052088,2.3419653147042623
0.3682529926300049,0.05136948823928833,0.11359015107154846,0.3492417335510254,1.8366111516952515,0.2644311487674713,-0.6514521241188049,-0.1758276921042046,1.495438663945206,2.3227974851120354
0.3780519962310791,0.050169169902801514,0.10248033702373505,0.3460637331008911,1.8350207805633545,0.28210708498954773,-0.6907579898834229,-0.18119393652046548,1.4948097034314713,2.303667616348281
0.38848304748535156,0.047608137130737305,0.0981438010931015,0.3385428786277771,1.8479033708572388,0.29385870695114136,-0.719611644744873,-0.1868931901387947,1.4941975533823344,2.284437943451915
0.39813804626464844,0.044321537017822266,0.0963398814201355,0.3266878128051758,1.8713756799697876,0.30035123229026794,-0.7456514835357666,-0.19283219572076185,1.4935163800061928,2.264964351520086
0.40825891494750977,0.04288625717163086,0.09374955296516418,0.31628525257110596,1.9034690856933594,0.30952388048171997,-0.7650120854377747,-0.19897319557687945,1.4927465181411994,2.245161445642447
0.4181859493255615,0.04308050870895386,0.08683031797409058,0.3050535321235657,1.9318500757217407,0.3123420178890228,-0.7782959342002869,-0.20524182275851585,1.4918499287954534,2.2250048537913303
0.4281010627746582,0.04358494281768799,0.07508589327335358,0.29461783170700073,1.9607821702957153,0.31656619906425476,-0.7885734438896179,-0.21158460367287224,1.4908030640121988,2.204516489529567
0.43814611434936523,0.04682731628417969,0.06431713700294495,0.2891243100166321,1.9790067672729492,0.31395548582077026,-0.7985618710517883,-0.21798379450893773,1.4895624919477708,2.1837396668740885
0.4481649398803711,0.049308717250823975,0.056158021092414856,0.28133606910705566,1.995928406715393,0.3071199953556061,-0.8030322790145874,-0.22440732481360576,1.4881164265780447,2.1627403791696582
0.45823192596435547,0.05056166648864746,0.047898754477500916,0.27223658561706543,2.001544237136841,0.297457754611969,-0.8098236322402954,-0.2308491097253755,1.4863936445151555,2.1415765830760414
0.4682130813598633,0.047548532485961914,0.038542747497558594,0.26907670497894287,1.9952970743179321,0.28684180974960327,-0.8271094560623169,-0.23737722968958702,1.4844354194029603,2.1203610989773907
0.47816896438598633,0.04657638072967529,0.025616079568862915,0.26364952325820923,1.975831151008606,0.2714974880218506,-0.847438395023346,-0.2440573294362185,1.4822203284808881,2.099204348512862
0.4882230758666992,0.05117928981781006,0.01156453788280487,0.2632390856742859,1.9409215450286865,0.2465592473745346,-0.866129457950592,-0.2509016520209364,1.479724272770941,2.078262253844323
0.49805593490600586,0.06099855899810791,-0.0008027255535125732,0.2667294144630432,1.8840409517288208,0.22146748006343842,-0.8917238116264343,-0.2579729042201424,1.4769293707999362,2.05772525696837
0.5084390640258789,0.0683087706565857,-0.018132716417312622,0.26910078525543213,1.8070040941238403,0.20010633766651154,-0.9211729168891907,-0.2653141242999407,1.4739101901289098,2.037777600171644
0.5186920166015625,0.06922334432601929,-0.034860849380493164,0.2707163691520691,1.7183938026428223,0.18041838705539703,-0.944162130355835,-0.27294818056075437,1.4707614938407503,2.0186085807519487
0.5283830165863037,0.07643914222717285,-0.05091512203216553,0.2709146738052368,1.625549554824829,0.15336556732654572,-0.9686132669448853,-0.2808500637286121,1.4674708808520858,2.0002957452904364
0.5384879112243652,0.0848778486251831,-0.06696653366088867,0.2706835865974426,1.5335009098052979,0.13349997997283936,-0.9873150587081909,-0.28900584335180646,1.4640397417922193,1.9828493951926398
0.5485191345214844,0.08626574277877808,-0.07848533987998962,0.27134597301483154,1.4361684322357178,0.11424975842237473,-1.009454369544983,-0.29740411656585336,1.4605342150289167,1.9663014262115672
0.5586659908294678,0.0831795334815979,-0.08846622705459595,0.2724418044090271,1.3375811576843262,0.10039067268371582,-1.0228421688079834,-0.30603545947813104,1.4570025322716846,1.9506725251599721
0.5686359405517578,0.08006203174591064,-0.10113903880119324,0.2714223861694336,1.2486543655395508,0.0922919511795044,-1.0376994609832764,-0.3148575693746092,1.453492873624815,1.9359276163504608
0.5784790515899658,0.07733428478240967,-0.11377739906311035,0.271015465259552,1.1670851707458496,0.09169434010982513,-1.0491691827774048,-0.3238619004562162,1.4500722540171604,1.921988386685857
0.5884308815002441,0.06549263000488281,-0.12328329682350159,0.2714937925338745,1.0904661417007446,0.09511348605155945,-1.0563092231750488,-0.33301800091267136,1.4467917731354045,1.9087963228254021
0.5984201431274414,0.05490654706954956,-0.13249340653419495,0.2715710997581482,1.0229206085205078,0.10532697290182114,-1.0562235116958618,-0.3422617514948884,1.4436751772105199,1.8962938903528406
0.6083941459655762,0.047318100929260254,-0.14458197355270386,0.2713801860809326,0.9710243940353394,0.12442636489868164,-1.046765923500061,-0.35149776881981754,1.440814248861419,1.8843586699862753
0.618466854095459,0.03940349817276001,-0.1564418077468872,0.2739517092704773,0.9378811120986938,0.1370404213666916,-1.0237737894058228,-0.3605859035433637,1.4381423286921202,1.8728333644242692
0.6284480094909668,0.04016607999801636,-0.16250252723693848,0.27695244550704956,0.9272201061248779,0.1448977291584015,-0.9876520037651062,-0.3693772367592487,1.4355525554321877,1.8615047392691129
0.6387569904327393,0.04581034183502197,-0.16274651885032654,0.27843302488327026,0.9299748539924622,0.15514051914215088,-0.9431052803993225,-0.3777519159566071,1.4329669952406718,1.8502300411773867
0.6483731269836426,0.04751026630401611,-0.16029950976371765,0.2763630747795105,0.9437037706375122,0.17256540060043335,-0.8908652663230896,-0.38560520333736414,1.4304114721446475,1.838868486171382
0.6587381362915039,0.04311037063598633,-0.16125813126564026,0.27060115337371826,0.9564749598503113,0.19449174404144287,-0.8364701867103577,-0.3928920166311481,1.4279297277100669,1.827386225013476
0.6689739227294922,0.03926032781600952,-0.1680971384048462,0.26641905307769775,0.966141402721405,0.22195683419704437,-0.7821523547172546,-0.39957757617371314,1.425586557089546,1.8158193373797673
0.6785910129547119,0.03229224681854248,-0.17642003297805786,0.2651798725128174,0.9695252180099487,0.2542535066604614,-0.7297482490539551,-0.4057049881513287,1.423462177994948,1.8042120130978945
0.6886601448059082,0.0227663516998291,-0.18439370393753052,0.26374703645706177,0.9668610692024231,0.2952221632003784,-0.6759074926376343,-0.4112842897583584,1.4216541289219988,1.7926467255608405
0.6985979080200195,0.01400744915008545,-0.19169706106185913,0.26268893480300903,0.9636200070381165,0.3433137834072113,-0.6172087788581848,-0.416294440025072,1.4202659457730047,1.7811674585164687
0.708655834197998,0.010131537914276123,-0.1988433599472046,0.2577030658721924,0.9638062715530396,0.39174124598503113,-0.5541058778762817,-0.42069219399140506,1.4193560837828272,1.7697719306281972
0.7190320491790771,0.01632523536682129,-0.20004475116729736,0.2528115510940552,0.9728742837905884,0.4337877631187439,-0.4816606938838959,-0.4244018892369449,1.4188737898335952,1.7584138709880068
0.7287740707397461,0.03927260637283325,-0.19999682903289795,0.2511265277862549,0.9842804670333862,0.46960434317588806,-0.4040159285068512,-0.4273485929462538,1.4187611777375446,1.747069423183359
0.738806962966919,0.07488393783569336,-0.19935274124145508,0.2517373561859131,0.9959086179733276,0.4954593777656555,-0.3217463791370392,-0.4294754132658407,1.4189173504523929,1.735719379726047
0.7486748695373535,0.1123589277267456,-0.20023861527442932,0.25466060638427734,1.0209059715270996,0.5129767060279846,-0.24934403598308563,-0.4308026676688834,1.4192389912624144,1.7242947355488352
0.7588019371032715,0.13893890380859375,-0.1951286494731903,0.2495049238204956,1.0380388498306274,0.5297577977180481,-0.19524377584457397,-0.4314595285808354,1.4196666084206426,1.7127516924991866
0.7689080238342285,0.13861083984375,-0.1881091296672821,0.2358970046043396,1.0712133646011353,0.5613477230072021,-0.15471814572811127,-0.4316269776808823,1.4202293907950516,1.700959588417577
0.7788419723510742,0.10141992568969727,-0.18767982721328735,0.2142358422279358,1.0801801681518555,0.6118087768554688,-0.15138572454452515,-0.4315407291803804,1.421128821504434,1.6889954232568154
0.7887768745422363,0.036823391914367676,-0.187882661819458,0.19297169148921967,1.06442391872406,0.6615915894508362,-0.16567827761173248,-0.43154574835496873,1.4225480010855676,1.6770494942171839
0.7987699508666992,-0.02552974224090576,-0.19162020087242126,0.17852783203125,1.027847170829773,0.7222546339035034,-0.18913991749286652,-0.4317966692069658,1.4246299796951798,1.6653683020549321
0.8087611198425293,-0.06877434253692627,-0.1936480700969696,0.16294503211975098,1.0097988843917847,0.7704598903656006,-0.20774219930171967,-0.432332687167005,1.4273826700903056,1.6539702013749895
0.819066047668457,-0.0954751968383789,-0.19435518980026245,0.14981988072395325,1.0136512517929077,0.807107150554657,-0.21435563266277313,-0.4330274613556112,1.4305656116437764,1.642623400435871
0.8287558555603027,-0.11175811290740967,-0.19709688425064087,0.1353166252374649,1.0336430072784424,0.8442018032073975,-0.20531867444515228,-0.43374502984280144,1.4340585114290785,1.631146225534284
0.8388340473175049,-0.1197691559791565,-0.19675061106681824,0.11617513000965118,1.0785644054412842,0.8780487179756165,-0.16679126024246216,-0.4342043221372645,1.4377542273172874,1.6193552774102506
0.8488140106201172,-0.11698615550994873,-0.192660391330719,0.09349764883518219,1.1422213315963745,0.901181697845459,-0.10735435038805008,-0.4341529197563179,1.441509906702631,1.6070285701432527
0.8588390350341797,-0.10403555631637573,-0.18357062339782715,0.07995152473449707,1.2092360258102417,0.9140564799308777,-0.03290621191263199,-0.43340113965377053,1.445178574465668,1.5940686719152652
0.8689060211181641,-0.09414339065551758,-0.17840707302093506,0.06997601687908173,1.2617082595825195,0.9282609224319458,0.05666916072368622,-0.431781061928282,1.4487903606897967,1.580556574418978
0.8788750171661377,-0.08316028118133545,-0.1800481081008911,0.05959385633468628,1.2970294952392578,0.9402409195899963,0.15629641711711884,-0.4292211384585102,1.4523893824310585,1.5666944333306876
0.8888850212097168,-0.07586139440536499,-0.18496063351631165,0.052751362323760986,1.2979189157485962,0.9468164443969727,0.25735774636268616,-0.4256656108848924,1.456097730890258,1.5527772922721546
0.8990039825439453,-0.06553512811660767,-0.18497520685195923,0.046187207102775574,1.2709448337554932,0.9557952880859375,0.3485534191131592,-0.42122961111158447,1.4600497818693317,1.5391393412979024
0.9109930992126465,-0.0512462854385376,-0.1812494397163391,0.04315018653869629,1.225758671760559,0.9558308720588684,0.4373463988304138,-0.4159825997491112,1.46430329915468,1.5260106982337382
0.919389009475708,-0.0360599160194397,-0.17595618963241577,0.04136501997709274,1.1787102222442627,0.9450488090515137,0.5371270775794983,-0.40988716315234885,1.4688370152525796,1.5135012386987101
0.928955078125,-0.01522982120513916,-0.16963618993759155,0.0397028923034668,1.120863676071167,0.9302286505699158,0.6108585000038147,-0.4030396924481161,1.473571257320763,1.5016541471032534
0.9390079975128174,0.009049534797668457,-0.16410374641418457,0.04046982526779175,1.0555963516235352,0.9144771099090576,0.6952452659606934,-0.3955278023991209,1.478526240158311,1.4905544961205495
0.9489090442657471,0.03285855054855347,-0.15630683302879333,0.038816750049591064,1.001544713973999,0.8906369209289551,0.7654317021369934,-0.3873404824388146,1.4836423206803317,1.480184556871964
0.9589660167694092,0.05921143293380737,-0.14634233713150024,0.03788834810256958,0.9461133480072021,0.8763610124588013,0.821715772151947,-0.3786046588866874,1.4888578460091724,1.4704450487605778
0.9693441390991211,0.07619297504425049,-0.13114091753959656,0.03438318520784378,0.8947633504867554,0.8717122077941895,0.872302234172821,-0.36943754668854384,1.4943021533158491,1.4613057001058578
0.9790229797363281,0.08706599473953247,-0.11379820108413696,0.024632103741168976,0.8435680866241455,0.8693225383758545,0.9072055816650391,-0.35992242567243965,1.4999918456962937,1.4527410627805195
0.9890651702880859,0.09943026304244995,-0.1017964780330658,0.0174705907702446,0.7941725850105286,0.8713510036468506,0.9194075465202332,-0.35024679434079053,1.5059338843058938,1.4446880446747214
0.9989991188049316,0.10740530490875244,-0.08893883228302002,0.013788525015115738,0.7462162375450134,0.8857919573783875,0.9175878167152405,-0.3406036862507378,1.5121813445879133,1.4371253826175558
1.009047031402588,0.10537832975387573,-0.07868021726608276,0.004335224628448486,0.7163327932357788,0.9115479588508606,0.9075284004211426,-0.33109559885538425,1.5188483363794074,1.4299439651957075
1.0195188522338867,0.09650659561157227,-0.06882965564727783,-0.010296586900949478,0.7179746627807617,0.9377598762512207,0.8843967318534851,-0.32179121371678765,1.5258703840393157,1.4228607259404173
1.0290820598602295,0.0878639817237854,-0.0525590181350708,-0.024493694305419922,0.7576044201850891,0.9594277143478394,0.8580459356307983,-0.3127922974760705,1.5330881242096894,1.4154905039100365
1.0391621589660645,0.08084267377853394,-0.03135767579078674,-0.03773099184036255,0.825671911239624,0.9981415271759033,0.8278542160987854,-0.30412112969819777,1.5404974100087758,1.407518869996806
1.0492010116577148,0.06653493642807007,-0.013877928256988525,-0.05424219369888306,0.9250108599662781,1.0268139839172363,0.8045676946640015,-0.29574300941107234,1.5480289479279707,1.3986049754651841
1.059359073638916,0.04930180311203003,0.0015275180339813232,-0.06337982416152954,1.0434190034866333,1.0536634922027588,0.7784090638160706,-0.28765584182641246,1.555577916007866,1.3884998095068397
1.0694019794464111,0.039683640003204346,0.018299639225006104,-0.06575506925582886,1.1675307750701904,1.0726572275161743,0.7579436898231506,-0.2798647776421218,1.5630536993850697,1.3770624702271732
1.0790328979492188,0.03456014394760132,0.030035048723220825,-0.0708932876586914,1.2908132076263428,1.0878615379333496,0.745516300201416,-0.2723141806259925,1.5704171196781351,1.3643101895892182
1.089015007019043,0.030969321727752686,0.03660121560096741,-0.07711124420166016,1.414336919784546,1.1041852235794067,0.7364791631698608,-0.2649655926935085,1.5776828988241423,1.3502436483781224
1.0990228652954102,0.02744746208190918,0.042915016412734985,-0.08829689025878906,1.5306695699691772,1.1308495998382568,0.7349832653999329,-0.25778217990805463,1.584945784365165,1.3348979810004982
1.1090059280395508,0.025416791439056396,0.04573814570903778,-0.09929704666137695,1.6322671175003052,1.162590742111206,0.7379242777824402,-0.25071894497295216,1.5923068283818163,1.318413312560285
1.1193561553955078,0.02883201837539673,0.048356324434280396,-0.11319506168365479,1.7358670234680176,1.1850827932357788,0.7496427297592163,-0.24372235097705824,1.5997843551811464,1.3008095707664256
1.1291999816894531,0.034992516040802,0.046892523765563965,-0.12616682052612305,1.811651349067688,1.2191574573516846,0.7585648894309998,-0.23677747828589304,1.607432439311013,1.2822728877575011
1.1391270160675049,0.037608206272125244,0.049674421548843384,-0.1415499448776245,1.8462737798690796,1.241167664527893,0.766921877861023,-0.2299030019684986,1.6153581156422625,1.263113353017885
1.149010181427002,0.042274296283721924,0.052853524684906006,-0.15940344333648682,1.8406561613082886,1.250292420387268,0.7763949632644653,-0.22313297079679661,1.6235135489070507,1.2438183245440186
1.1591911315917969,0.04984784126281738,0.0529899001121521,-0.17881059646606445,1.8280974626541138,1.2494087219238281,0.7804280519485474,-0.21639530622561634,1.6318823331740433,1.2245488155079762
1.1693649291992188,0.05061471462249756,0.0475844144821167,-0.20528388023376465,1.6857578754425049,1.1947479248046875,0.7506275773048401,-0.2099202772332626,1.6402228822915836,1.2059604611868828
1.1791181564331055,0.0499882698059082,0.04291461408138275,-0.2273033857345581,1.4324779510498047,1.168725848197937,0.745489776134491,-0.2036688853659162,1.6486631642460694,1.1895048669880819
1.1891670227050781,0.05744832754135132,0.01488235592842102,-0.262637734413147,1.325071930885315,1.1367053985595703,0.7564670443534851,-0.19730237032677436,1.6573318211653472,1.1749731089224296
1.199242115020752,0.05572199821472168,0.005494117736816406,-0.30641329288482666,1.4267314672470093,1.090787410736084,0.7539759278297424,-0.19103951917655845,1.6656970109290783,1.1603848711909228
1.209299087524414,0.04158663749694824,0.07331855595111847,-0.3368198871612549,1.614664077758789,1.0305286645889282,0.7659091949462891,-0.1849982107148421,1.673305241590838,1.144215672371685
1.2195510864257812,0.03177642822265625,0.13418778777122498,-0.3390113115310669,1.800204873085022,0.9640082120895386,0.776821494102478,-0.17916245817817136,1.6800502294441948,1.1260938268122422
1.2293829917907715,0.0254860520362854,0.14342468976974487,-0.3182485103607178,1.952622652053833,0.8650375604629517,0.7819309830665588,-0.17353086280828106,1.6857438489914889,1.1062095484527876
1.239346981048584,0.02192586660385132,0.15411074459552765,-0.29662179946899414,2.060148000717163,0.7899134755134583,0.7766073346138,-0.16815283214283033,1.690400418713348,1.0849923240523578
1.2493250370025635,0.017111659049987793,0.1696380078792572,-0.2767528295516968,2.114715337753296,0.7559335231781006,0.763538122177124,-0.16305386354526996,1.6945022678271635,1.0629888387291675
1.259462833404541,0.004091739654541016,0.16039036214351654,-0.26305949687957764,2.1590652465820312,0.7153282761573792,0.7509690523147583,-0.1582473274921442,1.6982928025450987,1.0405223655992983
1.2700738906860352,-0.0021311044692993164,0.14558762311935425,-0.2545151710510254,2.156515598297119,0.6616962552070618,0.7052454948425293,-0.1538004493635551,1.7016604344786812,1.0178416896810716
1.2794208526611328,-0.0004818439483642578,0.14962248504161835,-0.24578547477722168,2.0928359031677246,0.6116878986358643,0.6603962779045105,-0.14988845940224105,1.7046468993599775,0.9955529084693571
1.289496898651123,-0.0018552541732788086,0.13969336450099945,-0.23200225830078125,1.9720020294189453,0.5965113043785095,0.6182760000228882,-0.14630483047973425,1.7075432644944766,0.9742787599302051
1.2994740009307861,-0.006049096584320068,0.12260584533214569,-0.2156090885400772,1.8633064031600952,0.5896158814430237,0.5745029449462891,-0.14307967179855213,1.71060177575986,0.9542610698735834
1.30936598777771,-0.013784348964691162,0.11213380098342896,-0.19437633454799652,1.8143154382705688,0.5489734411239624,0.5367538928985596,-0.14018661067329777,1.7136177165279036,0.9350873186897448
1.3196301460266113,-0.017311573028564453,0.11821052432060242,-0.17313241958618164,1.8112515211105347,0.47661080956459045,0.5110213160514832,-0.13765604602841594,1.7161470259553933,0.9162123762024528
1.329442024230957,-0.015049219131469727,0.12936396896839142,-0.15171290934085846,1.8155444860458374,0.37840592861175537,0.48310092091560364,-0.1354080548095726,1.7178490645069617,0.897329938676797
1.339491844177246,-0.008304953575134277,0.1390540450811386,-0.13170230388641357,1.7911927700042725,0.271218478679657,0.45647943019866943,-0.13345179066701632,1.7185816778935907,0.8785946143866258
1.3493330478668213,-0.0018104314804077148,0.13331252336502075,-0.11928260326385498,1.7361109256744385,0.17208069562911987,0.4340706765651703,-0.13167038514718543,1.7183604708856848,0.8602902915066971
1.359410047531128,-0.0012750029563903809,0.12259159982204437,-0.11102783679962158,1.664950966835022,0.08242831379175186,0.40899622440338135,-0.1300175617181184,1.7173173201040244,0.8426752872997205
1.369555950164795,-0.006272375583648682,0.12188993394374847,-0.10950672626495361,1.5870579481124878,0.005944016855210066,0.38990920782089233,-0.12846323510798918,1.7155662409868113,0.8258437743780827
1.3793480396270752,-0.011518597602844238,0.12005262076854706,-0.10978938639163971,1.5002613067626953,-0.04957357048988342,0.3732287883758545,-0.1269311219950805,1.7132919998034892,0.8098694166970206
1.3894391059875488,-0.018758058547973633,0.11826086044311523,-0.10645163059234619,1.4122854471206665,-0.08950141072273254,0.35942375659942627,-0.1253841804115407,1.710689214727804,0.7947928712654065
1.3995270729064941,-0.026677608489990234,0.12083177268505096,-0.09824562072753906,1.3181458711624146,-0.1207948848605156,0.34641608595848083,-0.12380812725421733,1.7078701643248129,0.7806517204590768
1.4095969200134277,-0.031301915645599365,0.12581980228424072,-0.08687198162078857,1.2327193021774292,-0.14882484078407288,0.33521246910095215,-0.12219532618111682,1.7048887586075072,0.767446931313484
1.4207549095153809,-0.03082859516143799,0.131440669298172,-0.07309424877166748,1.16572105884552,-0.1660887748003006,0.3308182656764984,-0.12051412706094058,1.7017763154453367,0.7550246693128774
1.4295711517333984,-0.031611084938049316,0.1412176638841629,-0.060894981026649475,1.1314704418182373,-0.18835178017616272,0.3150007724761963,-0.11879678129950175,1.6985646828108263,0.7431247135424385
1.439687967300415,-0.030211329460144043,0.1568652093410492,-0.052834756672382355,1.1132147312164307,-0.19477878510951996,0.3022623360157013,-0.11719142343719342,1.6952688680873982,0.7315265243107286
1.4495890140533447,-0.030630409717559814,0.1701936274766922,-0.03750455379486084,1.1095026731491089,-0.20703038573265076,0.2856360673904419,-0.11566296979119585,1.691892698771236,0.7200481607020165
1.4596028327941895,-0.02786797285079956,0.17837412655353546,-0.023286841809749603,1.0972316265106201,-0.21115562319755554,0.26524025201797485,-0.11426337044105117,1.6884733734933115,0.7086759789471703
1.470088005065918,-0.028901517391204834,0.18271684646606445,-0.011954672634601593,1.0795823335647583,-0.2067369520664215,0.24890613555908203,-0.11301008037745043,1.685091255623901,0.6974491138692598
1.4796669483184814,-0.03214067220687866,0.18673016130924225,0.00011417269706726074,1.05802583694458,-0.19200114905834198,0.23312877118587494,-0.11185809844296203,1.6818320611194961,0.686464309110799
1.489518165588379,-0.026317358016967773,0.1871074140071869,0.015246152877807617,1.020337462425232,-0.16868287324905396,0.22227038443088531,-0.11077228621134518,1.678811472662206,0.675808221170138
1.4995899200439453,-0.0065114498138427734,0.1849256157875061,0.03501175343990326,0.9939225912094116,-0.15249085426330566,0.22295694053173065,-0.10966673855181414,1.6760600920628035,0.6654984728957929
1.509605884552002,0.02987891435623169,0.18452344834804535,0.05330061912536621,0.9833115935325623,-0.15456993877887726,0.22345542907714844,-0.1085056049110603,1.6734142510661942,0.6553731097542997
1.5204129219055176,0.07228446006774902,0.19228574633598328,0.06796012818813324,1.00096595287323,-0.1570647954940796,0.22363518178462982,-0.10732825767450202,1.6707365354184427,0.645219043490079
1.5296070575714111,0.09199315309524536,0.20447617769241333,0.07329702377319336,1.0402944087982178,-0.14948707818984985,0.21965189278125763,-0.10614790752045204,1.668059998969023,0.6347753580235482
1.539736032485962,0.08170628547668457,0.2142329216003418,0.07182858884334564,1.0942885875701904,-0.11966286599636078,0.206772580742836,-0.10508273731831023,1.665524612061836,0.623881495413673
1.5498461723327637,0.05201840400695801,0.2242862582206726,0.06734299659729004,1.1605288982391357,-0.08324693888425827,0.18824544548988342,-0.10419508573770023,1.6632962466358483,0.6123963844151316
1.55983304977417,0.025598645210266113,0.23424604535102844,0.05895436555147171,1.2361810207366943,-0.04892570897936821,0.15616022050380707,-0.10361635900543799,1.6613612531472612,0.6002315885711582
1.5699329376220703,0.01517719030380249,0.24453110992908478,0.05415153503417969,1.3070927858352661,-0.01945299655199051,0.1130906268954277,-0.10344696169788684,1.6596769617303033,0.5873563167357498
1.5796599388122559,0.01173621416091919,0.24911543726921082,0.050552599132061005,1.3697733879089355,-0.0028409971855580807,0.06588582694530487,-0.10377773138943941,1.6581532404853059,0.5738453923085186
1.589684009552002,0.007590770721435547,0.24523204565048218,0.052958011627197266,1.4169740676879883,0.0008194739930331707,0.01610063947737217,-0.10461390259992252,1.6566725221478098,0.5598223346500915
1.5996520519256592,0.012212634086608887,0.24132773280143738,0.05794738978147507,1.4505515098571777,-0.0005587120540440083,-0.03607095405459404,-0.10597755224066487,1.655145202649881,0.5454410150703424
1.6098699569702148,0.0189477801322937,0.2373831868171692,0.062185049057006836,1.4744064807891846,-0.011332174763083458,-0.09136606007814407,-0.10788834292044014,1.6535034204456764,0.5308094137723623
1.6202940940856934,0.031149446964263916,0.2328869104385376,0.0636829137802124,1.4971874952316284,-0.03501486778259277,-0.15044136345386505,-0.1103546130532587,1.6516440822323764,0.515988046992165
1.6298189163208008,0.045780062675476074,0.22673049569129944,0.060986168682575226,1.5175515413284302,-0.07357277721166611,-0.215322345495224,-0.11343273272655822,1.6494031938220979,0.5009964611506647
1.6398730278015137,0.05981004238128662,0.2204301655292511,0.05892765522003174,1.5193192958831787,-0.12157092988491058,-0.2894730269908905,-0.11717919816467429,1.6466775365076218,0.4859094441456705
1.6498780250549316,0.06617438793182373,0.20961347222328186,0.05849289894104004,1.479032278060913,-0.17693521082401276,-0.3751424551010132,-0.12166491778234967,1.6433965070408367,0.47104794224487156
1.6597850322723389,0.061681389808654785,0.18851390480995178,0.06375955790281296,1.377108097076416,-0.22443269193172455,-0.4734325408935547,-0.12696679125021026,1.6396023505909916,0.456946426924868
1.6699671745300293,0.04607516527175903,0.15963530540466309,0.06922769546508789,1.2371021509170532,-0.25645413994789124,-0.5694982409477234,-0.13310054519031245,1.6355016976347532,0.44410215475651155
1.6798210144042969,0.023842275142669678,0.13013401627540588,0.07220578193664551,1.073340654373169,-0.2786337435245514,-0.6725274324417114,-0.14008389268937868,1.631253487307896,0.4328324161379232
1.6898260116577148,-0.0005370974540710449,0.10737977921962738,0.0769498348236084,0.9249998331069946,-0.29063111543655396,-0.7613852620124817,-0.14790442470850296,1.6269811225488655,0.42318852305283794
1.6998510360717773,-0.023370563983917236,0.08995449542999268,0.07709670066833496,0.8226627707481384,-0.29308387637138367,-0.8334831595420837,-0.1564100623646963,1.6227597016209931,0.4148137186318236
1.7099080085754395,-0.035981714725494385,0.08045771718025208,0.07028400897979736,0.7822070717811584,-0.2984057068824768,-0.885551393032074,-0.1654746906028082,1.6185531541621643,0.4071542878227316
1.7199821472167969,-0.0372849702835083,0.08361092209815979,0.066444993019104,0.8032711148262024,-0.31066930294036865,-0.9114692807197571,-0.1748934859222325,1.6141880504155879,0.3995511961737804
1.729936122894287,-0.026276588439941406,0.08949080109596252,0.06780993938446045,0.8559761047363281,-0.32348722219467163,-0.91628098487854,-0.18444143711984928,1.6095491652822151,0.39151713783176295
1.7398738861083984,-0.00874561071395874,0.08973589539527893,0.06855391710996628,0.9383493065834045,-0.3345966041088104,-0.894236147403717,-0.19390183616452136,1.6045816983050802,0.38272707580961013
1.7498111724853516,0.0082588791847229,0.080526202917099,0.07264220714569092,1.0353386402130127,-0.34491482377052307,-0.8605875968933105,-0.2030469724216149,1.599220909466619,0.3729287626270501
1.7599730491638184,0.028823673725128174,0.07450006902217865,0.07950186729431152,1.1225303411483765,-0.36402618885040283,-0.8223877549171448,-0.21180919867257061,1.5934255513278837,0.36209344850982866
1.770298957824707,0.05933660268783569,0.07148854434490204,0.08245134353637695,1.1738123893737793,-0.3889850080013275,-0.7803191542625427,-0.22010999191825228,1.5871282785822298,0.3504414902948957
1.7799749374389648,0.09120982885360718,0.060257524251937866,0.09416389465332031,1.1768531799316406,-0.40123850107192993,-0.7470381259918213,-0.22796686806422276,1.5804591890690434,0.33844446778182846
1.789991855621338,0.10444337129592896,0.03645850718021393,0.1093069314956665,1.145593285560608,-0.4068763852119446,-0.7138975262641907,-0.23540892247311915,1.5736436217990464,0.32652395238404125
1.8000099658966064,0.10834145545959473,0.00904768705368042,0.12489837408065796,1.1012303829193115,-0.4111347794532776,-0.6946894526481628,-0.24251381292714885,1.5667825952029126,0.314936866603814
1.8109550476074219,0.11139202117919922,-0.014112412929534912,0.14378231763839722,1.0510060787200928,-0.4141465723514557,-0.6832261681556702,-0.2493860052569787,1.5598854361996066,0.3037606504250606
1.820383071899414,0.1078527569770813,-0.0317268967628479,0.15842032432556152,1.0077248811721802,-0.40714430809020996,-0.6741452813148499,-0.25608982638651473,1.5530625570043635,0.29301692515363836
1.8300461769104004,0.09715515375137329,-0.04087334871292114,0.16540271043777466,0.982996940612793,-0.3951222598552704,-0.6637411117553711,-0.2626322091749211,1.5463371730744755,0.28257505946063427
1.8400449752807617,0.08320367336273193,-0.041301429271698,0.17091089487075806,0.9840994477272034,-0.38426724076271057,-0.6569993495941162,-0.26902211169018947,1.539676059632104,0.2721958257635208
1.850193977355957,0.0722665786743164,-0.038960427045822144,0.17370128631591797,1.0009911060333252,-0.37105128169059753,-0.6457056999206543,-0.2752570983496104,1.5330239848553102,0.261644425520809
1.8602981567382812,0.060311734676361084,-0.03774330019950867,0.17824995517730713,1.0187543630599976,-0.3528808057308197,-0.6413375735282898,-0.2813387719570203,1.5264072823511985,0.25089343846904844
1.8705358505249023,0.044434964656829834,-0.04083514213562012,0.18373137712478638,1.0528424978256226,-0.3265087902545929,-0.621315062046051,-0.2872146397167581,1.5198602143542674,0.23976611793874036
1.8801450729370117,0.029904961585998535,-0.04954826831817627,0.1827436089515686,1.0970072746276855,-0.2957213222980499,-0.6140846014022827,-0.2928680210837089,1.513401424556379,0.2282020839623042
1.890244960784912,0.015830159187316895,-0.04838818311691284,0.18475282192230225,1.1449289321899414,-0.270943284034729,-0.5970036387443542,-0.2982908205498157,1.5070103964438897,0.21610803319582628
1.9003338813781738,0.00782555341720581,-0.05142337083816528,0.18626564741134644,1.1962870359420776,-0.250886470079422,-0.5790097117424011,-0.30343377638703894,1.5006241995346294,0.20343298621955147
1.9101848602294922,0.005861818790435791,-0.05765855312347412,0.1877070665359497,1.2416415214538574,-0.22990721464157104,-0.5661519169807434,-0.3083083260491285,1.4942140398327906,0.19022956367772545
1.9205660820007324,0.0016211867332458496,-0.061454325914382935,0.18795013427734375,1.2762306928634644,-0.2166111171245575,-0.5499169826507568,-0.3129198874411151,1.4877785727270325,0.17653840375390897
1.9302349090576172,-0.0022231340408325195,-0.06908246874809265,0.18894487619400024,1.2812612056732178,-0.20987500250339508,-0.5348467230796814,-0.3172839383473816,1.4813055835224362,0.16260357285951038
1.9401500225067139,-0.0009454488754272461,-0.07861098647117615,0.19573909044265747,1.2577060461044312,-0.20792503654956818,-0.5186182260513306,-0.3214055588355104,1.4748312050811951,0.14874035296516405
1.9502689838409424,0.0018311142921447754,-0.09466826915740967,0.20420372486114502,1.209153175354004,-0.21239866316318512,-0.5085859894752502,-0.3253375367866928,1.4684132493435251,0.1352238758388706
1.9602508544921875,0.0019248127937316895,-0.10766056180000305,0.2108345627784729,1.138694405555725,-0.21565544605255127,-0.4987450838088989,-0.32914790580896774,1.462093428311357,0.12229323575798133
1.9702959060668945,-0.00042754411697387695,-0.11704146862030029,0.21422581374645233,1.0430737733840942,-0.21824075281620026,-0.4939001500606537,-0.332903878708323,1.4559696207350916,0.11020554243926049
1.9802680015563965,-0.00031554698944091797,-0.12729212641716003,0.2144216150045395,0.929520845413208,-0.22275879979133606,-0.5007867813110352,-0.3367294000068635,1.4501208605056313,0.09917960911375588
1.99039888381958,0.006746649742126465,-0.1395936906337738,0.21574509143829346,0.8030402660369873,-0.23036794364452362,-0.50843346118927,-0.3406961368704605,1.4445884099904938,0.0893739518458055
2.0004680156707764,0.021005570888519287,-0.1500048041343689,0.21547037363052368,0.6687860488891602,-0.24910753965377808,-0.5224800109863281,-0.3448971972267547,1.439329796563632,0.0808943584578993
2.0102829933166504,0.03423076868057251,-0.15799736976623535,0.213023841381073,0.5236746668815613,-0.26593777537345886,-0.5410193204879761,-0.34940504579790205,1.434334466658187,0.07382964006839049
2.0206639766693115,0.04098266363143921,-0.1658758521080017,0.21672384440898895,0.3679031729698181,-0.28865399956703186,-0.5657472610473633,-0.35430299093368006,1.4296438924000903,0.06828179229483268
2.0305428504943848,0.04324746131896973,-0.1755923628807068,0.22266699373722076,0.2118445783853531,-0.313852459192276,-0.5964715480804443,-0.35967356940707057,1.4252331286285187,0.06431890890777622
2.0405759811401367,0.04751700162887573,-0.18506991863250732,0.232310950756073,0.04454798996448517,-0.3358924984931946,-0.6294071078300476,-0.3655834678068104,1.4211373212437168,0.06199120334993218
2.0505170822143555,0.04458743333816528,-0.19560036063194275,0.23576384782791138,-0.11410178989171982,-0.35615620017051697,-0.664393424987793,-0.37208000109525424,1.4174228549988654,0.06130649630803668
2.060739040374756,0.03873741626739502,-0.20457738637924194,0.23931093513965607,-0.2586861252784729,-0.3698810636997223,-0.6938930153846741,-0.37912174984414304,1.4140925547557435,0.06216340935535932
2.0705881118774414,0.03417766094207764,-0.21202871203422546,0.24141184985637665,-0.3808654248714447,-0.3763793408870697,-0.7223863005638123,-0.3866613927216606,1.4111814076509033,0.06438057198687827
2.0804390907287598,0.030657291412353516,-0.21531817317008972,0.242044135928154,-0.47742632031440735,-0.3815631866455078,-0.7395303845405579,-0.3946083858757413,1.4086535935504978,0.06771513322689511
2.0905051231384277,0.031368911266326904,-0.2173454463481903,0.24190835654735565,-0.5585166215896606,-0.37555497884750366,-0.75059574842453,-0.40283519317682376,1.4065036949698655,0.07196503748653693
2.100593090057373,0.03369361162185669,-0.22124668955802917,0.24273912608623505,-0.6248663663864136,-0.3594340682029724,-0.7519813776016235,-0.4112543354453049,1.4047963124480993,0.076984646400132
2.110487937927246,0.036327481269836426,-0.22864586114883423,0.24181772768497467,-0.680085301399231,-0.3336925506591797,-0.7451978325843811,-0.4197585209226383,1.4036137821011303,0.08267284373689904
2.1207990646362305,0.03754371404647827,-0.23401975631713867,0.24218231439590454,-0.718873143196106,-0.307405024766922,-0.7299032807350159,-0.42823263143001017,1.4029688003440897,0.0889102714160905
2.1305229663848877,0.04072558879852295,-0.24191251397132874,0.24039243161678314,-0.7424118518829346,-0.2709473669528961,-0.704886794090271,-0.4365558563416723,1.4028513388443795,0.09554447114933814
2.1407740116119385,0.04226034879684448,-0.24760165810585022,0.2366621494293213,-0.7476354241371155,-0.2324330061674118,-0.6727772951126099,-0.44463379527174673,1.4032581018219956,0.10240874939630824
2.1507339477539062,0.03706616163253784,-0.2510599195957184,0.22922348976135254,-0.756094217300415,-0.1888442486524582,-0.6309865713119507,-0.4523324822840341,1.404187495192906,0.10943656963336738
2.160738945007324,0.029829442501068115,-0.2539372444152832,0.2200574278831482,-0.7412707805633545,-0.1406002789735794,-0.5810827016830444,-0.4595820131709734,1.4056895794768078,0.11657094893398476
2.1708600521087646,0.023412764072418213,-0.2543378174304962,0.2080708146095276,-0.7135501503944397,-0.09752840548753738,-0.5221845507621765,-0.46623716580474334,1.4076382048143037,0.12359975946279612
2.180744171142578,0.01941126585006714,-0.2517462372779846,0.1950768232345581,-0.6920744180679321,-0.05270766839385033,-0.4429245591163635,-0.4721591713180918,1.4100177633108062,0.1305110516189506
2.191200017929077,0.023718714714050293,-0.2550080716609955,0.18257682025432587,-0.683996856212616,-0.01936870627105236,-0.35021764039993286,-0.47718176177039556,1.412855713022354,0.13743830322417044
2.203511953353882,0.050567030906677246,-0.2697652280330658,0.18132734298706055,-0.6851324439048767,-0.017515679821372032,-0.2554682493209839,-0.48125924996444763,1.4159665164630497,0.1445440433518665
2.2112789154052734,0.09529685974121094,-0.28788936138153076,0.18662375211715698,-0.7052432894706726,-0.03450056537985802,-0.15520411729812622,-0.484339372895426,1.4191494475829225,0.15194522702154087
2.2208361625671387,0.12746089696884155,-0.30450987815856934,0.18861514329910278,-0.7518877387046814,-0.03548460453748703,-0.06483825296163559,-0.4865172690713453,1.4224913772465684,0.1598918210748367
2.230649948120117,0.1208067536354065,-0.31067055463790894,0.18331634998321533,-0.8228923678398132,-0.01339119765907526,0.03432358801364899,-0.4878252100581043,1.4263733900412674,0.16868936930999764
2.2406768798828125,0.10095524787902832,-0.32028353214263916,0.16857540607452393,-0.911966860294342,0.0028450293466448784,0.1231866106390953,-0.48827427574755666,1.4309651215773815,0.1785478104879884
2.250699043273926,0.10938376188278198,-0.33330950140953064,0.1639089584350586,-0.9958335161209106,0.005391677375882864,0.22185583412647247,-0.48787123336370686,1.4361886270303403,0.18955244517816724
2.2608470916748047,0.1372731328010559,-0.34781381487846375,0.1693369746208191,-1.057555079460144,0.0028108078986406326,0.32421255111694336,-0.4865166391996487,1.4418450938153389,0.20151662247292937
2.2712349891662598,0.16505813598632812,-0.3519827723503113,0.17268961668014526,-1.0933067798614502,-0.005296120420098305,0.4252672791481018,-0.48413977266774566,1.4477470556598613,0.21415420252244843
2.2808749675750732,0.18561774492263794,-0.34343981742858887,0.1717308759689331,-1.1114636659622192,-0.02212197333574295,0.5161579847335815,-0.4807831555457799,1.4536817483678586,0.22717329747819226
2.2908568382263184,0.20166707038879395,-0.3294462561607361,0.16271542012691498,-1.1224805116653442,-0.03009077161550522,0.6127837300300598,-0.47643263289588056,1.4595267057660182,0.24042268762232924
2.3010668754577637,0.2065606713294983,-0.31817471981048584,0.14721959829330444,-1.1310324668884277,-0.02413487806916237,0.692194402217865,-0.47113923154832027,1.4653852228060777,0.25383055660335996
2.3108060359954834,0.192557692527771,-0.30402642488479614,0.1262931227684021,-1.1328169107437134,-0.004672940820455551,0.7606803774833679,-0.4650486162691559,1.471329873898664,0.2673241907493457
2.320958137512207,0.16745233535766602,-0.28562235832214355,0.10801678895950317,-1.1271883249282837,0.011500169523060322,0.8079096674919128,-0.45829726141372684,1.477369705558188,0.28077236329744054
2.3308401107788086,0.14000195264816284,-0.2689984440803528,0.09146767854690552,-1.1140098571777344,0.014535730704665184,0.8412412405014038,-0.4510710213887225,1.483361665102858,0.29404485719077195
2.3408470153808594,0.11240726709365845,-0.2567017078399658,0.08533935993909836,-1.106489658355713,0.0030196886509656906,0.850266695022583,-0.4435419750881953,1.489130433500675,0.3071291292913102
2.35310697555542,0.08300203084945679,-0.24252203106880188,0.08502013236284256,-1.1014397144317627,-0.02248331904411316,0.8449879884719849,-0.43593193859650925,1.4945717101187983,0.32005375476246245
2.3608930110931396,0.05587571859359741,-0.23038512468338013,0.08282053470611572,-1.119869589805603,-0.05303829908370972,0.826903223991394,-0.42838034643076983,1.499599900578353,0.33293316570046355
2.370905876159668,0.03250467777252197,-0.23038288950920105,0.07840216159820557,-1.1547229290008545,-0.07710817456245422,0.7973893284797668,-0.42102607731649744,1.5043540848139276,0.3460162955901968
2.3809070587158203,0.004956662654876709,-0.23498943448066711,0.07452870160341263,-1.2119954824447632,-0.09751304984092712,0.7665121555328369,-0.41394668587182354,1.5089525284933083,0.3594833106396745
2.3909730911254883,-0.02278447151184082,-0.23798316717147827,0.06899356842041016,-1.2941380739212036,-0.11533549427986145,0.7421953678131104,-0.4071435481914197,1.513542766731731,0.3736311545432196
2.402617931365967,-0.03920614719390869,-0.23872452974319458,0.06629198789596558,-1.3864531517028809,-0.12647470831871033,0.7390488982200623,-0.40046610654851256,1.5182373090291226,0.38864966131037665
2.410849094390869,-0.03680294752120972,-0.24073228240013123,0.0661664605140686,-1.4710521697998047,-0.1380252242088318,0.7436774373054504,-0.3937579202971547,1.5230873209130797,0.404563528802616
2.4208459854125977,-0.018447816371917725,-0.22927290201187134,0.0643734335899353,-1.546937346458435,-0.15299779176712036,0.7593000531196594,-0.3869104467153751,1.5280131814410334,0.4212719082132014
2.4308719635009766,0.01163172721862793,-0.21280431747436523,0.063018798828125,-1.6118483543395996,-0.18071769177913666,0.7845238447189331,-0.3798144239273275,1.5328674842739327,0.4386591372060628
2.440871000289917,0.04574108123779297,-0.19975125789642334,0.067402184009552,-1.669649600982666,-0.2131110578775406,0.8096451759338379,-0.3723917959616409,1.5374983152124206,0.4566202879741689
2.4533028602600098,0.07736557722091675,-0.18618208169937134,0.06321120262145996,-1.7236058712005615,-0.2327384203672409,0.8415758609771729,-0.3646342730787779,1.5419226253028628,0.4750900716506757
2.460983991622925,0.10579633712768555,-0.16890975832939148,0.056153714656829834,-1.785820484161377,-0.2475368082523346,0.8684189319610596,-0.3565137257245161,1.5462381171340147,0.49410804386074697
2.4707820415496826,0.12998586893081665,-0.1543630063533783,0.055388450622558594,-1.872789740562439,-0.25261473655700684,0.8842855095863342,-0.34811944656562965,1.550537760551163,0.5138103977310867
2.480876922607422,0.1435287594795227,-0.14549162983894348,0.05842137336730957,-1.9674052000045776,-0.24915796518325806,0.8961120843887329,-0.3395392962112768,1.554973780970911,0.5343980295697666
2.490833044052124,0.14660871028900146,-0.1344955563545227,0.06382036209106445,-2.0477945804595947,-0.2470095306634903,0.9039469957351685,-0.3307553059400683,1.5595425823078595,0.5558349710542011
2.5022568702697754,0.14454805850982666,-0.11789330840110779,0.06390869617462158,-2.099534034729004,-0.2403082251548767,0.9022689461708069,-0.32187855596105236,1.564180160996137,0.5778627117969706
2.5108089447021484,0.1306610107421875,-0.09687086939811707,0.06221264600753784,-2.120399236679077,-0.22625122964382172,0.905326247215271,-0.3128887537406815,1.5688049099706949,0.6001579093823907
2.5209879875183105,0.10552960634231567,-0.06963947415351868,0.05715334415435791,-2.1230902671813965,-0.20242232084274292,0.9067800641059875,-0.30378256498476597,1.5734410951364328,0.6224671412590961
2.531001091003418,0.07710230350494385,-0.04611563682556152,0.05077779293060303,-2.098017692565918,-0.16869263350963593,0.9118814468383789,-0.2945425409120441,1.5781029751785176,0.6445642150389478
2.5410079956054688,0.044215619564056396,-0.0219537615776062,0.04031956195831299,-2.049809694290161,-0.13300788402557373,0.9200778603553772,-0.285140480265389,1.5827796776768144,0.6661633056494346
2.5524630546569824,0.01482856273651123,0.004989147186279297,0.027548789978027344,-1.9816505908966064,-0.09369336068630219,0.9329078793525696,-0.27553808915584044,1.5874240416477152,0.6870371361662889
2.56107497215271,-0.015070319175720215,0.03376972675323486,0.015047667548060417,-1.8967500925064087,-0.0433708019554615,0.9485342502593994,-0.2657176381006529,1.5920806428485816,0.7070110158945881
2.5709340572357178,-0.04305565357208252,0.05754593014717102,0.004784587770700455,-1.8087921142578125,0.013372682966291904,0.9705217480659485,-0.2556390672710126,1.5968445213440055,0.7259892129098313
2.580967903137207,-0.06920528411865234,0.07508648931980133,-0.004801031202077866,-1.6992632150650024,0.05628766119480133,0.9990847110748291,-0.245266900308202,1.6016411841081537,0.7438399002286955
2.5909619331359863,-0.08617693185806274,0.09556946158409119,-0.012024998664855957,-1.5590696334838867,0.08790590614080429,1.0307848453521729,-0.23453195397326182,1.6062917142826207,0.7602896406826362
2.6022560596466064,-0.09012830257415771,0.12556667625904083,-0.020184636116027832,-1.4315775632858276,0.10370537638664246,1.0595735311508179,-0.22347202154690182,1.610643515781114,0.7752220760603251
2.610980987548828,-0.08535915613174438,0.15199464559555054,-0.02552665024995804,-1.3461289405822754,0.12003640830516815,1.072245478630066,-0.21220433299354366,1.6147481754695459,0.7889628350915158
2.6210999488830566,-0.07621622085571289,0.1582310050725937,-0.02501857653260231,-1.2912940979003906,0.13153646886348724,1.0841410160064697,-0.20078139261687333,1.6186601731696444,0.8019263320962091
2.6309938430786133,-0.07105457782745361,0.1599527895450592,-0.026252511888742447,-1.2397571802139282,0.15111781656742096,1.0851197242736816,-0.18927414674487944,1.6224849251930902,0.8142798333605213
2.6410770416259766,-0.062416911125183105,0.1802394837141037,-0.03797638788819313,-1.2118290662765503,0.16803181171417236,1.0682227611541748,-0.17781285053135829,1.6262459002762755,0.8261301237507704
2.652182102203369,-0.04931449890136719,0.18938927352428436,-0.04417478293180466,-1.2399544715881348,0.1816035509109497,1.0387874841690063,-0.16654322359405904,1.6300307295896175,0.8379225283259824
2.661116123199463,-0.036693692207336426,0.1869424283504486,-0.04491042345762253,-1.3044660091400146,0.19079570472240448,0.9901441335678101,-0.15557292937500705,1.6338743859103688,0.8501520540776139
2.671114921569824,-0.02250760793685913,0.1894938200712204,-0.04691409319639206,-1.367698073387146,0.21006302535533905,0.9360007047653198,-0.1450599314553657,1.637827475701192,0.8630281421472167
2.6810998916625977,-0.011283397674560547,0.19013087451457977,-0.05052018165588379,-1.427463412284851,0.21572543680667877,0.8653014898300171,-0.1350473999272858,1.6418437719367143,0.8764882833425904
2.691200017929077,-0.006285548210144043,0.20166300237178802,-0.047401316463947296,-1.5032777786254883,0.2140337973833084,0.7885292172431946,-0.12569415380767618,1.6458524589883299,0.8906164713044927
2.703207015991211,-0.0011104345321655273,0.21396584808826447,-0.045973777770996094,-1.586011528968811,0.21073919534683228,0.7037632465362549,-0.11702014273934554,1.6498016983565356,0.9055790306236525
2.711106061935425,0.005754530429840088,0.2192908078432083,-0.04041386395692825,-1.6540619134902954,0.19924651086330414,0.6136479377746582,-0.10911170434548662,1.6536365688425942,0.9213383494261735
2.7211618423461914,0.006209254264831543,0.22458656132221222,-0.03380084037780762,-1.6886584758758545,0.17659765481948853,0.5272887945175171,-0.10197568857125178,1.657246805481614,0.9376420931198494
2.7311079502105713,0.00577777624130249,0.23357389867305756,-0.02873743325471878,-1.6887023448944092,0.1405169665813446,0.4402959644794464,-0.0956430302129377,1.660472702642605,0.9541581680912512
2.7411699295043945,0.009088635444641113,0.25056374073028564,-0.025011658668518066,-1.667641520500183,0.10466841608285904,0.3563304841518402,-0.09013455737462525,1.663223901571807,0.9705996678482518
2.752310037612915,0.01221853494644165,0.2621189057826996,-0.026154637336730957,-1.6429075002670288,0.08195152133703232,0.2834603190422058,-0.08538177087021599,1.6655679340667224,0.9868619121461469
2.7612240314483643,0.008101999759674072,0.2696951627731323,-0.03242240846157074,-1.6198769807815552,0.07159236073493958,0.21063193678855896,-0.08134682829598439,1.667670139417657,1.002940619528983
2.771155834197998,-0.0026068687438964844,0.27821651101112366,-0.040284886956214905,-1.5924943685531616,0.07305887341499329,0.1458415389060974,-0.077987504847831,1.6696474987824108,1.0188246319910739
2.7812418937683105,-0.013318002223968506,0.2823324203491211,-0.05045938491821289,-1.5567256212234497,0.08196821808815002,0.0891854539513588,-0.07523681273732026,1.6716073839280612,1.0344448458568933
2.791226863861084,-0.02155768871307373,0.28093329071998596,-0.05873800814151764,-1.5166929960250854,0.10739367455244064,0.04045615345239639,-0.07301351284122201,1.673675270659279,1.0497266688674785
2.802588939666748,-0.03230690956115723,0.27991706132888794,-0.06866322457790375,-1.4694520235061646,0.14279533922672272,-0.0010377608705312014,-0.07124808694635225,1.676007006081427,1.064621547457691
2.811263084411621,-0.038337528705596924,0.27952146530151367,-0.07973216474056244,-1.4194512367248535,0.17128673195838928,-0.037979211658239365,-0.06988554259889528,1.6786029923112056,1.079059051541828
2.8212599754333496,-0.03402364253997803,0.2776159644126892,-0.08901787549257278,-1.3720616102218628,0.19828985631465912,-0.07469089329242706,-0.06891999631229385,1.681419906268775,1.0930474557259209
2.8312859535217285,-0.02664780616760254,0.2738763093948364,-0.09637976437807083,-1.3307855129241943,0.22531387209892273,-0.09985792636871338,-0.06826357811803559,1.6844695924380517,1.10661784463064
2.8413000106811523,-0.024799883365631104,0.26493263244628906,-0.10330365598201752,-1.303767442703247,0.2563176155090332,-0.12979744374752045,-0.0678679915288618,1.6877730857736863,1.1198810771845917
2.8523590564727783,-0.022326290607452393,0.2575581669807434,-0.10616922378540039,-1.2676702737808228,0.2839304506778717,-0.14787901937961578,-0.06771956219413813,1.6913575684380007,1.132869837785063
2.8613171577453613,-0.017318785190582275,0.24952378869056702,-0.11097228527069092,-1.2270959615707397,0.2964877784252167,-0.16867272555828094,-0.06775841554382865,1.6951141690289158,1.1455006911795627
2.8713200092315674,-0.00011408329010009766,0.24709215760231018,-0.11526811122894287,-1.1749863624572754,0.30407270789146423,-0.17930129170417786,-0.06797801268842212,1.6989476640620023,1.1576730441107241
2.881348133087158,0.02756112813949585,0.24497056007385254,-0.12302243709564209,-1.133163571357727,0.3154241740703583,-0.20056715607643127,-0.06836097486087532,1.7028409379108822,1.1693866748855326
2.8912930488586426,0.0678899884223938,0.24203740060329437,-0.13949859142303467,-1.0998135805130005,0.31627801060676575,-0.19552430510520935,-0.06882331219412707,1.7068390946352243,1.1807626790282213
2.9021759033203125,0.12706005573272705,0.2341960072517395,-0.1539609283208847,-1.090374231338501,0.2937018573284149,-0.21896971762180328,-0.0693723343076103,1.7106554547302077,1.1918952084559395
2.9114341735839844,0.19479119777679443,0.22677484154701233,-0.1696826070547104,-1.12992262840271,0.251670777797699,-0.2495008409023285,-0.07011195670001547,1.7141754040795492,1.2032148397605067
2.9212729930877686,0.24158042669296265,0.21168595552444458,-0.18230117857456207,-1.219056487083435,0.1900247186422348,-0.2941684424877167,-0.07110415278573641,1.7172305990439853,1.215246663498028
2.93127703666687,0.252183735370636,0.18929684162139893,-0.18279705941677094,-1.3429887294769287,0.14348247647285461,-0.35140466690063477,-0.07239368235849233,1.7198195179878808,1.2284166494810362
2.94143009185791,0.22691357135772705,0.1660260707139969,-0.17095841467380524,-1.4774357080459595,0.11391659826040268,-0.4145367443561554,-0.07407778674359888,1.722161540105916,1.2429917828294605
2.9521851539611816,0.18708795309066772,0.14708083868026733,-0.15759265422821045,-1.5747346878051758,0.06851542741060257,-0.4720768630504608,-0.07613734037653024,1.7242762825675568,1.2588470597703354
2.9614200592041016,0.1622599959373474,0.13529518246650696,-0.1462123543024063,-1.6148117780685425,-0.0023448942229151726,-0.5339868664741516,-0.07866849284589549,1.725889503934124,1.2754908991506304
2.9714200496673584,0.14874482154846191,0.14078859984874725,-0.1397390365600586,-1.5966172218322754,-0.05541512742638588,-0.5871003270149231,-0.08172986619246148,1.7269160872158074,1.29232826962756
2.981379985809326,0.11761206388473511,0.15121984481811523,-0.1466895192861557,-1.539483904838562,-0.08612989634275436,-0.6216598749160767,-0.08527277288831442,1.7275597571669168,1.3088600972194393
2.9914188385009766,0.07738202810287476,0.16047795116901398,-0.16622911393642426,-1.4627535343170166,-0.09905549883842468,-0.6426511406898499,-0.08918258133975811,1.7279945045108918,1.3247795894730836
3.0021719932556152,0.047599732875823975,0.16182568669319153,-0.18474088609218597,-1.350290060043335,-0.1038755550980568,-0.6554720997810364,-0.09339135431019795,1.7283223123607157,1.3397598358432445
3.011507987976074,0.02771449089050293,0.15790081024169922,-0.20217764377593994,-1.2248514890670776,-0.10155408084392548,-0.6676251888275146,-0.0979320321435912,1.7285892428691825,1.353603494106692
3.021620035171509,0.0017761588096618652,0.15272223949432373,-0.2206590324640274,-1.0927174091339111,-0.08682333678007126,-0.6684369444847107,-0.10272270457025359,1.7288865038431724,1.3661753352271482
3.031658172607422,-0.027008652687072754,0.14726808667182922,-0.23875989019870758,-0.9685095548629761,-0.076578289270401,-0.6653547883033752,-0.10771620749497406,1.7292388319152658,1.377472951752524
3.04160213470459,-0.05079466104507446,0.13511396944522858,-0.2503647804260254,-0.8515893220901489,-0.07311644405126572,-0.6621294617652893,-0.11285198178910633,1.7295869964049553,1.3875657087787991
3.0526680946350098,-0.06442290544509888,0.11952013522386551,-0.25449252128601074,-0.7333365082740784,-0.07892537862062454,-0.6487365961074829,-0.11810480163220159,1.7298482618802717,1.3964929129147237
3.06160306930542,-0.06923985481262207,0.10245246440172195,-0.2568092346191406,-0.6241034865379333,-0.10658629983663559,-0.6432912349700928,-0.12341617935631004,1.729839954481461,1.4042724512968376
3.071671962738037,-0.06852835416793823,0.08987981081008911,-0.25720953941345215,-0.5136741995811462,-0.14516080915927887,-0.6305348873138428,-0.12882964267234343,1.729408357278385,1.4109604117479018
3.081666946411133,-0.06807005405426025,0.07919113337993622,-0.2591140568256378,-0.4071967303752899,-0.19286973774433136,-0.6155503392219543,-0.13425512869826167,1.7284289466310985,1.416523175379756
3.0916759967803955,-0.06907045841217041,0.06834730505943298,-0.2592593729496002,-0.3164140582084656,-0.2505232095718384,-0.6122320890426636,-0.1397796530747881,1.726810857925093,1.4210847359530159
3.102414131164551,-0.06973117589950562,0.05477607250213623,-0.2557610273361206,-0.24547594785690308,-0.31012797355651855,-0.6129260659217834,-0.14541248248956676,1.7244990661114168,1.4248269271049199
3.1116130352020264,-0.06337952613830566,0.03920900821685791,-0.2505652904510498,-0.1879241019487381,-0.37144649028778076,-0.620060384273529,-0.15120118776253827,1.7215333046347445,1.427927231180111
3.1216869354248047,-0.05226898193359375,0.02605217695236206,-0.2428954839706421,-0.1323026567697525,-0.43155378103256226,-0.6255017518997192,-0.1571501462877391,1.717883106196161,1.4304575348791202
3.131625175476074,-0.034162700176239014,0.013957098126411438,-0.2355206161737442,-0.09621180593967438,-0.4863860011100769,-0.648402750492096,-0.16331221730241324,1.7135871396162388,1.432537444732584
3.1418099403381348,-0.013185322284698486,0.005354329943656921,-0.22314929962158203,-0.06596788763999939,-0.5405880212783813,-0.6631364226341248,-0.16971470266937777,1.708711081067497,1.434261202424814
3.1521811485290527,0.010735034942626953,0.006773412227630615,-0.21338728070259094,-0.06063488870859146,-0.5996647477149963,-0.7063149809837341,-0.17643745711218495,1.7032467384637475,1.4358310899851456
3.1618590354919434,0.039267539978027344,0.010547414422035217,-0.19717276096343994,-0.038154613226652145,-0.6651614904403687,-0.7178555130958557,-0.18345798122774,1.6971470647800737,1.4372825662323918
3.171797037124634,0.06837844848632812,0.008162572979927063,-0.17555606365203857,0.010003029368817806,-0.7333554625511169,-0.7446399927139282,-0.19071494456806104,1.6903115690144797,1.4383353188872463
3.181715965270996,0.10079759359359741,0.019447922706604004,-0.1532576084136963,0.06216956302523613,-0.7862698435783386,-0.7687354683876038,-0.19831067074006845,1.682776864020692,1.4388599927414174
3.1918179988861084,0.13184362649917603,0.027794688940048218,-0.12318934500217438,0.10118400305509567,-0.8644067049026489,-0.7881757616996765,-0.20616086636268968,1.6745133370505025,1.4388642639334575
3.2024929523468018,0.18185710906982422,0.023435279726982117,-0.09764028340578079,0.10379789769649506,-0.948455810546875,-0.8073073625564575,-0.21423812448085786,1.665333834434739,1.438589506633572
3.212053060531616,0.23442232608795166,0.004128381609916687,-0.06776225566864014,0.05250236764550209,-1.005043625831604,-0.8278348445892334,-0.22246414971064324,1.655484278889253,1.438499554730662
3.2218518257141113,0.25543028116226196,-0.018852651119232178,-0.03778136521577835,-0.045482516288757324,-1.038606882095337,-0.8529481887817383,-0.23085887523740076,1.6453518758661931,1.4391214911807013
3.231812000274658,0.26218295097351074,-0.03961527347564697,-0.009271979331970215,-0.16720817983150482,-1.0825309753417969,-0.8795377612113953,-0.23945267009103904,1.6350922826503613,1.4408049541454977
3.2418580055236816,0.2615247368812561,-0.05799110233783722,0.019562359899282455,-0.2994671165943146,-1.1115751266479492,-0.9133650064468384,-0.2482940015973133,1.624768201781045,1.4437417624127642
3.25239896774292,0.24564319849014282,-0.0710795521736145,0.04629075154662132,-0.4324433505535126,-1.1139187812805176,-0.9474368691444397,-0.25743104604068556,1.6146325084464876,1.447981173996343
3.2619071006774902,0.21136879920959473,-0.08131378889083862,0.06339502334594727,-0.5645316243171692,-1.0926427841186523,-0.9893086552619934,-0.26695314424307176,1.6049778129184442,1.453555734726001
3.2718780040740967,0.171362042427063,-0.0861152708530426,0.07253050804138184,-0.6634190678596497,-1.0783652067184448,-1.0367043018341064,-0.2769118808782975,1.5958252117705523,1.4602399665869532
3.2819108963012695,0.13811081647872925,-0.08879092335700989,0.07707297801971436,-0.72517991065979,-1.0511343479156494,-1.0796864032745361,-0.28738704317106584,1.587200881189652,1.4677156970394516
3.2919249534606934,0.10679352283477783,-0.0927300751209259,0.08296585083007812,-0.7578514814376831,-1.0132321119308472,-1.117362380027771,-0.2983226322830154,1.5790937135452634,1.475620324736985
3.3023250102996826,0.07309973239898682,-0.09200912714004517,0.0892401933670044,-0.7696263790130615,-0.9760329127311707,-1.1539039611816406,-0.3096890631131709,1.5714941996985066,1.483679241457476
3.3119101524353027,0.04552191495895386,-0.09623956680297852,0.09350138902664185,-0.7673569917678833,-0.9325143098831177,-1.1773325204849243,-0.32141053982999895,1.564384192314166,1.491728784392653
3.321969985961914,0.026775896549224854,-0.10518893599510193,0.09215837717056274,-0.7371117472648621,-0.8873798847198486,-1.187803030014038,-0.3333436275162448,1.557753701057074,1.499563915369942
3.3320751190185547,0.009760379791259766,-0.11411720514297485,0.09505224227905273,-0.6821056604385376,-0.8466240763664246,-1.1812188625335693,-0.3453361903403207,1.5514599072602187,1.5068759549339399
3.342054843902588,-0.004717409610748291,-0.11567389965057373,0.09101235866546631,-0.6277925968170166,-0.8004581928253174,-1.1653187274932861,-0.35726514653133584,1.545473783125205,1.513555022653098
3.352005958557129,-0.01811838150024414,-0.11370453238487244,0.08091986179351807,-0.5762317180633545,-0.7654531598091125,-1.1328182220458984,-0.3689514865613684,1.5397707091899526,1.5196335224284543
3.3621668815612793,-0.02346891164779663,-0.12252625823020935,0.0809820294380188,-0.5318639874458313,-0.7338883280754089,-1.093683123588562,-0.38029980282044473,1.5342541026576644,1.5251524251102686
3.37198805809021,-0.02736562490463257,-0.13166144490242004,0.08791548013687134,-0.4897291660308838,-0.703902542591095,-1.0435782670974731,-0.3912136307346335,1.5289149444880699,1.5301891869327988
3.3818531036376953,-0.030948400497436523,-0.14303240180015564,0.09655970335006714,-0.4561469554901123,-0.6827892661094666,-0.9880219101905823,-0.40158861405357293,1.5237292518943668,1.5348219953124016
3.392007827758789,-0.035733938217163086,-0.1554105281829834,0.10852568596601486,-0.43708646297454834,-0.6708852052688599,-0.9325021505355835,-0.4114102426236633,1.5186424105521317,1.5391416498639985
3.401948928833008,-0.03235888481140137,-0.16513356566429138,0.11881744861602783,-0.4179902672767639,-0.6531820893287659,-0.8738516569137573,-0.42070554260475573,1.5136481705283362,1.543245334929597
3.4119601249694824,-0.02923375368118286,-0.17766180634498596,0.12778156995773315,-0.41602087020874023,-0.6363500952720642,-0.8096979260444641,-0.42936568129889163,1.5088090286660585,1.547243848162699
3.421966075897217,-0.0286179780960083,-0.18840858340263367,0.13242709636688232,-0.42642903327941895,-0.6186136603355408,-0.7508671283721924,-0.43744109503909795,1.5042140384641132,1.5513080198531608
3.4320600032806396,-0.02611011266708374,-0.19497644901275635,0.13300204277038574,-0.45549729466438293,-0.6030528545379639,-0.6915856003761292,-0.4449576772999627,1.4999155860534996,1.555607258150635
3.4421281814575195,-0.018264412879943848,-0.20119419693946838,0.13475900888442993,-0.5009385347366333,-0.5815824270248413,-0.6375694870948792,-0.45195942479231316,1.4960170024663413,1.5603483050413
3.452448844909668,-0.01527392864227295,-0.20962628722190857,0.1318252682685852,-0.5444525480270386,-0.5559731721878052,-0.5842073559761047,-0.45845933352314294,1.4926255681662413,1.565632840522857
3.4621829986572266,-0.023590266704559326,-0.21535173058509827,0.12695437669754028,-0.5879470109939575,-0.5301122665405273,-0.5349625945091248,-0.4644957921187112,1.4897571053385552,1.5714368175833882
3.4721200466156006,-0.03136211633682251,-0.21718177199363708,0.12719738483428955,-0.6284046173095703,-0.501340389251709,-0.48980817198753357,-0.47011766416769923,1.4874153491426183,1.5777536447435343
3.482128143310547,-0.037988901138305664,-0.2200341522693634,0.1314457654953003,-0.6629764437675476,-0.47076573967933655,-0.44478797912597656,-0.47532663610214987,1.4856178587391597,1.584548003233303
3.4921419620513916,-0.04501044750213623,-0.22371411323547363,0.13506287336349487,-0.6852962374687195,-0.4413849413394928,-0.39191585779190063,-0.48007180497192253,1.4843364408891344,1.5917220063619004
3.502261161804199,-0.048130154609680176,-0.22361192107200623,0.1383744478225708,-0.700875997543335,-0.40776199102401733,-0.33687683939933777,-0.48431386517158487,1.4835202657602282,1.5991682269321887
3.5125999450683594,-0.05151468515396118,-0.22269025444984436,0.13965314626693726,-0.7114995121955872,-0.3760537803173065,-0.2710335850715637,-0.4879656268571765,1.483163943406827,1.6068300755362372
3.5223240852355957,-0.04911327362060547,-0.2215789556503296,0.14107424020767212,-0.7061856985092163,-0.33109480142593384,-0.19981428980827332,-0.49095942985684254,1.483264515914186,1.6146042118437467
3.532226085662842,-0.04403257369995117,-0.22265464067459106,0.14042705297470093,-0.6824408769607544,-0.2929631769657135,-0.12109598517417908,-0.4931494636566815,1.4837772572328154,1.6223133369897684
3.5422539710998535,-0.03703433275222778,-0.2216261923313141,0.13672877848148346,-0.6507857441902161,-0.24823035299777985,-0.039681028574705124,-0.49452878368016984,1.4845889943051853,1.6297816406100833
3.552298069000244,-0.03301650285720825,-0.21731466054916382,0.13562119007110596,-0.6032328009605408,-0.20369727909564972,0.05053451284766197,-0.49500467926628056,1.4856908681591916,1.636903312518819
3.5622658729553223,-0.033311545848846436,-0.21271246671676636,0.12676399946212769,-0.5517661571502686,-0.15466874837875366,0.13627658784389496,-0.49456059065005475,1.4870416422034662,1.6435416876347813
3.572258949279785,-0.0342898964881897,-0.20626845955848694,0.11978555470705032,-0.505040168762207,-0.1070144921541214,0.22025462985038757,-0.49322072579283194,1.4886377902040326,1.6496833257977055
3.582257032394409,-0.032748401165008545,-0.19991371035575867,0.11190576106309891,-0.46842435002326965,-0.05721577629446983,0.300437867641449,-0.491013936139115,1.4905304230946101,1.6554301365019994
3.592339038848877,-0.031049013137817383,-0.1968597173690796,0.10186976194381714,-0.43456289172172546,-0.011009888723492622,0.37880995869636536,-0.48796851502209826,1.4927354392197303,1.6608359708100857
3.6023499965667725,-0.028007209300994873,-0.1940799057483673,0.09393566846847534,-0.41029325127601624,0.030540484935045242,0.45727893710136414,-0.48411705288850904,1.4952281706120798,1.6659532080373263
3.6123528480529785,-0.018958747386932373,-0.1916854977607727,0.09025239944458008,-0.3927008807659149,0.05613576993346214,0.5330538749694824,-0.4794521964837988,1.4979543232190131,1.6708829831551149
3.62241792678833,-0.003021240234375,-0.18693780899047852,0.08709794282913208,-0.3706080913543701,0.06768590211868286,0.6129084825515747,-0.47398847939010713,1.500751444095224,1.675631543238754
3.632338047027588,0.015201449394226074,-0.17846542596817017,0.08561176061630249,-0.3561081886291504,0.0823754072189331,0.6803261041641235,-0.467768840534824,1.5035674933561807,1.6801913074567656
3.642402172088623,0.02925693988800049,-0.16803953051567078,0.08642387390136719,-0.3450837731361389,0.07896709442138672,0.7397974133491516,-0.4609038057029348,1.5063729500348986,1.6846191371764865
3.6523828506469727,0.04778242111206055,-0.16227135062217712,0.08900952339172363,-0.3557734489440918,0.06450998783111572,0.7920055985450745,-0.45345507359097736,1.509033281062166,1.6890351542083146
3.662397861480713,0.06635451316833496,-0.1627870500087738,0.09450631588697433,-0.3861939311027527,0.06250382959842682,0.8394085168838501,-0.4455230269587233,1.5116709677574014,1.693678048226567
3.6723828315734863,0.06915527582168579,-0.1630995273590088,0.09717422723770142,-0.44726473093032837,0.07418046146631241,0.8881171941757202,-0.4371269455839909,1.5145397457036966,1.6988190430289003
3.6824069023132324,0.0700576901435852,-0.15913793444633484,0.10130029916763306,-0.5255595445632935,0.10075294971466064,0.9687241911888123,-0.42812442573440057,1.5178908966735962,1.7047273978302309
3.6924140453338623,0.09879565238952637,-0.16192153096199036,0.11299806833267212,-0.6013745069503784,0.09391612559556961,1.0657838582992554,-0.4182244005304146,1.5216773124172533,1.7114991514216098
3.7027230262756348,0.17394733428955078,-0.15726777911186218,0.12943941354751587,-0.6530044078826904,0.037214767187833786,1.1487642526626587,-0.40743008331673225,1.5253282375536152,1.7189284436839178
3.7124199867248535,0.2513238191604614,-0.13748601078987122,0.13901633024215698,-0.6909316778182983,0.015170227736234665,1.2209014892578125,-0.39585155476031936,1.5286198797639394,1.7267857879782338
3.7224678993225098,0.2644006609916687,-0.11220294237136841,0.13538694381713867,-0.7424310445785522,0.03685927763581276,1.2714879512786865,-0.3836453256352314,1.532006966545843,1.7350795676231228
3.7324750423431396,0.22470909357070923,-0.09690269827842712,0.11643779277801514,-0.8196194767951965,0.07747682929039001,1.312017798423767,-0.3709788016887939,1.5358360126896973,1.7439649523063876
3.742398977279663,0.19191116094589233,-0.0930706262588501,0.10774153470993042,-0.9058632850646973,0.1399575173854828,1.3447076082229614,-0.35794387515660575,1.5403928932178321,1.7537189773702972
3.7524759769439697,0.18010205030441284,-0.07710015773773193,0.10569536685943604,-0.9489121437072754,0.1891525387763977,1.3690509796142578,-0.34459116226334097,1.545619202912437,1.7640548558086355
3.762691020965576,0.1810266375541687,-0.04371678829193115,0.09545189142227173,-0.9226533770561218,0.20301508903503418,1.3829199075698853,-0.33100901940232763,1.5510053858191002,1.7743428127131964
3.77250599861145,0.19622385501861572,-0.005527526140213013,0.08311134576797485,-0.867449164390564,0.21803994476795197,1.384055495262146,-0.31728176406665354,1.556200406396474,1.784050741785468
3.7825069427490234,0.1943908929824829,0.023603856563568115,0.06619662046432495,-0.7972319722175598,0.2508394122123718,1.3682653903961182,-0.3035780578769561,1.5612620814277622,1.792982614255588
3.792418956756592,0.15760689973831177,0.048832595348358154,0.043948352336883545,-0.7102885842323303,0.28596577048301697,1.3398023843765259,-0.2900405798887712,1.5662867908884697,1.800987694289678
3.8025898933410645,0.10823184251785278,0.07463547587394714,0.018041491508483887,-0.5985332727432251,0.30965831875801086,1.2841942310333252,-0.2768808071578062,1.5711872269701077,1.8078600503127586
3.8126330375671387,0.05978846549987793,0.10542607307434082,-0.011040568351745605,-0.47059762477874756,0.33337125182151794,1.199631690979004,-0.2644043220567291,1.5758796179186354,1.8133829856458674
3.8226239681243896,0.006931126117706299,0.1352134346961975,-0.04363119602203369,-0.34448814392089844,0.359966903924942,1.091375708580017,-0.25287983959379734,1.5804009268651817,1.8175058217293152
3.832628011703491,-0.0526655912399292,0.15223628282546997,-0.07596862316131592,-0.24731697142124176,0.3800680339336395,0.9606509208679199,-0.24254519745225425,1.5848288586702244,1.8204138005396846
3.8426051139831543,-0.10517638921737671,0.15322694182395935,-0.10002565383911133,-0.18242213129997253,0.3851562738418579,0.8083375692367554,-0.23362778797149492,1.5891532232178798,1.8224565709707607
3.8529229164123535,-0.14891183376312256,0.14623171091079712,-0.11344766616821289,-0.14452224969863892,0.37716200947761536,0.648452639579773,-0.22628481228091718,1.593313009277727,1.823967437265954
3.86270809173584,-0.19023561477661133,0.13267676532268524,-0.11725163459777832,-0.12329764664173126,0.37535664439201355,0.4919298589229584,-0.2205317369736264,1.5973395789154103,1.825185089362245
3.8726210594177246,-0.22643190622329712,0.11542661488056183,-0.11962127685546875,-0.10024609416723251,0.38051334023475647,0.36441484093666077,-0.2161945254534918,1.6013821264435277,1.8262269879139317
3.882697105407715,-0.2371174693107605,0.10425524413585663,-0.12069964408874512,-0.07781002670526505,0.3504864573478699,0.25284144282341003,-0.2130886808064104,1.6052457254904808,1.827030710864873
3.8926520347595215,-0.20704829692840576,0.10153403878211975,-0.11638712882995605,-0.06242258474230766,0.26396942138671875,0.1770792454481125,-0.2109244170133868,1.60846786575149,1.8276481014887618
3.9029488563537598,-0.14604371786117554,0.09646336734294891,-0.09931468963623047,-0.09387104958295822,0.15815268456935883,0.11759941279888153,-0.2094158698216615,1.6107214786736024,1.8283438528112617
3.9126691818237305,-0.07944494485855103,0.07909095287322998,-0.07100212574005127,-0.18900437653064728,0.06889457255601883,0.08484817296266556,-0.20837893429207013,1.612141054280297,1.8297041411396542
3.9227349758148193,-0.01869887113571167,0.04802803695201874,-0.04162561893463135,-0.3677445650100708,-0.023479029536247253,0.0842478945851326,-0.20740797273702039,1.612956324113161,1.8324616183338243
3.93271803855896,0.046494364738464355,0.017661064863204956,-0.0202486515045166,-0.584967851638794,-0.13054703176021576,0.1015956774353981,-0.20628742910782116,1.6131654817769374,1.8372334153916559
3.9427571296691895,0.11176192760467529,0.000989869236946106,-0.0013017691671848297,-0.8123866319656372,-0.20469050109386444,0.13636989891529083,-0.20479985183103322,1.6128917570487646,1.844344412116518
3.952937126159668,0.15963619947433472,0.0019102096557617188,0.00755000114440918,-1.0522480010986328,-0.2643004357814789,0.18111665546894073,-0.20281611550118245,1.6124363274023217,1.8537991970019263
3.962779998779297,0.17423230409622192,0.011697843670845032,-0.0005025863647460938,-1.2688825130462646,-0.2983910143375397,0.22261083126068115,-0.20028624032996076,1.611958662771967,1.865591174752179
3.9727678298950195,0.1722344160079956,0.025666311383247375,-0.00775623694062233,-1.4301955699920654,-0.3327266573905945,0.2499115914106369,-0.1973686489359543,1.611504231397034,1.879296624957511
3.982851982116699,0.15286356210708618,0.04137338697910309,-0.013341188430786133,-1.531774878501892,-0.3555110692977905,0.26723968982696533,-0.19414271745466474,1.610964805207436,1.894328716151164
3.992655038833618,0.10395294427871704,0.0663263201713562,-0.0060825347900390625,-1.6120984554290771,-0.34853124618530273,0.2616528570652008,-0.19085763583939713,1.6104771489101048,1.9102583263246813
4.0029520988464355,0.03555649518966675,0.08506445586681366,0.005264878273010254,-1.6808018684387207,-0.3143557012081146,0.23638588190078735,-0.18770343046426752,1.6102563518599804,1.926927539982066
4.012953042984009,-0.03555035591125488,0.09115935862064362,0.011097073554992676,-1.7013822793960571,-0.2696092128753662,0.2131248116493225,-0.18476197664267927,1.6104950968956522,1.9441077960521704
4.02297306060791,-0.10447275638580322,0.10590888559818268,0.010418295860290527,-1.6474969387054443,-0.21239547431468964,0.17940306663513184,-0.18211403608688603,1.6111663505666816,1.961105479938299
4.0329430103302,-0.15924310684204102,0.13173480331897736,0.00516987219452858,-1.523811936378479,-0.14516592025756836,0.1555154174566269,-0.179794579312245,1.6122662360842888,1.977205229208826
4.043059825897217,-0.1951843500137329,0.15222816169261932,-0.006491184234619141,-1.3481261730194092,-0.0821177139878273,0.14020943641662598,-0.17770045373258017,1.6137124263472615,1.99177555038354
4.053039073944092,-0.21303027868270874,0.16901691257953644,-0.017302989959716797,-1.1292717456817627,-0.018595770001411438,0.13892289996147156,-0.17575876331794613,1.6154127277818047,2.0043218709160104
4.062921047210693,-0.21745145320892334,0.18627378344535828,-0.03061855211853981,-0.8934415578842163,0.04463459923863411,0.1426505297422409,-0.1738847077478348,1.6173155252654912,2.0145424336679016
4.0728919506073,-0.21049493551254272,0.2015947699546814,-0.04232216253876686,-0.6567701101303101,0.10439486801624298,0.16560198366641998,-0.1719782587378213,1.6193932839211689,2.022331122299036
4.082931041717529,-0.1968352198600769,0.2076142579317093,-0.049527764320373535,-0.43299078941345215,0.16004587709903717,0.19703766703605652,-0.1699112255292188,1.6216425321171688,2.027757938400482
4.092900037765503,-0.1778213381767273,0.20549501478672028,-0.05150211602449417,-0.22899825870990753,0.20649565756320953,0.23939818143844604,-0.16755666905149158,1.624014665797559,2.0309635725201494
4.103066921234131,-0.1585620641708374,0.20147204399108887,-0.05135750770568848,-0.07984793186187744,0.24524252116680145,0.27077072858810425,-0.1649210146329011,1.6264933717627656,2.0323460937562694
4.11299204826355,-0.13939809799194336,0.19609513878822327,-0.04857767000794411,0.011877628974616528,0.28375378251075745,0.3050830662250519,-0.16201949000100416,1.6291585807947173,2.0324752089789895
4.122972011566162,-0.11763191223144531,0.18476435542106628,-0.04639768600463867,0.05693112313747406,0.31999966502189636,0.32874658703804016,-0.15887507019082353,1.6320878349079693,2.0319272285334407
4.133136034011841,-0.09346604347229004,0.17490550875663757,-0.04808080941438675,0.0770711600780487,0.34903210401535034,0.34904441237449646,-0.15552424845362547,1.6352943435918452,2.031016678720724
4.14306116104126,-0.07187199592590332,0.16932126879692078,-0.05514645576477051,0.0907297134399414,0.37626877427101135,0.35483279824256897,-0.15206500507969875,1.6387569773003199,2.029923636496657
4.153079032897949,-0.05412989854812622,0.17157191038131714,-0.06405352801084518,0.09845370054244995,0.39699840545654297,0.3504845201969147,-0.1486003644441843,1.6424445788602764,2.0287262128443495
4.162992000579834,-0.0385628342628479,0.17829358577728271,-0.07856225222349167,0.10414940118789673,0.40067464113235474,0.33244985342025757,-0.1452606733835084,1.6462569504132498,2.027456558631664
4.17301082611084,-0.028044521808624268,0.18487615883350372,-0.09042692184448242,0.10589859634637833,0.4008455276489258,0.3015252351760864,-0.1421864331817308,1.6500662577685468,2.026145587836806
4.183060169219971,-0.020559847354888916,0.19144709408283234,-0.10032487660646439,0.10663070529699326,0.39147812128067017,0.26635047793388367,-0.13941802874290313,1.6538485079382517,2.0248239510980928
4.193050861358643,-0.018984079360961914,0.19952592253684998,-0.10908114910125732,0.08851374685764313,0.38606134057044983,0.19933341443538666,-0.1371771964257359,1.6575612810836182,2.0236262578326762
4.203205108642578,-0.02077019214630127,0.20281963050365448,-0.11604345589876175,0.0575433149933815,0.3855561316013336,0.14027541875839233,-0.13554680680638723,1.6612876555147182,2.022741691203275
4.213069915771484,-0.028276443481445312,0.19628377258777618,-0.12550699710845947,0.016082044690847397,0.3794497549533844,0.05950387939810753,-0.13458182206446656,1.665052102307966,2.022269449782386
4.223099946975708,-0.03592526912689209,0.1896667778491974,-0.135345458984375,-0.020755864679813385,0.3687097430229187,-0.01727318949997425,-0.134391689165865,1.6688051513863906,2.0222624269127696
4.233101844787598,-0.04049861431121826,0.18383744359016418,-0.14611338078975677,-0.05470198020339012,0.34808215498924255,-0.09754789620637894,-0.1349311208770796,1.672444307309795,2.022696315361105
4.243208885192871,-0.0398593544960022,0.17666468024253845,-0.1472949981689453,-0.08664526790380478,0.33467820286750793,-0.1697019785642624,-0.13621043443675923,1.6759683485419388,2.023551800422676
4.25320291519165,-0.04322713613510132,0.17008332908153534,-0.1576148271560669,-0.1075008437037468,0.3109164834022522,-0.22777177393436432,-0.13809451815481374,1.6793629052813992,2.0247469090341355
4.2635579109191895,-0.04027003049850464,0.16959115862846375,-0.16910099983215332,-0.12078655511140823,0.2673623561859131,-0.2784016728401184,-0.140502105695536,1.6824504516328993,2.026167462705414
4.273195028305054,-0.02808511257171631,0.17236392199993134,-0.17189228534698486,-0.12250702828168869,0.22047100961208344,-0.3157811164855957,-0.14334262495118233,1.6851015347630516,2.0277356582822907
4.283131122589111,-0.01817864179611206,0.17272670567035675,-0.17229700088500977,-0.11289460957050323,0.17168375849723816,-0.32867321372032166,-0.14643017157232,1.6872730291377542,2.029306578496132
4.293201923370361,-0.01090782880783081,0.17088674008846283,-0.17271779477596283,-0.09147705882787704,0.12770001590251923,-0.3374832272529602,-0.14963269018776096,1.6889538816080882,2.030724299421834
4.30325984954834,-0.004893064498901367,0.16694682836532593,-0.17653262615203857,-0.06717544794082642,0.087305448949337,-0.3277224600315094,-0.15286176428812023,1.6901940901266994,2.031915654950203
4.313200950622559,0.006820321083068848,0.16085673868656158,-0.1814485788345337,-0.03775523602962494,0.0481782890856266,-0.3150588572025299,-0.15599845483445168,1.6910021409168006,2.032829174748832
4.323256969451904,0.025215327739715576,0.15356414020061493,-0.1830780804157257,-0.011811255477368832,0.013830435462296009,-0.2916211783885956,-0.15899460594192083,1.6913833282806592,2.0334494829050036
4.333287000656128,0.03507012128829956,0.14517252147197723,-0.1879192739725113,-0.00472290301695466,0.00389902014285326,-0.26852548122406006,-0.1617761901967864,1.6915043195359976,2.0338548190119186
4.343140125274658,0.03354829549789429,0.13399046659469604,-0.19415068626403809,-0.016413381323218346,0.005060158669948578,-0.2391127496957779,-0.16429416732546093,1.6915917539071355,2.034248410024428
4.353278160095215,0.03011906147003174,0.11831647157669067,-0.1991729736328125,-0.04903177544474602,-0.0008033234626054764,-0.22361820936203003,-0.16657149209689132,1.6917024553199842,2.03483245270791
4.363182067871094,0.03457462787628174,0.10175701975822449,-0.20257830619812012,-0.11404726654291153,0.007623450830578804,-0.20755375921726227,-0.1686489554298469,1.6918881152437362,2.035927145644385
4.3732850551605225,0.03707706928253174,0.08676721155643463,-0.2005394697189331,-0.13886551558971405,0.026642682030797005,-0.16017931699752808,-0.1703575909982558,1.6923041163351045,2.0374660751397817
4.383162975311279,0.056188344955444336,0.08490222692489624,-0.19372785091400146,-0.07652625441551208,-0.00982265081256628,-0.0994640439748764,-0.17152237990508454,1.6926343450982513,2.0387786070341405
4.393187999725342,0.11795896291732788,0.10924425721168518,-0.19337940216064453,0.07081339508295059,-0.10651963204145432,-0.05545210465788841,-0.1722924278052788,1.692075881492062,2.038924905962541
4.403310060501099,0.1798456311225891,0.15395896136760712,-0.20605909824371338,0.20991402864456177,-0.18508847057819366,-0.02704789489507675,-0.17287441603120654,1.6903092901447558,2.0375359589232223
4.413352012634277,0.18036597967147827,0.17497210204601288,-0.212746262550354,0.32139864563941956,-0.21712709963321686,-0.01736624166369438,-0.1734302812716604,1.6877976076167445,2.0348416375616147
4.4233598709106445,0.1360728144645691,0.1546691507101059,-0.20832385122776031,0.38123881816864014,-0.24657341837882996,-0.028211964294314384,-0.17407433174074535,1.6848346084940544,2.031284277340142
4.433420181274414,0.10664349794387817,0.12476326525211334,-0.18471181392669678,0.4055247902870178,-0.2803371250629425,-0.06451617181301117,-0.17500264848075697,1.6814937616593302,2.027345720221183
4.443402051925659,0.1148729920387268,0.11107620596885681,-0.1539328247308731,0.42920321226119995,-0.3260825276374817,-0.10340870916843414,-0.17630431170737343,1.6777130893856191,2.023216547440264
4.453644037246704,0.13994616270065308,0.10396543145179749,-0.1304081678390503,0.4503423273563385,-0.3865136206150055,-0.15793879330158234,-0.17808720139109604,1.6733712729915524,2.0189066774333018
4.463389873504639,0.16534876823425293,0.10158577561378479,-0.12095058709383011,0.4693807363510132,-0.45274192094802856,-0.21185636520385742,-0.1804280458579749,1.668336045591378,2.0144360711370126
4.473405838012695,0.1796063780784607,0.09889739751815796,-0.1136178970336914,0.47169506549835205,-0.5043437480926514,-0.27230745553970337,-0.18330116200098792,1.6626736414770027,2.009878636637472
4.483405113220215,0.1741604208946228,0.09566114842891693,-0.10023080557584763,0.44094276428222656,-0.5476832389831543,-0.3440615236759186,-0.18679544759522768,1.6565703363827102,2.0055090366168726
4.493464946746826,0.15625637769699097,0.09726841747760773,-0.08722151070833206,0.38628655672073364,-0.5843194723129272,-0.42716675996780396,-0.19101578798578067,1.650143374136241,2.0015993406486023
4.5037620067596436,0.143751323223114,0.09903301298618317,-0.0786811113357544,0.32779207825660706,-0.6414554119110107,-0.5466886162757874,-0.19616813765327878,1.6433166274266822,1.998307905230103
4.513698101043701,0.13479840755462646,0.09963306784629822,-0.07254850119352341,0.23441752791404724,-0.6930212378501892,-0.681023895740509,-0.20251448368839262,1.6361037834652425,1.9958545355786972
4.523614883422852,0.11371451616287231,0.08640559017658234,-0.06230175495147705,0.11860517412424088,-0.7212864756584167,-0.8214523792266846,-0.21016699127601857,1.6286814567738153,1.9945108522721209
4.533618927001953,0.07458662986755371,0.05377335846424103,-0.042952779680490494,-0.005376892164349556,-0.7253804206848145,-0.9639197587966919,-0.21914040314774416,1.6213732474735167,1.9944166151854734
4.543545961380005,0.02546936273574829,0.022798582911491394,-0.021722793579101562,-0.09603941440582275,-0.7251995801925659,-1.1093744039535522,-0.22953214905398958,1.6142878811915262,1.9954529736880757
4.553542137145996,-0.014606058597564697,0.00651077926158905,-0.0001885928213596344,-0.1488877385854721,-0.7198986411094666,-1.2234939336776733,-0.2411977720890033,1.6074231233366794,1.9972087573250243
4.563620090484619,-0.038922131061553955,0.0026628077030181885,0.018224118277430534,-0.16999462246894836,-0.7184927463531494,-1.3161677122116089,-0.2538859629266612,1.6007001186344472,1.9993081842405218
4.57365608215332,-0.04100465774536133,0.00300559401512146,0.029439687728881836,-0.14273105561733246,-0.6962026953697205,-1.3836861848831177,-0.26742850984838484,1.594097401443845,2.0013165621508517
4.5834879875183105,-0.02936774492263794,-0.013310998678207397,0.04120194911956787,-0.08017686009407043,-0.6876918077468872,-1.4127042293548584,-0.28144693351355243,1.587535366927034,2.0027781091393257
4.593559980392456,-0.006751298904418945,-0.03647655248641968,0.05515265464782715,0.034277260303497314,-0.6893023252487183,-1.4046648740768433,-0.29559981782100947,1.580742023373226,2.003239607844253
4.603682994842529,0.03484433889389038,-0.04463881254196167,0.07129788398742676,0.18668517470359802,-0.7013978958129883,-1.3553186655044556,-0.30947346925107433,1.5734144651332034,2.00216199182515
4.61360502243042,0.08706456422805786,-0.04154655337333679,0.08355659246444702,0.34280985593795776,-0.719085693359375,-1.2788182497024536,-0.3227077224068436,1.5653909449737686,1.9993392296660015
4.623589038848877,0.14290833473205566,-0.04440492391586304,0.09375685453414917,0.4786318838596344,-0.7404647469520569,-1.1718600988388062,-0.334966253407469,1.5565869391076121,1.994833173549082
4.633630037307739,0.19321930408477783,-0.05548366904258728,0.10510557889938354,0.5645297765731812,-0.7631216645240784,-1.063016414642334,-0.34607240307118226,1.5470766627930328,1.9889962918075454
4.6436238288879395,0.22185438871383667,-0.06467011570930481,0.11768877506256104,0.5735978484153748,-0.7624377608299255,-0.9609048962593079,-0.35606687254046687,1.53717445300559,1.9825767353889887
4.653947830200195,0.22643202543258667,-0.0781678855419159,0.1346588134765625,0.5263553261756897,-0.7674883008003235,-0.856564462184906,-0.3649638571159251,1.5272508548597206,1.9762705366552131
4.663617134094238,0.2125786542892456,-0.10238045454025269,0.15191131830215454,0.44998863339424133,-0.7403831481933594,-0.7790986895561218,-0.3729113207689547,1.517607878376626,1.9705720043843702
4.6736531257629395,0.18823575973510742,-0.11598113179206848,0.16360247135162354,0.3488621115684509,-0.7073734402656555,-0.7268892526626587,-0.38021858901370686,1.5085458933566787,1.9657716989495795
4.683804035186768,0.14583897590637207,-0.134545236825943,0.17644846439361572,0.2316071093082428,-0.657347559928894,-0.7020446062088013,-0.3871728400083917,1.5002968772493521,1.9621188743699047
4.693688869476318,0.09597152471542358,-0.1674070954322815,0.19037562608718872,0.12015698105096817,-0.5991646647453308,-0.6919353008270264,-0.3940150489352082,1.493026402954538,1.9596446749675651
4.70393705368042,0.051262497901916504,-0.19168618321418762,0.2043967843055725,0.033471621572971344,-0.5444177985191345,-0.6968637704849243,-0.4009019108043598,1.486716942541764,1.9582215406522632
4.713719844818115,0.015118420124053955,-0.1997067928314209,0.21703118085861206,-0.03389813378453255,-0.5030112266540527,-0.6963931918144226,-0.40785032069236016,1.4812100205637968,1.9575746389334845
4.7237770557403564,-0.00869441032409668,-0.19641849398612976,0.22600799798965454,-0.041712380945682526,-0.46498021483421326,-0.6868417859077454,-0.41481716568916227,1.4762097051970429,1.95727818998585
4.733725070953369,-0.025080382823944092,-0.18591272830963135,0.23098796606063843,-0.029087847098708153,-0.4212196469306946,-0.6852713823318481,-0.42170509550285673,1.471611042853656,1.9569401158425461
4.743783950805664,-0.03210645914077759,-0.1740390658378601,0.2277492880821228,0.016251936554908752,-0.37489768862724304,-0.6679243445396423,-0.42850287273338333,1.4673459330158636,1.9562911670229557
4.753860950469971,-0.034132182598114014,-0.1733860969543457,0.22497212886810303,0.09709693491458893,-0.3451073467731476,-0.6514145135879517,-0.43502501071679756,1.4631418074681144,1.954897667211571
4.763895034790039,-0.025085628032684326,-0.1756991446018219,0.2158135175704956,0.1838320940732956,-0.31001168489456177,-0.6400137543678284,-0.44132024316890217,1.4588533366138157,1.9525629743718622
4.773819923400879,-0.021345317363739014,-0.17479756474494934,0.2119390368461609,0.2606121301651001,-0.2756090462207794,-0.6158351898193359,-0.44731818936460177,1.454510266239848,1.9492906383564435
4.7837748527526855,-0.02137601375579834,-0.1830196976661682,0.21039478480815887,0.3079245090484619,-0.2461576908826828,-0.6048054695129395,-0.4530608169953064,1.450155568929766,1.9453202406271832
4.793858051300049,-0.011254429817199707,-0.19768232107162476,0.21247845888137817,0.3254327178001404,-0.21990518271923065,-0.5794799327850342,-0.4585655595993661,1.4458919613271277,1.9409758773537906
4.8038740158081055,-0.006415307521820068,-0.21601447463035583,0.21816414594650269,0.3098710775375366,-0.18691261112689972,-0.5613887906074524,-0.4638377215304777,1.4419054941942717,1.9366244877831904
4.813899993896484,-0.007545292377471924,-0.23260310292243958,0.218622624874115,0.2692106068134308,-0.1589587926864624,-0.5333440899848938,-0.4688969370337155,1.4383480122431855,1.9325733821664062
4.823905944824219,-0.010101020336151123,-0.24947568774223328,0.22218231856822968,0.2094535380601883,-0.13084033131599426,-0.5110467672348022,-0.47377385560404234,1.435312167488288,1.9291041817858223
4.8338751792907715,-0.014233589172363281,-0.26315462589263916,0.22531455755233765,0.1450062394142151,-0.11050771176815033,-0.48273909091949463,-0.4784686190540064,1.432860063918761,1.9263625588031332
4.843873023986816,-0.016465187072753906,-0.2725566625595093,0.22796303033828735,0.07997770607471466,-0.0981418564915657,-0.4535428583621979,-0.4829632259722887,1.4308890352808605,1.9243712603645236
4.853930950164795,-0.016749262809753418,-0.27798718214035034,0.22932374477386475,0.019740412011742592,-0.09230639040470123,-0.4184934198856354,-0.4872219147016512,1.4293486291004192,1.9231102536528724
4.864009857177734,-0.018501758575439453,-0.28142106533050537,0.22702302038669586,-0.047156862914562225,-0.08800724893808365,-0.3829205334186554,-0.49121579013962086,1.4282025878261768,1.9226177106352056
4.8739540576934814,-0.018588483333587646,-0.2865944504737854,0.22439390420913696,-0.12321630865335464,-0.07788155227899551,-0.33940616250038147,-0.4949234825396709,1.427536147471175,1.9229858074477786
4.883976936340332,-0.024333655834197998,-0.2951958477497101,0.22274695336818695,-0.20653916895389557,-0.0646352544426918,-0.2901001274585724,-0.49828531708732987,1.4274650217665905,1.924324738021814
4.893962860107422,-0.03227943181991577,-0.30134591460227966,0.21762996912002563,-0.2867389917373657,-0.05044269189238548,-0.2349383533000946,-0.5012415910423881,1.4280290308031458,1.926684887445885
4.903949975967407,-0.036257386207580566,-0.303197979927063,0.21378326416015625,-0.3605317175388336,-0.035765212029218674,-0.1692432314157486,-0.5037030141162532,1.4292090287665404,1.9300301638409716
4.914000034332275,-0.03877568244934082,-0.30400893092155457,0.21110506355762482,-0.4278586506843567,-0.023642458021640778,-0.10037697106599808,-0.5055881681614705,1.4309720974825098,1.9342788765815773
4.923966884613037,-0.042004168033599854,-0.3027133643627167,0.20853103697299957,-0.489254891872406,-0.01352111529558897,-0.025398867204785347,-0.5068459701745947,1.4332651057314358,1.9393827817620524
4.9340739250183105,-0.044091880321502686,-0.29965829849243164,0.20447051525115967,-0.5491068959236145,0.0032093499321490526,0.050544898957014084,-0.5074182945086358,1.4360777366735797,1.9452914948019373
4.944018840789795,-0.0475764274597168,-0.29721054434776306,0.1996850222349167,-0.6093614101409912,0.02129833772778511,0.13385044038295746,-0.5072714087945751,1.439463778630179,1.9520099515015856
4.954042911529541,-0.04856294393539429,-0.296676903963089,0.19917279481887817,-0.6606912612915039,0.036932073533535004,0.22076323628425598,-0.5063294166886506,1.4433785613096597,1.9594934184839765
4.964087009429932,-0.04274040460586548,-0.29260173439979553,0.19503498077392578,-0.6992418766021729,0.05309559404850006,0.3080858886241913,-0.5045493633688807,1.4477592939860022,1.9675995425978028
4.974118947982788,-0.03315114974975586,-0.2840307652950287,0.19097667932510376,-0.7363536357879639,0.07230550795793533,0.39951092004776,-0.5018894615189871,1.4525506684226777,1.976229536961895
4.9840989112854,-0.023103713989257812,-0.2744702696800232,0.18363559246063232,-0.7631892561912537,0.0934470072388649,0.4885806143283844,-0.49833257666870334,1.4577497822443382,1.9853161431267872
4.994154930114746,-0.010269463062286377,-0.2653738856315613,0.17580872774124146,-0.781796932220459,0.11340052634477615,0.5844084024429321,-0.4938537551861831,1.4632716423009584,1.9947418795795113
5.004211902618408,0.005409955978393555,-0.25929543375968933,0.16758102178573608,-0.7955939769744873,0.13820520043373108,0.6789213418960571,-0.48837949460068586,1.4690982620600668,2.0044144436960676
5.014273166656494,0.017561733722686768,-0.2471732497215271,0.15971827507019043,-0.8086960315704346,0.15658783912658691,0.7722356915473938,-0.4819378989763773,1.4751769518377316,2.014268017297046
5.024296998977661,0.0275723934173584,-0.2335188388824463,0.15776938199996948,-0.8114646673202515,0.1734565794467926,0.8687095046043396,-0.4744984242431281,1.4814157822166278,2.0242205477475173
5.035647869110107,0.039086341857910156,-0.22043028473854065,0.15265530347824097,-0.8131341934204102,0.18981876969337463,0.9617810845375061,-0.46606362131100687,1.4877508291866506,2.03418786854568
5.044165134429932,0.049708425998687744,-0.20614275336265564,0.14539361000061035,-0.8261849880218506,0.2304151952266693,1.0646947622299194,-0.4566004202652498,1.4943134773073303,2.044222667830543
5.054218053817749,0.06511765718460083,-0.1953940987586975,0.1424654722213745,-0.8418229222297668,0.26884230971336365,1.1928611993789673,-0.44592773276424535,1.5012696977476223,2.054402191986833
5.064242839813232,0.10959279537200928,-0.1868714988231659,0.14216041564941406,-0.8353168368339539,0.268142968416214,1.3206590414047241,-0.4339110349044691,1.5083364175553517,2.0646088222168335
5.074275970458984,0.18766999244689941,-0.16807985305786133,0.14219129085540771,-0.8091006278991699,0.24698832631111145,1.4401774406433105,-0.42057331231838585,1.515027400483036,2.0745498191086065
5.085477828979492,0.25171273946762085,-0.14095479249954224,0.1434333324432373,-0.7745983004570007,0.24268838763237,1.5526033639907837,-0.40599982803987894,1.5213139741254598,2.0840640873261007
5.094264984130859,0.27465754747390747,-0.11303579807281494,0.13685113191604614,-0.7614041566848755,0.2425519824028015,1.6395554542541504,-0.3903777577867169,1.5272771118143207,2.0931916379382516
5.104233026504517,0.26895928382873535,-0.09004911780357361,0.12461501359939575,-0.7713430523872375,0.2573604881763458,1.696796178817749,-0.37395780864980616,1.5331397625540895,2.1021689693885444
5.1143341064453125,0.25516605377197266,-0.07730498909950256,0.11984038352966309,-0.8047189712524414,0.28839781880378723,1.7348045110702515,-0.35702816115384595,1.5391013483361915,2.111233187778678
5.124263048171997,0.23960304260253906,-0.05887788534164429,0.11499017477035522,-0.8568830490112305,0.334999680519104,1.7513179779052734,-0.33977690684517425,1.5454334023965899,2.1206215692021013
5.13552188873291,0.22610700130462646,-0.02783265709877014,0.09981602430343628,-0.8873811364173889,0.376721054315567,1.744199514389038,-0.32243816469023373,1.5521569080741122,2.130269863617398
5.144309997558594,0.20920473337173462,0.0020115673542022705,0.0759931206703186,-0.8855915069580078,0.4067956209182739,1.7129571437835693,-0.305226520041262,1.5590648990150713,2.139904798671581
5.154422044754028,0.17946583032608032,0.032101988792419434,0.05410188436508179,-0.8723912239074707,0.4443969130516052,1.6540157794952393,-0.2884081187049882,1.566075381934885,2.149274757587239
5.164388179779053,0.1334829330444336,0.06384524703025818,0.032456159591674805,-0.838459849357605,0.4808443784713745,1.5819942951202393,-0.2721908394173881,1.5732037342374896,2.1582279824115957
5.1743810176849365,0.08060604333877563,0.0865633487701416,0.010194063186645508,-0.7882160544395447,0.5143609046936035,1.4921213388442993,-0.25671657759587724,1.5803870750961233,2.1665930033195964
5.185423851013184,0.03623682260513306,0.10928981006145477,-0.013321517035365105,-0.6996417045593262,0.5295726656913757,1.3937726020812988,-0.24214503484573321,1.5874896407800378,2.1741038397247636
5.1944708824157715,-0.001565098762512207,0.13511954247951508,-0.03323256969451904,-0.5930482149124146,0.5304595828056335,1.2816674709320068,-0.22859100398058058,1.594296981905024,2.1804947474109113
5.2043609619140625,-0.037691473960876465,0.15746818482875824,-0.04811596870422363,-0.4832271635532379,0.5256088972091675,1.169971227645874,-0.2161595479991465,1.6007541150946625,2.18567934579922
5.214487075805664,-0.07012736797332764,0.17441324889659882,-0.06381809711456299,-0.38431674242019653,0.5130312442779541,1.053710699081421,-0.20487041380675394,1.6068108417400448,2.1897376719077624
5.22438907623291,-0.09492629766464233,0.18363887071609497,-0.07588982582092285,-0.3202860951423645,0.49972715973854065,0.9339067935943604,-0.19475684457463865,1.612513693283996,2.1928995408362373
5.236928939819336,-0.11047637462615967,0.18222346901893616,-0.0836261510848999,-0.29964470863342285,0.467756450176239,0.8063033223152161,-0.18592668455538905,1.617866870525628,2.1956592870388016
5.2444939613342285,-0.11338680982589722,0.17194989323616028,-0.08710384368896484,-0.29668673872947693,0.42099133133888245,0.71993488073349,-0.17812701720376137,1.6227809094523145,2.1982946859139476
5.254461050033569,-0.0993155837059021,0.1627916842699051,-0.09888482093811035,-0.34024447202682495,0.386373907327652,0.6279005408287048,-0.17120392864604314,1.6273244071530082,2.201123826422202
5.264523983001709,-0.07571887969970703,0.16727232933044434,-0.10267709940671921,-0.42026740312576294,0.3527352511882782,0.5664467215538025,-0.16500319185099,1.6316274416649468,2.2046094664521565
5.274523973464966,-0.03635561466217041,0.15488386154174805,-0.10149037837982178,-0.5262220501899719,0.29703986644744873,0.5168460011482239,-0.15928071235345354,1.635600012748982,2.209044689906871
5.285571098327637,0.01986628770828247,0.14029672741889954,-0.09778189659118652,-0.6704457998275757,0.2535981237888336,0.4825202226638794,-0.15387369172426324,1.639242761779853,2.2147208375741276
5.2945451736450195,0.07647037506103516,0.14168767631053925,-0.1039360761642456,-0.8111315369606018,0.20165079832077026,0.4202875792980194,-0.14882393877784472,1.6426286158266148,2.2218871871570673
5.3044960498809814,0.13201427459716797,0.13697777688503265,-0.11082518100738525,-0.9244306683540344,0.127027690410614,0.3677141070365906,-0.14425329716142352,1.6455250946851747,2.2304035520397725
5.314752101898193,0.18122142553329468,0.13231518864631653,-0.10501433163881302,-1.0121800899505615,0.03498942777514458,0.31770768761634827,-0.1400693425393312,1.6476775208874284,2.2398801466398544
5.324595928192139,0.21241635084152222,0.16043305397033691,-0.09144926071166992,-1.1524924039840698,-0.026518672704696655,0.24976351857185364,-0.13639148319404773,1.6491675116360809,2.2505506814382144
5.335547924041748,0.21705639362335205,0.1516936868429184,-0.07119274884462357,-1.2340147495269775,-0.05536177381873131,0.19463853538036346,-0.13320003757503543,1.6503608137432784,2.262473938954757
5.34453010559082,0.19280803203582764,0.1315200924873352,-0.05627609044313431,-1.2009292840957642,-0.09561491757631302,0.13124704360961914,-0.13056941210355966,1.651219568549543,2.274622559778127
5.354557991027832,0.14375847578048706,0.14020635187625885,-0.04415512830018997,-1.1800066232681274,-0.11503607034683228,0.05182071402668953,-0.12868804834998887,1.6516726906759656,2.2865208677523166
5.364619016647339,0.09371030330657959,0.16261044144630432,-0.032285697758197784,-1.1728829145431519,-0.10015139728784561,0.0011484813876450062,-0.12746841533487308,1.6520940454380597,2.2983597843688472
5.374667167663574,0.05184781551361084,0.15542130172252655,-0.02966892719268799,-1.112833023071289,-0.07675081491470337,-0.03164467215538025,-0.12667079278409107,1.652680023311129,2.30992028132644
5.385685920715332,0.020822644233703613,0.14988215267658234,-0.03951156884431839,-0.979094922542572,-0.047253914177417755,-0.07055079191923141,-0.12630183077479853,1.6533868492177208,2.3205239500537482
5.394654035568237,-0.010354399681091309,0.173129141330719,-0.052277810871601105,-0.7959689497947693,-0.013388358056545258,-0.0842864140868187,-0.12634006366898523,1.6542153971646865,2.329534767971676
5.404635906219482,-0.03677469491958618,0.17627771198749542,-0.06933165341615677,-0.5937016010284424,0.028083451092243195,-0.08860206604003906,-0.1266116217508258,1.6551851848978405,2.3366208384959144
5.414687156677246,-0.05508697032928467,0.16662074625492096,-0.08569921553134918,-0.3724997043609619,0.06452184170484543,-0.08827130496501923,-0.12708659628933192,1.6562658069556615,2.341565750170819
5.424692153930664,-0.0713958740234375,0.17212504148483276,-0.1003187969326973,-0.16986005008220673,0.09406375885009766,-0.07462180405855179,-0.1276599592140859,1.657416458096663,2.344345763460464
5.435605049133301,-0.07831311225891113,0.17602236568927765,-0.1112595796585083,-0.019624104723334312,0.1105823665857315,-0.0650845468044281,-0.1282689813307481,1.6585816933982,2.3453222877241364
5.4446940422058105,-0.07465934753417969,0.16613546013832092,-0.11408662796020508,0.06981523334980011,0.12070797383785248,-0.051567140966653824,-0.12886822859826358,1.6597049809108702,2.345070913011719
5.454733848571777,-0.07195466756820679,0.1439277082681656,-0.11218714714050293,0.09591883420944214,0.12601929903030396,-0.046849243342876434,-0.129428417510931,1.6608317594812052,2.3442445386510657
5.464694023132324,-0.07655835151672363,0.11606660485267639,-0.10544025897979736,0.0715479850769043,0.13372169435024261,-0.039747126400470734,-0.12993476591658845,1.662024959618094,2.343419502450144
5.4746551513671875,-0.08192288875579834,0.08656658232212067,-0.09389960020780563,0.022320931777358055,0.13518878817558289,-0.04026058316230774,-0.13037049540376522,1.6633233407014119,2.342984379661256
5.485615968704224,-0.07986223697662354,0.06659558415412903,-0.08741414546966553,-0.02947062812745571,0.12885312736034393,-0.03118426539003849,-0.13072166954554876,1.6646564533924604,2.3430519549963393
5.494842052459717,-0.06848526000976562,0.05814732611179352,-0.08196413516998291,-0.067843496799469,0.10684923082590103,-0.023895831778645515,-0.130947364905842,1.665908750127931,2.3435732109434495
5.5048840045928955,-0.04891502857208252,0.06066575646400452,-0.0806734561920166,-0.08428692072629929,0.07664605975151062,-0.0180352795869112,-0.13108513451148787,1.6669374058823012,2.344372830883249
5.514955043792725,-0.024474263191223145,0.06852699816226959,-0.08185243606567383,-0.09221556782722473,0.04195621237158775,-0.008777759037911892,-0.1311283301398443,1.66763789889468,2.3452747688422475
5.524965047836304,-0.004889845848083496,0.07187062501907349,-0.08405016362667084,-0.09540603309869766,0.017247671261429787,-0.007176932878792286,-0.13111096880540812,1.6680556396502586,2.346221561290148
5.535715103149414,0.009544610977172852,0.07318094372749329,-0.08094096183776855,-0.09739458560943604,-0.0066573950462043285,-0.00812176987528801,-0.13109753655655543,1.6682291580659472,2.3471972533167627
5.544810056686401,0.021342813968658447,0.07339945435523987,-0.08068276196718216,-0.09933523088693619,-0.02714642323553562,-0.022657569497823715,-0.13115415121695623,1.6681847899572775,2.348202820243306
5.55480694770813,0.029777050018310547,0.07211823761463165,-0.07760442048311234,-0.10030972957611084,-0.0330684520304203,-0.042202506214380264,-0.1335395967094548,1.6659770109256407,2.3489682020876126
5.564882040023804,0.031071722507476807,0.06641069054603577,-0.07891035825014114,-0.10428955405950546,-0.029581841081380844,-0.07126744836568832,-0.13583470892808688,1.6638036049815956,2.349787789514714
5.5750579833984375,0.03102356195449829,0.06170983612537384,-0.08016133308410645,-0.09914562851190567,-0.024433683604002,-0.10320083051919937,-0.1379922861159202,1.6620674115261544,2.3506764054092115
5.585690975189209,0.031288206577301025,0.05819617211818695,-0.07978057116270065,-0.0791572779417038,-0.024833425879478455,-0.14408408105373383,-0.14033846773009465,1.660550933525745,2.3514953962569405
5.594921112060547,0.03442448377609253,0.055779680609703064,-0.08061456680297852,-0.05075780674815178,-0.028173694387078285,-0.18290263414382935,-0.14307226559844308,1.6590484530755736,2.3521071510442213
5.604933977127075,0.029520094394683838,0.05334693193435669,-0.0789339616894722,-0.026352064684033394,-0.030213145539164543,-0.2325889617204666,-0.14622457664367142,1.657445756398919,2.352468146522755
5.615057945251465,0.02141284942626953,0.04779854416847229,-0.07449841499328613,0.0009919244330376387,-0.03201020136475563,-0.27303433418273926,-0.14984416384454868,1.6557937026107383,2.352608629462858
5.624943971633911,0.007575273513793945,0.03501930832862854,-0.07111716270446777,0.02616305649280548,-0.027164045721292496,-0.3111766576766968,-0.15391169352948708,1.6539470431593752,2.3524883172116247
5.6356401443481445,-0.006721794605255127,0.020236387848854065,-0.06589400768280029,0.05693177133798599,-0.032930903136730194,-0.3419572114944458,-0.1585428875811969,1.6516774567132158,2.352040589939715
5.645094871520996,-0.013831675052642822,0.009708285331726074,-0.060784339904785156,0.09225274622440338,-0.037450820207595825,-0.3612094521522522,-0.1636593497413673,1.6484423281809242,2.351114944624838
5.6549248695373535,-0.016476452350616455,-0.0010245144367218018,-0.05588935315608978,0.13280971348285675,-0.03938112035393715,-0.3762407898902893,-0.16920453638195132,1.6438452985413836,2.349584324000596
5.664980888366699,-0.02300405502319336,-0.01433439552783966,-0.053792715072631836,0.16036410629749298,-0.04442168399691582,-0.3830867111682892,-0.17442784505937617,1.6394318501644134,2.3477056248618573
5.674973964691162,-0.03005993366241455,-0.031053557991981506,-0.04597795754671097,0.17369870841503143,-0.048036303371191025,-0.3793450593948364,-0.17939902383418752,1.6348437227465897,2.345591567121273
5.685592174530029,-0.02836400270462036,-0.04923820495605469,-0.035621531307697296,0.18095050752162933,-0.05807135999202728,-0.36549821496009827,-0.1838786749841387,1.6311531709547773,2.3434879384990914
5.694987058639526,-0.018437504768371582,-0.058868736028671265,-0.02897811308503151,0.1836501806974411,-0.0577516071498394,-0.3397347927093506,-0.18788672865299003,1.6280032148670722,2.3414315922147435
5.705034971237183,-0.012584269046783447,-0.062227681279182434,-0.025282494723796844,0.18562358617782593,-0.05202261358499527,-0.3077113628387451,-0.19116712619121745,1.6272266841131706,2.3397702429953537
5.715106010437012,-0.0016444921493530273,-0.06343002617359161,-0.02344786375761032,0.2022048979997635,-0.056892648339271545,-0.2665248215198517,-0.19410224182364186,1.6264454516346283,2.3379900588230416
5.7251060009002686,0.02187037467956543,-0.060652464628219604,-0.020868539810180664,0.23080751299858093,-0.07249797135591507,-0.23320043087005615,-0.19665270683400699,1.6255068547433227,2.335951359601431
5.735564947128296,0.048296451568603516,-0.05073040723800659,-0.016788236796855927,0.2559628486633301,-0.08779361099004745,-0.20085707306861877,-0.19890533807912802,1.6243249907590787,2.333605318327051
5.745085954666138,0.06309592723846436,-0.04556785523891449,-0.011142253875732422,0.26229557394981384,-0.08373761922121048,-0.17157401144504547,-0.20084621280311762,1.6230514857783611,2.331080883694751
5.755110025405884,0.07099175453186035,-0.049455612897872925,-0.0024737119674682617,0.26026618480682373,-0.08471588790416718,-0.14464867115020752,-0.20249380605676154,1.6218040921642016,2.3285237241074155
5.765138149261475,0.08660417795181274,-0.05891922116279602,0.004455693066120148,0.2606970965862274,-0.10161444544792175,-0.12081923335790634,-0.20389919781077917,1.6204440300567526,2.3259448970057384
5.775239944458008,0.09767866134643555,-0.0661560446023941,0.010950207710266113,0.2653298079967499,-0.10422265529632568,-0.11073853075504303,-0.20513451901656163,1.6189645807550879,2.3233366531081336
5.785712957382202,0.08202856779098511,-0.061828166246414185,0.014315247535705566,0.2674289047718048,-0.09342727065086365,-0.11088447272777557,-0.20630930777349746,1.6175323220049902,2.3206952578855025
5.7950758934021,0.046837568283081055,-0.055622413754463196,0.0159531868994236,0.27115145325660706,-0.07895032316446304,-0.10696136951446533,-0.2074677580564239,1.6162271376661013,2.3180154205145813
5.805172920227051,0.013316869735717773,-0.062366336584091187,0.01871931180357933,0.2781718373298645,-0.061566539108753204,-0.09823977947235107,-0.2085432905022771,1.6150621003595655,2.3153122528258545
5.815122127532959,-0.010996460914611816,-0.06844945251941681,0.019888397306203842,0.30456334352493286,-0.04755094274878502,-0.08538401126861572,-0.20953633204299515,1.6140312214623422,2.3124096374023084
5.825325012207031,-0.029615461826324463,-0.0654156357049942,0.02098560705780983,0.35540175437927246,-0.037293512374162674,-0.06532881408929825,-0.2103816135247541,1.6130253652947995,2.309087419454813
5.835744857788086,-0.0394597053527832,-0.057572752237319946,0.02199578285217285,0.4170747399330139,-0.03823871538043022,-0.04119141399860382,-0.21102147098463522,1.6119346133007262,2.3051677344003347
5.845245838165283,-0.04299134016036987,-0.056955963373184204,0.021564718335866928,0.47470957040786743,-0.034939058125019073,-0.013716378249228,-0.2114362276212367,1.6107239663386812,2.3006469482557423
5.855125904083252,-0.04253154993057251,-0.06229431927204132,0.024404648691415787,0.52836012840271,-0.037237584590911865,0.017450328916311264,-0.2115432529266991,1.6093953960863463,2.295537999027235
5.865278005599976,-0.040067076683044434,-0.06313909590244293,0.027637962251901627,0.5663639903068542,-0.04865056276321411,0.039248302578926086,-0.21140846143142,1.6078965893321921,2.289933568282607
5.875461101531982,-0.03475189208984375,-0.06144742667675018,0.034498218446969986,0.5880095362663269,-0.06494534015655518,0.05903223529458046,-0.21106723949648828,1.6061825678487875,2.284003498381874
5.885456085205078,-0.026911556720733643,-0.06751599907875061,0.04727530851960182,0.570589005947113,-0.0719158947467804,0.07322128862142563,-0.21054778230101653,1.6043463642490579,2.278053881096422
5.895477056503296,-0.02054518461227417,-0.08142174780368805,0.06020938977599144,0.5247579216957092,-0.08381444960832596,0.08071979135274887,-0.20989753326759766,1.6024896362039114,2.2724372827685366
5.90530800819397,-0.009949266910552979,-0.09465523064136505,0.07494127750396729,0.4693695306777954,-0.09379944205284119,0.08610709756612778,-0.20916856354788962,1.6006359161043124,2.267345554099221
5.916441917419434,0.0021281838417053223,-0.10369683802127838,0.0892951488494873,0.41858339309692383,-0.10136952251195908,0.09256196767091751,-0.2083504634897776,1.5988099481891807,2.2628044375629304
5.925307035446167,0.010005533695220947,-0.10663703083992004,0.09813582897186279,0.3804171085357666,-0.10355118662118912,0.09145941585302353,-0.2074879074399901,1.5970361927458105,2.258725326401997
5.93557596206665,0.012743115425109863,-0.1013411432504654,0.10380733013153076,0.36187493801116943,-0.10528339445590973,0.0920209139585495,-0.20661366555925248,1.5953051122022057,2.2549333475571873
5.945324897766113,0.013835728168487549,-0.09590120613574982,0.10775470733642578,0.3501589000225067,-0.10525622963905334,0.08925841748714447,-0.20573269588366405,1.5936058385021494,2.251286557778123
5.955452919006348,0.016436398029327393,-0.09279114007949829,0.11098742485046387,0.3556011915206909,-0.10216851532459259,0.08316484093666077,-0.2048938278577557,1.5919361592589425,2.247694518071151
5.965391159057617,0.015545010566711426,-0.08710640668869019,0.11619603633880615,0.36130061745643616,-0.09572366625070572,0.07427441328763962,-0.20412160095930046,1.5902907981005214,2.2440380379885316
5.975561141967773,0.009876728057861328,-0.0865013599395752,0.11857175827026367,0.36330604553222656,-0.08643931150436401,0.058691881597042084,-0.20347260105130305,1.5887346236319233,2.240334651756391
5.985538959503174,0.0018341541290283203,-0.08641760051250458,0.12125957012176514,0.3548707365989685,-0.07215171307325363,0.04134751111268997,-0.20298203151810462,1.5872970771123474,2.2366676786037787
5.996126174926758,-0.007054150104522705,-0.090727299451828,0.12428402900695801,0.3311792016029358,-0.057824086397886276,0.020909883081912994,-0.2026617325570564,1.586046269579388,2.233162803854128
6.005547046661377,-0.015054047107696533,-0.09581811726093292,0.12883269786834717,0.30770212411880493,-0.0355941466987133,0.002174544148147106,-0.20256256242063375,1.585016227631883,2.2299056776570136
6.015645980834961,-0.02076435089111328,-0.09937644004821777,0.13466668128967285,0.2805139124393463,-0.01947896182537079,-0.01244498509913683,-0.20259679651371001,1.5842477589953459,2.2269234074046134
6.025450944900513,-0.023159146308898926,-0.10179170966148376,0.13861870765686035,0.2532932162284851,-0.007064370904117823,-0.026056135073304176,-0.20278821104185019,1.5836873612921527,2.224221122357639
6.035578012466431,-0.02006399631500244,-0.10442228615283966,0.14235103130340576,0.22972869873046875,0.0064817979000508785,-0.024983787909150124,-0.2030280716194769,1.583289168074243,2.2217513850862196
6.04544997215271,-0.018831968307495117,-0.11018921434879303,0.1421438455581665,0.21477290987968445,0.02985636331140995,-0.02218453772366047,-0.20324525573426727,1.5831272947101274,2.219510229299923
6.055516004562378,-0.020417392253875732,-0.1131819635629654,0.14184582233428955,0.21345765888690948,0.04628327488899231,0.0017877464415505528,-0.20332522915307563,1.5831825589944941,2.2173549826078824
6.065556049346924,-0.019441843032836914,-0.11395066976547241,0.13922083377838135,0.23088085651397705,0.05549328401684761,0.02639748528599739,-0.20315970654527832,1.5833384202914191,2.21511563900983
6.076205015182495,-0.013820230960845947,-0.1043553352355957,0.13601219654083252,0.2640227973461151,0.06187900900840759,0.0579787939786911,-0.20272599640554043,1.5835130776971869,2.2125916105408163
6.0856640338897705,-0.011934518814086914,-0.09090122580528259,0.1289522647857666,0.3075771927833557,0.0759815126657486,0.08525995165109634,-0.20199816664045878,1.5837242368927866,2.209692736618688
