timestamp,accel_x,accel_y,accel_z,rotation_x,rotation_y,rotation_z, pitch,roll,yaw
0.042047977447509766,-0.0017216801643371582,-7.56382942199707e-05,0.01673451066017151,0.0070751504972577095,0.005198864731937647,-0.0023749577812850475,-0.1986294699951955,1.3579672337682112,0.1604742165859025
0.05650901794433594,-0.0017755627632141113,0.00032842159271240234,0.01806260645389557,0.008034953847527504,0.007036712020635605,-0.0005799871869385242,-0.1986375881784273,1.358014038572706,0.16039571165857203
0.07326698303222656,-0.0004680752754211426,0.0011277049779891968,0.01898089051246643,0.011912848800420761,0.009444387629628181,0.0037306584417819977,-0.19860055318075148,1.3580764326460153,0.16029761022986405
0.07488608360290527,0.0010749101638793945,-0.000760987401008606,0.019474685192108154,0.01358877681195736,0.010079817846417427,0.00564227532595396,-0.19853479328810456,1.3581531720486097,0.16018490433793156
0.07582712173461914,0.00047588348388671875,-0.0011372566223144531,0.018171802163124084,0.011605686508119106,0.012836277484893799,0.007350853178650141,-0.1984516657447327,1.3582425540500505,0.16007227804577132
0.08506608009338379,5.352497100830078e-05,0.001037880778312683,0.017528966069221497,0.0069912271574139595,0.0137470792979002,0.0063809300772845745,-0.19836528298844835,1.3583598012036235,0.15999155881717855
0.09122323989868164,-3.4332275390625e-05,-0.0011917799711227417,0.017527103424072266,0.0037654072511941195,0.012559663504362106,0.00656388932839036,-0.1982893960050792,1.3584924212528933,0.15994713981274597
0.10126018524169922,0.00020205974578857422,-0.0022269338369369507,0.01763881742954254,0.00016428064554929733,0.01264914683997631,0.007300519850105047,-0.198224628429879,1.3586174530221542,0.15994303228854917
0.11123418807983398,0.00185316801071167,-0.0024521052837371826,0.018051877617836,-0.000682654557749629,0.013112492859363556,0.007372797466814518,-0.19815859480374837,1.3587625095080038,0.1599679553903396
0.12121009826660156,0.0025755763053894043,-0.0012191832065582275,0.017445266246795654,-8.610659278929234e-05,0.011549482122063637,0.0066899629309773445,-0.19808388329057933,1.3588891755119898,0.15998614186727667
0.13123607635498047,0.005026400089263916,-0.002014175057411194,0.01658526062965393,0.0010571221355348825,0.01094583235681057,0.00675622234120965,-0.198023166668594,1.3590089548226914,0.15999632611794637
0.14113426208496094,0.0056157708168029785,-0.0027140676975250244,0.01437099277973175,-0.003913934342563152,0.009417178109288216,0.006382581312209368,-0.1979588844082759,1.3591249758034667,0.16002319068976753
0.15136194229125977,0.004594624042510986,-0.0026970356702804565,0.01414346694946289,-0.011073227040469646,0.008770962245762348,0.0045149060897529125,-0.19792596376837326,1.359236410679888,0.16010654652748554
0.16136503219604492,0.002388596534729004,-0.003920018672943115,0.01685228943824768,-0.018873360008001328,0.007480128668248653,0.00225974153727293,-0.1979282639788884,1.3593553242099057,0.16026599751354265
0.17129111289978027,0.0014702081680297852,-0.005894690752029419,0.01752537488937378,-0.02259541116654873,0.004353976808488369,0.001641195616684854,-0.19795026906045948,1.3594639694704096,0.16048714877576642
0.18161916732788086,0.0009416937828063965,-0.007857367396354675,0.015992671251296997,-0.02536296844482422,0.004075143486261368,-0.0007841451442800462,-0.19800672445440698,1.3595641955956597,0.16073949104761906
0.1914350986480713,-0.0015880465507507324,-0.007024139165878296,0.014178112149238586,-0.027319077402353287,0.005152525380253792,0.002240779809653759,-0.19805949595046896,1.359672029287858,0.1610136533167299
0.2015230655670166,-0.0034668445587158203,-0.007399469614028931,0.012334704399108887,-0.028095655143260956,0.003017735667526722,8.548353798687458e-05,-0.19811550712210627,1.3604782632845516,0.16143849805221117
0.21144819259643555,-0.004801690578460693,-0.008132100105285645,0.012938380241394043,-0.031527068465948105,0.0026216350961476564,0.0010996685596182942,-0.1981468515818083,1.3612158613909555,0.1618638615061768
0.22144699096679688,-0.006174921989440918,-0.009061247110366821,0.012564361095428467,-0.037252333015203476,0.0011973767541348934,0.004382546991109848,-0.19816072368666549,1.3618280023275813,0.16230858573567183
0.2314920425415039,-0.007493495941162109,-0.01119983196258545,0.010410502552986145,-0.04379582032561302,-9.798537939786911e-05,0.006711321882903576,-0.19816312480950765,1.3623872245975228,0.1628126509398154
0.2414531707763672,-0.008180975914001465,-0.013840332627296448,0.011048555374145508,-0.050305116921663284,-0.005334026645869017,0.006167504005134106,-0.19816388663300535,1.362994567371618,0.16340776201096058
0.2515110969543457,-0.00837177038192749,-0.014235109090805054,0.01220005750656128,-0.056858908385038376,-0.010293053463101387,0.007808224763721228,-0.19814632085306438,1.3635445738997545,0.1640581093709211
0.2615242004394531,-0.008821189403533936,-0.015413269400596619,0.01360398530960083,-0.06297086179256439,-0.011347131803631783,0.00870704185217619,-0.19810293669239873,1.3639915741982238,0.1647596598986265
0.271420955657959,-0.009188830852508545,-0.015477746725082397,0.012343525886535645,-0.06479459255933762,-0.010571619495749474,0.011137176305055618,-0.1980597535994897,1.3643369429900563,0.16548703647898572
0.2815542221069336,-0.008770346641540527,-0.012877464294433594,0.01201525330543518,-0.06792274862527847,-0.008237892761826515,0.013001921586692333,-0.1980066867891711,1.3646334811912113,0.16622634765748
0.2916131019592285,-0.007530629634857178,-0.012695908546447754,0.012645140290260315,-0.06568516045808792,-0.0025230152532458305,0.015575333498418331,-0.19793041486539487,1.3649979252027888,0.166976170045979
0.30201196670532227,-0.009712457656860352,-0.011305257678031921,0.011767685413360596,-0.06204408407211304,0.005100549664348364,0.01843396946787834,-0.19780378449101327,1.3654087018602619,0.1676972891431551
0.3118400573730469,-0.010557413101196289,-0.011482074856758118,0.011214450001716614,-0.05321836844086647,0.009531516581773758,0.020128538832068443,-0.19761061755476542,1.365786428345702,0.16835310542737597
0.32206201553344727,-0.010461151599884033,-0.006383240222930908,0.0111846923828125,-0.04797786474227905,0.015245329588651657,0.025230783969163895,-0.19735920274809646,1.3662092798217675,0.1689481596071344
0.3318800926208496,-0.009007573127746582,-0.005272760987281799,0.009697318077087402,-0.045017994940280914,0.019554413855075836,0.024395722895860672,-0.1970981485778656,1.3667043971743758,0.1695043924733421
0.34189414978027344,-0.008695542812347412,-0.006061047315597534,0.00978967547416687,-0.04732349142432213,0.022297468036413193,0.025489216670393944,-0.19682838500041913,1.367254885233504,0.1700532904184535
0.3517160415649414,-0.0075064897537231445,-0.005728229880332947,0.009205594658851624,-0.050784654915332794,0.025008877739310265,0.02531893365085125,-0.19656678990296444,1.3677784029647477,0.1706207176708402
0.3616640567779541,-0.0070909857749938965,-0.005169928073883057,0.00770878791809082,-0.057948824018239975,0.024051737040281296,0.025007078424096107,-0.19633982262875202,1.3683133730067996,0.1712558973375437
0.3717331886291504,-0.003115415573120117,-0.004924967885017395,0.007064655423164368,-0.06340322643518448,0.018896345049142838,0.024368932470679283,-0.1961367291054638,1.3688491191069676,0.17194445975453324
0.3816831111907959,0.000637054443359375,-0.005517721176147461,0.00798887014389038,-0.06851782649755478,0.015042219310998917,0.019977379590272903,-0.19597878858196446,1.3693228717427972,0.17268064808252673
0.3917579650878906,-0.0005405545234680176,-0.004898011684417725,0.007170975208282471,-0.07673459500074387,0.013413740321993828,0.017589109018445015,-0.1958603517481283,1.3697658921122926,0.17347906256512277
0.40186500549316406,-0.003564000129699707,-0.003924086689949036,0.008080363273620605,-0.08288782835006714,0.012741291895508766,0.01515178382396698,-0.19583193112137853,1.3702179052267451,0.17434358146593484
0.41163110733032227,-0.0022710561752319336,-0.004510313272476196,0.008334755897521973,-0.08525162190198898,0.012421890161931515,0.012818056158721447,-0.19583844625206467,1.370635577795396,0.17523773904888734
0.42174720764160156,-0.0005687475204467773,-0.003950178623199463,0.006929114460945129,-0.08591501414775848,0.015699708834290504,0.012824447825551033,-0.19585851758174708,1.3710810768822908,0.17614197012572072
0.43171215057373047,-0.001676023006439209,-0.002272874116897583,0.0041881948709487915,-0.09003061056137085,0.018848231062293053,0.009207822382450104,-0.1958908153246103,1.3715500586091232,0.17707432973333279
0.4417860507965088,-0.0033816099166870117,-0.0026193559169769287,0.0020761191844940186,-0.09457582980394363,0.014165062457323074,0.007956136018037796,-0.19594851399865418,1.3719828209355573,0.17802192458927676
0.45422816276550293,-0.0017223954200744629,-0.004288002848625183,0.0007248073816299438,-0.10247962921857834,0.011352763511240482,0.006820990703999996,-0.1960317975224893,1.3724009668038146,0.17903883760246722
0.4616999626159668,0.00018072128295898438,-0.006656348705291748,0.0016777664422988892,-0.11661887913942337,0.0025233193300664425,0.007186909206211567,-0.19612845276936258,1.3728342082843634,0.18017173156599656
0.47188425064086914,0.0009807944297790527,-0.010400012135505676,0.0016279816627502441,-0.13465777039527893,-0.005261144135147333,0.006086437497287989,-0.19627383671407833,1.3731816767692242,0.18146758884692676
0.4817051887512207,0.0028017163276672363,-0.011138886213302612,0.0027588605880737305,-0.1493682861328125,-0.013730529695749283,0.008337074890732765,-0.1964515544690004,1.3734901263646464,0.18292301735620592
0.4918360710144043,0.005830645561218262,-0.010606169700622559,0.003494828939437866,-0.16036741435527802,-0.015762344002723694,0.010181260295212269,-0.1966240316227713,1.3737810356006608,0.18451592750000503
0.5021162033081055,0.00536578893661499,-0.01142573356628418,0.002850353717803955,-0.16272510588169098,-0.015900030732154846,0.013271059840917587,-0.1967751533195333,1.3740484806506454,0.18619123947535152
0.5118741989135742,0.00477832555770874,-0.011143714189529419,0.0014889389276504517,-0.16614317893981934,-0.017017491161823273,0.015350082889199257,-0.19692321302982035,1.3742364880193645,0.18787214445642986
0.5218639373779297,0.005004584789276123,-0.010161370038986206,0.00019636750221252441,-0.16561640799045563,-0.014548473991453648,0.01807689480483532,-0.19705741474505364,1.3743851676136907,0.18955046432389192
0.5319621562957764,0.0018303990364074707,-0.008268475532531738,-2.0265579223632812e-05,-0.17258544266223907,-0.009658511728048325,0.02072247862815857,-0.19714992596140485,1.3745591673939532,0.1912707078659359
0.5420260429382324,-0.0005180239677429199,-0.011754810810089111,0.0005259811878204346,-0.183055117726326,-0.006853404454886913,0.025335073471069336,-0.19718853961466548,1.3748305172374962,0.19309951068090556
0.5523700714111328,-0.001179516315460205,-0.011356756091117859,-0.0016068071126937866,-0.18917320668697357,-0.007978145033121109,0.031978540122509,-0.19715602052329273,1.3751454956100098,0.19502353054344743
0.5620181560516357,0.003332793712615967,-0.010957062244415283,-0.003183305263519287,-0.1949394941329956,-0.012297261506319046,0.03883245214819908,-0.19705966061459618,1.3754715556699946,0.1970132666628163
0.5721092224121094,0.010086774826049805,-0.009719491004943848,-0.007086336612701416,-0.19855786859989166,-0.023815032094717026,0.04471372440457344,-0.19691798809644617,1.375759316618262,0.19907347438186512
0.5821011066436768,0.014503240585327148,-0.007377505302429199,-0.011301398277282715,-0.20811861753463745,-0.036993421614170074,0.04952685534954071,-0.19672373636523888,1.3759293645343444,0.2012145444053308
0.5921039581298828,0.017843246459960938,-0.007726654410362244,-0.013685762882232666,-0.23004622757434845,-0.05544326454401016,0.04828379675745964,-0.19655076106029643,1.375924465172055,0.2035001893707513
0.6024250984191895,0.02159947156906128,-0.0067415982484817505,-0.014668449759483337,-0.25685012340545654,-0.07452454417943954,0.043066930025815964,-0.19647983388830303,1.3757591276876382,0.20601547927086852
0.6121220588684082,0.021761834621429443,-0.006053030490875244,-0.014554470777511597,-0.289328396320343,-0.09089712798595428,0.03559841588139534,-0.19655565770615346,1.3754632289626525,0.20882067326486725
0.622014045715332,0.020291030406951904,-0.008596524596214294,-0.01692911982536316,-0.32441768050193787,-0.10952115058898926,0.021920420229434967,-0.19676866588053463,1.3750682237036276,0.21195289719359783
0.6320819854736328,0.01980447769165039,-0.006782785058021545,-0.015796124935150146,-0.3504321873188019,-0.13073104619979858,0.010774187743663788,-0.1971597832370274,1.3744935134548728,0.2153560074572062
0.6420931816101074,0.020282328128814697,-0.005613401532173157,-0.017296314239501953,-0.3681025207042694,-0.1520983874797821,-0.0026718471199274063,-0.1977100759315133,1.3737467060409434,0.21895364218718713
0.6522870063781738,0.019916415214538574,-0.007343262434005737,-0.01583731174468994,-0.3884725868701935,-0.17150573432445526,-0.014940603636205196,-0.19843171746867902,1.37280324645057,0.22270987546042356
0.6619911193847656,0.017770886421203613,-0.007964566349983215,-0.011058270931243896,-0.4171329736709595,-0.1804387867450714,-0.027378631755709648,-0.19934568951023499,1.371715094219959,0.22668023771027968
0.6720771789550781,0.011768460273742676,-0.01263892650604248,-0.004763245582580566,-0.4479069113731384,-0.18544001877307892,-0.03584396839141846,-0.20051862925436476,1.370721093446949,0.23094475949785676
0.682244062423706,0.0054222941398620605,-0.019104689359664917,0.0002627521753311157,-0.47892045974731445,-0.18299630284309387,-0.04391707479953766,-0.20183827118738512,1.3697703947055462,0.235504190843628
0.6922721862792969,-0.0005018711090087891,-0.025373980402946472,0.0030762702226638794,-0.5061278343200684,-0.18197506666183472,-0.049967776983976364,-0.20328484159132634,1.3689086202860778,0.24034429550599717
0.703214168548584,-0.006699502468109131,-0.03099164366722107,0.003920614719390869,-0.531275749206543,-0.17484338581562042,-0.05000719428062439,-0.20482996271581716,1.3681537547338116,0.24544542874545658
0.7122650146484375,-0.01205754280090332,-0.03706033527851105,0.007918477058410645,-0.5571049451828003,-0.17199960350990295,-0.04442531242966652,-0.2063998601811524,1.3675134022047537,0.2508039361433315
0.7222590446472168,-0.015163779258728027,-0.043728455901145935,0.012204781174659729,-0.5882173180580139,-0.1662687510251999,-0.0376126803457737,-0.20795911187589913,1.3669855499544037,0.2564546718366252
0.7322440147399902,-0.01391291618347168,-0.04892094433307648,0.012598872184753418,-0.6151162385940552,-0.16724467277526855,-0.024770492687821388,-0.20947664721560688,1.36653949795972,0.26241051681148025
0.7422590255737305,-0.012039780616760254,-0.052789390087127686,0.009762048721313477,-0.6422871351242065,-0.16949264705181122,-0.01460227556526661,-0.21095143062164878,1.3661542157022395,0.2686551516932833
0.7525761127471924,-0.011143982410430908,-0.05663749575614929,0.012895166873931885,-0.6715498566627502,-0.17709574103355408,-0.014779642224311829,-0.21243706454882888,1.3657956716485804,0.2752334470209818
0.7621569633483887,-0.012996673583984375,-0.05920770764350891,0.018567293882369995,-0.7015567421913147,-0.17817673087120056,-0.0025498741306364536,-0.21392714526072457,1.365461797967662,0.28210265735926815
0.7724370956420898,-0.017306089401245117,-0.0639701634645462,0.024617493152618408,-0.7286630868911743,-0.1759505420923233,-0.001815587398596108,-0.2154125074195165,1.365210759434537,0.2892768648850634
0.7823750972747803,-0.01989758014678955,-0.062393754720687866,0.024579346179962158,-0.7474188804626465,-0.17150573432445526,0.010367309674620628,-0.21687613154099095,1.3650559364313977,0.2966974026773579
0.7925310134887695,-0.016127288341522217,-0.061523184180259705,0.023661434650421143,-0.7615817785263062,-0.1628667563199997,0.016475962474942207,-0.21829738026909457,1.3650247881043716,0.304299002356872
0.8027811050415039,-0.012578606605529785,-0.06162136793136597,0.02352401614189148,-0.7623221278190613,-0.15071529150009155,0.02647320181131363,-0.21964855573289083,1.3651218234955989,0.3120011969612547
0.8124542236328125,-0.012297868728637695,-0.061663150787353516,0.026266396045684814,-0.7598441243171692,-0.14160411059856415,0.03793954849243164,-0.22087972835250078,1.3653402985235066,0.3197099249936786
0.8223810195922852,-0.00853496789932251,-0.06147639453411102,0.026332736015319824,-0.760896623134613,-0.13036130368709564,0.04649149253964424,-0.22201777366718728,1.3656807450731834,0.3274352010461751
0.8324050903320312,-0.006071925163269043,-0.06086067855358124,0.0251619815826416,-0.7755023241043091,-0.11356355994939804,0.05523315817117691,-0.22307609998219768,1.3661859116828141,0.3352579342503435
0.8423709869384766,-0.006314516067504883,-0.06263256072998047,0.02146357297897339,-0.7946065068244934,-0.09864453226327896,0.06206363067030907,-0.22409515671870026,1.3669110429615094,0.3432717251434018
0.8525881767272949,-0.009044528007507324,-0.06701973080635071,0.01918816566467285,-0.8252187371253967,-0.09076632559299469,0.06378334760665894,-0.22512063563240303,1.3678075569520012,0.35154145959323047
0.862389087677002,-0.011865973472595215,-0.06790322065353394,0.017853468656539917,-0.8553534150123596,-0.08674787729978561,0.06282354146242142,-0.2261993470063003,1.3688509800987798,0.36012664963089586
0.8725111484527588,-0.01305621862411499,-0.06661535799503326,0.014700442552566528,-0.8764698505401611,-0.09470376372337341,0.06413930654525757,-0.22730481779836964,1.3699439017197397,0.36897849595727605
0.882411003112793,-0.010421514511108398,-0.06689076125621796,0.008998990058898926,-0.9001903533935547,-0.1049279049038887,0.0675516128540039,-0.22841774901602444,1.3710047092752797,0.3780567013774235
0.8930191993713379,-0.008116960525512695,-0.06430329382419586,0.0011546015739440918,-0.9332628846168518,-0.10913156718015671,0.07485798746347427,-0.22953685925668163,1.372056395251393,0.387432768365953
0.9026720523834229,-0.006379187107086182,-0.0637989491224289,-0.001802980899810791,-0.9698600172996521,-0.10942105948925018,0.08517614006996155,-0.23063305915198706,1.3731849371981881,0.39718170511036077
0.9125001430511475,-0.00780797004699707,-0.0672471672296524,-0.008640974760055542,-1.0119807720184326,-0.10701293498277664,0.08919123560190201,-0.2317143829985795,1.3744310862234446,0.4073494762791341
0.9224851131439209,-0.008922398090362549,-0.06715154647827148,-0.015057802200317383,-1.0574177503585815,-0.095786914229393,0.09075956791639328,-0.23283919181017546,1.3758574427516195,0.4179625477388705
0.932502269744873,-0.00892704725265503,-0.06386381387710571,-0.018833592534065247,-1.1000385284423828,-0.0831080973148346,0.09838409721851349,-0.2339925429311222,1.377521105490093,0.4290499128956618
0.9425301551818848,-0.011913895606994629,-0.06589806079864502,-0.023621484637260437,-1.1329354047775269,-0.06665802001953125,0.10872408002614975,-0.23511133326541075,1.3794474126675575,0.44054829040529797
0.9527890682220459,-0.015796363353729248,-0.06282781064510345,-0.029644668102264404,-1.139567255973816,-0.05270806699991226,0.11972709000110626,-0.2361437375381899,1.3816007795685403,0.4522790413438802
0.9625592231750488,-0.021006762981414795,-0.054703325033187866,-0.034792885184288025,-1.1147502660751343,-0.04633165895938873,0.13082954287528992,-0.2370156925688669,1.38383592363536,0.463940170301191
0.972501277923584,-0.02106308937072754,-0.045732975006103516,-0.041444599628448486,-1.0629997253417969,-0.04420436918735504,0.14222754538059235,-0.23769262642235142,1.3860403094731746,0.4752377232847201
0.9825582504272461,-0.021552205085754395,-0.03762128949165344,-0.04822242259979248,-1.0073093175888062,-0.044352706521749496,0.15784965455532074,-0.2381070229492509,1.3881327055325676,0.4859956235335029
0.992523193359375,-0.020774245262145996,-0.02810622751712799,-0.05231104791164398,-0.9482383131980896,-0.04591159150004387,0.16822005808353424,-0.23827064243529217,1.3900883073282828,0.49620750934354774
1.0026350021362305,-0.015743374824523926,-0.021820619702339172,-0.05164800584316254,-0.9138624668121338,-0.04550545662641525,0.17411629855632782,-0.2382402806673131,1.3919177716034004,0.5059434652382727
1.0124671459197998,-0.010297000408172607,-0.021101728081703186,-0.04726748168468475,-0.9100980162620544,-0.04682083800435066,0.17642520368099213,-0.23812858960452002,1.3937241946067342,0.5154759243267264
1.0225110054016113,-0.007709383964538574,-0.02583429217338562,-0.04104340076446533,-0.954149067401886,-0.04185803607106209,0.179534450173378,-0.23800539286402622,1.3955650866784668,0.5252408910995335
1.0324792861938477,0.003829658031463623,-0.029655873775482178,-0.03854285180568695,-1.0359432697296143,-0.03630015254020691,0.18113894760608673,-0.23794966305831297,1.3976420484464906,0.5356414743481415
1.0425472259521484,0.016924023628234863,-0.03794442117214203,-0.044033393263816833,-1.0968399047851562,-0.02656257152557373,0.1973072588443756,-0.23790565666505828,1.3999518974842022,0.5468110379378295
1.0526280403137207,0.03063380718231201,-0.03841465711593628,-0.05396707355976105,-1.1604117155075073,-0.03147778660058975,0.18535780906677246,-0.2379185448583316,1.4024366114433515,0.5585864340189707
1.0625,0.039314329624176025,-0.02800089120864868,-0.05783264338970184,-1.2095340490341187,-0.04228116571903229,0.18978451192378998,-0.2380523249523714,1.4050000517730798,0.5709649083064914
1.0725841522216797,0.03151226043701172,-0.02864435315132141,-0.04979102313518524,-1.2424243688583374,-0.0633857473731041,0.1784689575433731,-0.2382277232964024,1.4074916824126156,0.5837532154789153
1.0827751159667969,0.01768738031387329,-0.01896701753139496,-0.04955625534057617,-1.2614747285842896,-0.08432777971029282,0.1659502387046814,-0.23855414394583344,1.4098274606513566,0.5967694771315765
1.0927650928497314,0.0009837746620178223,-0.0049962252378463745,-0.04745112359523773,-1.273386001586914,-0.10646597295999527,0.14830616116523743,-0.23901599825049233,1.411973382198602,0.6099231222211235
1.1028642654418945,-0.016641676425933838,0.0010914355516433716,-0.041555389761924744,-1.2773261070251465,-0.12293495982885361,0.13085420429706573,-0.23964486952548242,1.4139467570334083,0.6231356341470392
1.112713098526001,-0.032402098178863525,0.006284624338150024,-0.035968855023384094,-1.26822829246521,-0.12831339240074158,0.119501993060112,-0.2403936052159924,1.41580840911287,0.6362987915252769
1.122791051864624,-0.03972971439361572,0.012811645865440369,-0.032459452748298645,-1.2499752044677734,-0.13149532675743103,0.11168614774942398,-0.2411830587005776,1.4175910597815382,0.6493020884282592
1.1328539848327637,-0.03754425048828125,0.01761545240879059,-0.03141438961029053,-1.230165958404541,-0.1280503123998642,0.11047270894050598,-0.24197158374078434,1.4193501026475381,0.6621137079368529
1.142827033996582,-0.03177690505981445,0.020759716629981995,-0.03107619285583496,-1.1929539442062378,-0.11590230464935303,0.11646828800439835,-0.24267791369725164,1.42113336309916,0.6746480928501755
1.1530160903930664,-0.020890474319458008,0.025385648012161255,-0.031925007700920105,-1.1536140441894531,-0.1080884113907814,0.12728039920330048,-0.24320979398128803,1.4229198152630338,0.6868057480182185
1.1627881526947021,-0.011657536029815674,0.027305662631988525,-0.03300778567790985,-1.1016309261322021,-0.09865628927946091,0.13373802602291107,-0.2435740577274661,1.4247018088414771,0.6985110766033109
1.172882080078125,-0.00509190559387207,0.03364364802837372,-0.03327679634094238,-1.0390256643295288,-0.09446203708648682,0.1388523131608963,-0.243772736307935,1.4264207350967244,0.7096464096490326
1.1828241348266602,-0.0023062825202941895,0.0368315726518631,-0.029798567295074463,-0.9829692840576172,-0.0934273973107338,0.13864032924175262,-0.2438368394210167,1.4280080138325904,0.7201626086994202
1.1928329467773438,0.0010360479354858398,0.041894346475601196,-0.027521073818206787,-0.931476354598999,-0.09160641580820084,0.13086645305156708,-0.2438557984160065,1.429480399239405,0.7301353443223993
1.2031960487365723,-0.0006389021873474121,0.04836256802082062,-0.02313949167728424,-0.8944592475891113,-0.08782419562339783,0.11840419471263885,-0.24388882867036218,1.4308584902900356,0.7396218949116109
1.212881088256836,-0.005831778049468994,0.04742279648780823,-0.018123075366020203,-0.8570091128349304,-0.07508549839258194,0.10242889821529388,-0.24400811502407396,1.4322395818837452,0.7487100678807993
1.2227330207824707,-0.013579905033111572,0.045634716749191284,-0.015620633959770203,-0.810944676399231,-0.06056061387062073,0.08356253057718277,-0.24423113680976563,1.4336448558484536,0.7573735757802033
1.232943058013916,-0.01571255922317505,0.04957255721092224,-0.019412338733673096,-0.7606412172317505,-0.04836711287498474,0.06266540288925171,-0.2445760358695009,1.4350535990249007,0.7655114690707497
1.242825984954834,-0.0165482759475708,0.05516234040260315,-0.025014281272888184,-0.7006697654724121,-0.033223316073417664,0.04225919395685196,-0.24504263801142614,1.436468300009877,0.773058193674536
1.2527551651000977,-0.023062527179718018,0.05699892342090607,-0.03248625993728638,-0.62870854139328,-0.022491618990898132,0.023532966151833534,-0.2456032251137179,1.4378570044702752,0.7799166235549464
1.2626872062683105,-0.0242769718170166,0.0569189190864563,-0.036866068840026855,-0.5529688000679016,-0.018666787073016167,0.0052956389263272285,-0.2462363331656632,1.439121906532808,0.7859804677118541
1.2730522155761719,-0.0197412371635437,0.06007362902164459,-0.04162627458572388,-0.4884207546710968,-0.020962920039892197,-0.012242501601576805,-0.2469483708687191,1.4402086917449692,0.7912923627649558
1.2830440998077393,-0.013190686702728271,0.060820892453193665,-0.044431641697883606,-0.4477899968624115,-0.023360829800367355,-0.030581561848521233,-0.2477672033451874,1.4411474894745289,0.7960366213655066
1.2931690216064453,-0.004886448383331299,0.054482221603393555,-0.04669804871082306,-0.42334482073783875,-0.025980403646826744,-0.04267982020974159,-0.24870241289402942,1.4419663925312507,0.8004367848126006
1.303110122680664,0.009560346603393555,0.0447898805141449,-0.04944413900375366,-0.4144269526004791,-0.028514133766293526,-0.06006120890378952,-0.2497604233414493,1.4427249486290274,0.8046550520297937
1.313110113143921,0.023966431617736816,0.03821970522403717,-0.05691862106323242,-0.41758325695991516,-0.04183273762464523,-0.07605961710214615,-0.2509665915742158,1.4433815527792864,0.8088318319629938
1.3230161666870117,0.03799569606781006,0.033420026302337646,-0.05727177858352661,-0.4216216802597046,-0.06382059305906296,-0.08356760442256927,-0.25229870252510966,1.443896005541736,0.8130144245719269
1.3331122398376465,0.05243325233459473,0.028964966535568237,-0.05626225471496582,-0.4252110719680786,-0.08970332145690918,-0.0958210751414299,-0.25373239959572697,1.4441639637483146,0.8172260916907954
1.3431460857391357,0.06808656454086304,0.028116226196289062,-0.05876766890287399,-0.432319313287735,-0.11798422783613205,-0.1131417378783226,-0.2553188476084893,1.4441781204693112,0.8214827181264573
1.3530640602111816,0.07669883966445923,0.0264204740524292,-0.06328355520963669,-0.4491795003414154,-0.14901085197925568,-0.13251778483390808,-0.25710337651848697,1.4439269895199311,0.8258392509432986
1.363077163696289,0.07883286476135254,0.02070075273513794,-0.06334535777568817,-0.4695872962474823,-0.1851169317960739,-0.15546225011348724,-0.25912102254058517,1.443382404676412,0.8303618812148273
1.37312912940979,0.077251136302948,0.014721482992172241,-0.06131470203399658,-0.4952116906642914,-0.22142335772514343,-0.18470993638038635,-0.26142421970957697,1.4425380852682328,0.8350908406019301
1.3830022811889648,0.07117706537246704,0.010476946830749512,-0.06124866008758545,-0.5202499628067017,-0.2584037482738495,-0.2145802229642868,-0.2640657032681633,1.4413892191782693,0.8400454370668483
1.3931269645690918,0.05442154407501221,0.00307270884513855,-0.0583643913269043,-0.5430349111557007,-0.2943773865699768,-0.24725103378295898,-0.267058226586811,1.43994270685455,0.8452036166846215
1.4031341075897217,0.033684611320495605,-0.002778947353363037,-0.05546240508556366,-0.5554683804512024,-0.33143898844718933,-0.2852657735347748,-0.2704371446647613,1.438171977921181,0.8504880059324168
1.4130911827087402,0.011730551719665527,-0.008242249488830566,-0.055566951632499695,-0.5684183835983276,-0.3681807816028595,-0.31952327489852905,-0.27419254280179206,1.4360783998281235,0.8558456675977215
1.42313814163208,-0.009832918643951416,-0.013082355260848999,-0.05252188444137573,-0.5650609135627747,-0.3993280529975891,-0.35359495878219604,-0.27831938854034466,1.4336522897805242,0.861207704947118
1.4331302642822266,-0.02724224328994751,-0.021840214729309082,-0.049586519598960876,-0.5564166307449341,-0.4351690113544464,-0.37364324927330017,-0.282717257870476,1.4308883719312386,0.8664599239473517
1.443169116973877,-0.04076790809631348,-0.03138965368270874,-0.04239140450954437,-0.5400469899177551,-0.46718233823776245,-0.3818175494670868,-0.28726204092811114,1.4277670368711695,0.871564052171001
1.4535841941833496,-0.04529094696044922,-0.03797423839569092,-0.03665059804916382,-0.5133566856384277,-0.5019632577896118,-0.37427395582199097,-0.2917921706789862,1.424268157616967,0.8764204376367893
1.4632620811462402,-0.03797858953475952,-0.045929163694381714,-0.029769837856292725,-0.4949268102645874,-0.5343630313873291,-0.3534296452999115,-0.2961658138480054,1.420379627595255,0.8810498058401746
1.4736430644989014,-0.024340689182281494,-0.05248388648033142,-0.022962570190429688,-0.49200695753097534,-0.5614739060401917,-0.31915056705474854,-0.30026153617944207,1.416194851468805,0.8855986434326779
1.4832980632781982,-0.00456005334854126,-0.06510841846466064,-0.012716054916381836,-0.5127535462379456,-0.5866705775260925,-0.27129408717155457,-0.3039752950484791,1.4118126465605474,0.8902878178702117
1.4934360980987549,0.022388219833374023,-0.0781082808971405,-0.0006324499845504761,-0.5618399381637573,-0.6098423004150391,-0.21834193170070648,-0.30727063979242275,1.4073329943943258,0.8954204577611544
1.5033631324768066,0.05464160442352295,-0.08785179257392883,0.015119209885597229,-0.6341343522071838,-0.6329836249351501,-0.16118410229682922,-0.31014632652063023,1.4028390851686892,0.9012621532933442
1.513242244720459,0.08387726545333862,-0.09765294194221497,0.030643582344055176,-0.72607421875,-0.6588982343673706,-0.10927547514438629,-0.31263620347906773,1.3984171659192852,0.9080534174626642
1.523313045501709,0.09951508045196533,-0.10394233465194702,0.04290987551212311,-0.8354946970939636,-0.6897552013397217,-0.06943671405315399,-0.3148849787896042,1.3940714095194553,0.9159591295149675
1.5354580879211426,0.09646159410476685,-0.10694292187690735,0.05889540910720825,-0.9568318724632263,-0.7177132964134216,-0.04373486340045929,-0.3170304933137931,1.3898396287012353,0.9251274117268161
1.5433430671691895,0.0851595401763916,-0.1094960868358612,0.07575714588165283,-1.0799555778503418,-0.7484363317489624,-0.03020360693335533,-0.31925265829640803,1.385733284904546,0.93560132514973
1.5533061027526855,0.07202446460723877,-0.11102405190467834,0.09223847091197968,-1.196376919746399,-0.7736717462539673,-0.03132282570004463,-0.3216825820280274,1.3817661527545613,0.947340379492749
1.5633959770202637,0.0531119704246521,-0.10771793127059937,0.10306493937969208,-1.2975267171859741,-0.7930059432983398,-0.04038529843091965,-0.32440729302442184,1.3779593224208817,0.9602021213227275
1.573369026184082,0.03487515449523926,-0.10157942771911621,0.11058229207992554,-1.3806260824203491,-0.8072492480278015,-0.055385392159223557,-0.3274789386861122,1.3743291578828678,0.9739878183964615
1.5834240913391113,0.018996238708496094,-0.09537050127983093,0.11654430627822876,-1.4488636255264282,-0.8120613098144531,-0.0741625428199768,-0.33091497537046777,1.3708907827324286,0.988522188958658
1.5938539505004883,0.004461467266082764,-0.09195888042449951,0.12177401781082153,-1.5080331563949585,-0.806971549987793,-0.08944418281316757,-0.3346833879496931,1.367712515352177,1.0036845662038794
1.6036131381988525,-0.00778728723526001,-0.09101420640945435,0.12459120154380798,-1.5633941888809204,-0.7933225631713867,-0.09841158241033554,-0.3387264685337125,1.3648824968435043,1.019425661528361
1.6133091449737549,-0.01650559902191162,-0.0910816490650177,0.12725409865379333,-1.6123462915420532,-0.7742477059364319,-0.10698036104440689,-0.34300750637815874,1.3624537829161991,1.0357108741594965
1.6233291625976562,-0.020341694355010986,-0.0915631651878357,0.13240709900856018,-1.6482712030410767,-0.7572434544563293,-0.10243035107851028,-0.34742714292139076,1.3604466743855537,1.0524426452942657
1.6334030628204346,-0.022979676723480225,-0.09364092350006104,0.13630902767181396,-1.6680110692977905,-0.7400825023651123,-0.09494005143642426,-0.3518800797990167,1.3587910668876464,1.0695065559163877
1.6434292793273926,-0.020053327083587646,-0.09368473291397095,0.1416257619857788,-1.6615641117095947,-0.7254753708839417,-0.07536154985427856,-0.35623776799054235,1.3574040574531694,1.0866933174422055
1.6534051895141602,-0.015479981899261475,-0.0908745527267456,0.14729687571525574,-1.6337883472442627,-0.7129228115081787,-0.05481414124369621,-0.36037357033231665,1.356189397918421,1.1037713091933696
1.6632590293884277,-0.01033782958984375,-0.08430707454681396,0.1509508639574051,-1.5907669067382812,-0.6994857788085938,-0.02591458521783352,-0.36421798887210355,1.355061348506378,1.1205606489913824
1.6733222007751465,-0.006781876087188721,-0.08106130361557007,0.15104195475578308,-1.5321502685546875,-0.6864800453186035,0.007937654852867126,-0.3676542300640018,1.3539694843785093,1.1368963550863094
1.683406114578247,-0.0010160207748413086,-0.0813012421131134,0.14968597888946533,-1.4780206680297852,-0.674577534198761,0.03991343080997467,-0.37066017655424766,1.3528725750081911,1.1527246309066446
1.6934032440185547,0.0026133060455322266,-0.0799264907836914,0.1489250659942627,-1.428152084350586,-0.6578236818313599,0.0740949958562851,-0.37326283045703773,1.3517892473007798,1.168089282350918
1.7034292221069336,0.003493010997772217,-0.08197340369224548,0.15093529224395752,-1.4059184789657593,-0.6413224935531616,0.10310028493404388,-0.375462049553389,1.3507945288067762,1.1831609996766745
1.7133612632751465,0.005139529705047607,-0.08613580465316772,0.15217728912830353,-1.3995778560638428,-0.622098982334137,0.13312572240829468,-0.37737821992285087,1.3499792707256915,1.1981612628057683
1.7234160900115967,0.0057776570320129395,-0.08931073546409607,0.1566077470779419,-1.4108041524887085,-0.6001572012901306,0.1537066251039505,-0.3790542181207652,1.3494365407049773,1.2132707047714555
1.73335599899292,0.0036211609840393066,-0.09553757309913635,0.15727311372756958,-1.4313511848449707,-0.5723453760147095,0.1704360693693161,-0.380583524524607,1.3492552771141781,1.2285968100188458
1.743406057357788,0.0021306872367858887,-0.09712284803390503,0.15612652897834778,-1.4535778760910034,-0.5397562980651855,0.1882728636264801,-0.3819955700840872,1.3495009411272596,1.244200112991407
1.7533721923828125,0.0013364553451538086,-0.09647509455680847,0.1531893014907837,-1.4687676429748535,-0.507644534111023,0.20262479782104492,-0.3832875313885921,1.3501679357176095,1.2600417498736305
1.7633872032165527,0.00334322452545166,-0.09421059489250183,0.1488984227180481,-1.476209282875061,-0.4761667549610138,0.21751905977725983,-0.3844492562333212,1.35124684752139,1.276053392293088
1.7735099792480469,0.0018503665924072266,-0.0916757881641388,0.1419665813446045,-1.4797416925430298,-0.44391968846321106,0.22975505888462067,-0.3854680168327617,1.3527115660836113,1.292170393917892
1.7847840785980225,0.00011545419692993164,-0.09078553318977356,0.13651126623153687,-1.4772659540176392,-0.41287070512771606,0.24486316740512848,-0.3863352780221456,1.3545147400640918,1.3083230395167857
1.793619155883789,-0.0009046792984008789,-0.08784219622612,0.13132311403751373,-1.4665758609771729,-0.3861881494522095,0.2596958875656128,-0.3870124336898167,1.3566132549267382,1.324466451631105
1.8036069869995117,-0.0021663308143615723,-0.08460184931755066,0.12632286548614502,-1.4506590366363525,-0.362644761800766,0.2747070789337158,-0.3874679812400204,1.3589283667274799,1.3405019522501693
1.8136260509490967,-0.005995988845825195,-0.08089756965637207,0.11859720945358276,-1.4254189729690552,-0.33832818269729614,0.29134219884872437,-0.3877026046851853,1.3614243435257078,1.3563609651120923
1.8234341144561768,-0.005441606044769287,-0.07841449975967407,0.111549973487854,-1.394774317741394,-0.3136409521102905,0.3139207661151886,-0.3876411035077713,1.3640717159066185,1.3719707334590383
1.8348040580749512,-0.006959497928619385,-0.07457345724105835,0.102344810962677,-1.3569386005401611,-0.29241859912872314,0.33788856863975525,-0.38725008672311223,1.3668198118836103,1.3872579707638069
1.843501091003418,-0.008841097354888916,-0.0716467797756195,0.0930832177400589,-1.3209097385406494,-0.27010446786880493,0.3598670959472656,-0.38651187791260966,1.3696395633968017,1.4021959120371834
1.8536052703857422,-0.009935259819030762,-0.06973370909690857,0.08695030212402344,-1.2942265272140503,-0.2456926703453064,0.38844823837280273,-0.3854186609394856,1.3725681966816268,1.416839971841479
1.8634881973266602,-0.009712398052215576,-0.06919923424720764,0.0800246000289917,-1.2823421955108643,-0.2182631641626358,0.4226754307746887,-0.3839531255134484,1.3756890464020413,1.43134815354977
1.8735830783843994,-0.009221076965332031,-0.06953111290931702,0.07492254674434662,-1.272351622581482,-0.1918184608221054,0.46255117654800415,-0.38205720204482746,1.3790466288869545,1.4458075554505303
1.884897232055664,-0.005020320415496826,-0.06821858882904053,0.06786204874515533,-1.2564479112625122,-0.16822685301303864,0.4966724216938019,-0.37972285914950105,1.3826026922537873,1.460189636217192
1.893700122833252,-0.007124960422515869,-0.061009496450424194,0.057945430278778076,-1.23245108127594,-0.1479710191488266,0.528645396232605,-0.3769732416153549,1.3862825572584887,1.4743985382625613
1.9037511348724365,-0.015993773937225342,-0.05604621767997742,0.048684731125831604,-1.2041115760803223,-0.13222748041152954,0.5647823810577393,-0.37380337313413237,1.3900142133500366,1.4883670055389653
1.9135851860046387,-0.020455658435821533,-0.049056291580200195,0.037915825843811035,-1.1811575889587402,-0.12248377501964569,0.5991357564926147,-0.3701821174435966,1.3937443856279421,1.502094855157458
1.923619270324707,-0.021000683307647705,-0.04159289598464966,0.02852696180343628,-1.1631615161895752,-0.11566075682640076,0.6365228295326233,-0.36612417383847484,1.3974480500699407,1.5156347308825262
1.9349660873413086,-0.018456876277923584,-0.03253445029258728,0.01997286081314087,-1.1494333744049072,-0.1158120259642601,0.6749328970909119,-0.36162337126766436,1.4010691135591957,1.529039432512215
1.943627119064331,-0.012326657772064209,-0.02749904990196228,0.013597369194030762,-1.1447203159332275,-0.12027973681688309,0.7117031812667847,-0.356684808826159,1.4045877684644419,1.5423789321500658
1.9536001682281494,-0.003304898738861084,-0.023879706859588623,0.009805798530578613,-1.1462723016738892,-0.1278761923313141,0.7485820651054382,-0.3513458247610068,1.4079740052308483,1.5557150007982914
1.9636521339416504,0.007513105869293213,-0.01808762550354004,0.00819385051727295,-1.1532723903656006,-0.1363207995891571,0.7847430109977722,-0.345605457492929,1.4112349727499958,1.5691116865337547
1.9737629890441895,0.018188297748565674,-0.008429467678070068,0.003949582576751709,-1.1706465482711792,-0.14489369094371796,0.8182855844497681,-0.3394987624527079,1.4143895249046246,1.5826484063427768
1.9849481582641602,0.03109586238861084,-0.000762253999710083,0.0030742287635803223,-1.1971842050552368,-0.15370263159275055,0.8439981341362,-0.3330899590553685,1.4174447015547655,1.5964118757493897
1.993886947631836,0.042340219020843506,0.005492657423019409,0.0007387548685073853,-1.237451434135437,-0.16166189312934875,0.8633579015731812,-0.326462638470898,1.4204359455226176,1.6105101696500541
2.0038862228393555,0.05261659622192383,0.012795895338058472,-0.0017307102680206299,-1.2927566766738892,-0.17401203513145447,0.8690248131752014,-0.3197424042541316,1.4233906123383404,1.6250740572064386
2.013841152191162,0.06120783090591431,0.01793578267097473,-0.0017178058624267578,-1.3622323274612427,-0.18247121572494507,0.8614994883537292,-0.3130817213853133,1.426326372113723,1.640230718751335
2.0238351821899414,0.06284552812576294,0.023620277643203735,0.0008696317672729492,-1.442175269126892,-0.1900223344564438,0.8448675274848938,-0.3066003398741861,1.4293029479509696,1.6560950198041497
2.034980058670044,0.061164259910583496,0.02744060754776001,5.759298801422119e-05,-1.5261555910110474,-0.19949333369731903,0.8169662356376648,-0.300422362798512,1.432324220248925,1.6727306006777642
2.043783187866211,0.05050688982009888,0.036577969789505005,0.000488579273223877,-1.6000216007232666,-0.20093703269958496,0.7881699800491333,-0.29458383120800047,1.4354024356333908,1.6900978526050392
2.0540101528167725,0.04487663507461548,0.04691445827484131,0.0004451870918273926,-1.648215651512146,-0.19486360251903534,0.7866959571838379,-0.28895322738756435,1.4386015867981636,1.7080501498356195
2.0636961460113525,0.06935572624206543,0.05528920888900757,-0.0011044144630432129,-1.658678650856018,-0.20498761534690857,0.7970540523529053,-0.28322973902248655,1.4417512746749093,1.7262708054307982
2.073747158050537,0.13614416122436523,0.07313859462738037,-0.010161355137825012,-1.6400564908981323,-0.21841536462306976,0.7968560457229614,-0.2774058865749014,1.4446487687538792,1.7443766379710959
2.084973096847534,0.19355487823486328,0.09287813305854797,-0.02327435463666916,-1.613572597503662,-0.2310214340686798,0.7822661995887756,-0.2715460352400771,1.44722638209146,1.7621779202809162
2.093891143798828,0.19702154397964478,0.10043725371360779,-0.03307133913040161,-1.6242568492889404,-0.22278738021850586,0.7554056644439697,-0.26585805923754985,1.44963632097891,1.7798116400213828
2.103884220123291,0.17031502723693848,0.09136751294136047,-0.03767657279968262,-1.6883779764175415,-0.20909899473190308,0.6973833441734314,-0.2605860376311004,1.452144315777914,1.797743173035468
2.113966941833496,0.13953810930252075,0.09251853823661804,-0.04289548099040985,-1.7672067880630493,-0.1961987316608429,0.6343825459480286,-0.2559707371546262,1.454878718622559,1.8163300316501125
2.1239662170410156,0.10633468627929688,0.09574459493160248,-0.03618500381708145,-1.801452398300171,-0.19617503881454468,0.5743107199668884,-0.2519756412186188,1.4577308483939329,1.8354238183502265
2.13494610786438,0.0802764892578125,0.09766118228435516,-0.033501267433166504,-1.7803574800491333,-0.20415736734867096,0.5142834186553955,-0.24853276836037697,1.4604464282828038,1.8544635405021979
2.1439380645751953,0.061857521533966064,0.1055377721786499,-0.038559846580028534,-1.7113542556762695,-0.20551292598247528,0.46922168135643005,-0.24552395362256257,1.4629282057671757,1.8729765055828054
2.1538851261138916,0.034341275691986084,0.12149102985858917,-0.046307556331157684,-1.5693490505218506,-0.19835448265075684,0.4451606869697571,-0.24270111109837345,1.465118908222605,1.8903527974390344
2.1639010906219482,0.009899020195007324,0.1397121399641037,-0.06609112024307251,-1.4073455333709717,-0.1912696659564972,0.4255281388759613,-0.23988611060759393,1.4669224968792542,1.906099090213402
2.1739401817321777,-0.0076961517333984375,0.14931800961494446,-0.08923190832138062,-1.2233587503433228,-0.1717408448457718,0.4217335879802704,-0.2370041322456926,1.468408818247968,1.92004560091643
2.1849100589752197,-0.02342534065246582,0.14892008900642395,-0.10347986221313477,-1.0212335586547852,-0.1731477975845337,0.4291558265686035,-0.2338670139439855,1.4695071118091252,1.931998984666611
2.193991184234619,-0.02578526735305786,0.1507112979888916,-0.1172713041305542,-0.8527538180351257,-0.19567126035690308,0.418678343296051,-0.2305525136986913,1.4699622247070707,1.9420022998484925
2.2040462493896484,-0.01466226577758789,0.15968598425388336,-0.1202746033668518,-0.7596553564071655,-0.22246664762496948,0.409893661737442,-0.2271814583930287,1.4698342280503214,1.9506274158886427
2.214168071746826,-0.010466277599334717,0.1417253315448761,-0.11401979625225067,-0.7363198399543762,-0.25620412826538086,0.37834012508392334,-0.22397316193982392,1.4692494534197227,1.9586519039264396
2.2239601612091064,-0.014494597911834717,0.11475764214992523,-0.10260200500488281,-0.7824553847312927,-0.30491334199905396,0.3334943354129791,-0.22114703001603853,1.468225517263965,1.9667380450585594
2.234743118286133,-0.013201892375946045,0.09294328093528748,-0.08697658777236938,-0.8821278810501099,-0.3720574975013733,0.26809564232826233,-0.2189678045528258,1.4667508531758173,1.9755222467277176
2.2440500259399414,-0.008406341075897217,0.07520715892314911,-0.059694066643714905,-1.0251867771148682,-0.45094192028045654,0.19467440247535706,-0.2176292251334341,1.4647862912570797,1.9854812398097335
2.2539851665496826,-0.01202702522277832,0.04784218966960907,-0.031671956181526184,-1.1908857822418213,-0.5219554305076599,0.12171944975852966,-0.2172134237649293,1.4623686318731377,1.996936889450197
2.2641592025756836,-0.03015953302383423,0.01724010705947876,-0.009984135627746582,-1.3682491779327393,-0.5766410231590271,0.05829014629125595,-0.21770623355704652,1.4596944500265965,2.010081093570897
2.274212121963501,-0.05873000621795654,-0.006895154714584351,0.0045601725578308105,-1.5276825428009033,-0.6287292838096619,0.008794073015451431,-0.21899926236264056,1.4568594805756256,2.02488299309802
2.2849512100219727,-0.07628720998764038,-0.024625733494758606,0.017988070845603943,-1.6574733257293701,-0.6727510690689087,-0.027025442570447922,-0.2209223179692052,1.4538660056612396,2.0411240859215645
2.2942309379577637,-0.075283944606781,-0.03994278609752655,0.030639737844467163,-1.751199722290039,-0.7095541954040527,-0.047386534512043,-0.22331290717802285,1.450759112255163,2.0584683506511787
2.3043341636657715,-0.06707626581192017,-0.05780051648616791,0.04505890607833862,-1.81514573097229,-0.7463101148605347,-0.054586924612522125,-0.2259787783517121,1.4474997155649212,2.0765964635849867
2.314317226409912,-0.05221676826477051,-0.07055756449699402,0.05871164798736572,-1.8763998746871948,-0.7779366374015808,-0.05510783568024635,-0.22881431333551425,1.4440748217297372,2.0953351545241636
2.324233055114746,-0.028322875499725342,-0.07936084270477295,0.0751420259475708,-1.950810194015503,-0.8081075549125671,-0.05118846148252487,-0.23179102938151624,1.4405588762179233,2.114772230640201
2.3348701000213623,0.0013251304626464844,-0.09050661325454712,0.09624214470386505,-2.041130542755127,-0.8424286246299744,-0.05215881019830704,-0.23491916317841333,1.4369823727794961,2.1350489014021816
2.3441672325134277,0.035327374935150146,-0.10207071900367737,0.12250906229019165,-2.1554603576660156,-0.8731274604797363,-0.05783746764063835,-0.23829170546453232,1.43337944052122,2.156370087367418
2.3541531562805176,0.06529885530471802,-0.11667613685131073,0.15406912565231323,-2.2961490154266357,-0.8866507411003113,-0.07633434981107712,-0.24203343824293885,1.429930629504594,2.1789728175965997
2.3641419410705566,0.07924795150756836,-0.12978523969650269,0.18610359728336334,-2.4488675594329834,-0.891146719455719,-0.10099814832210541,-0.24626537221671008,1.426849934485533,2.2030820100264106
2.374274253845215,0.07416719198226929,-0.1345607340335846,0.21254058182239532,-2.5792462825775146,-0.8637307286262512,-0.11337509006261826,-0.25095618838704703,1.424327816584716,2.2286227704455266
2.3847920894622803,0.05522191524505615,-0.13984668254852295,0.22808696329593658,-2.6720621585845947,-0.8168790340423584,-0.13306890428066254,-0.2560225709487965,1.422605741334149,2.2553285578038174
2.3942322731018066,0.02625495195388794,-0.13226372003555298,0.22982759773731232,-2.6974172592163086,-0.7684075236320496,-0.14411728084087372,-0.26137403126606734,1.4216582731875904,2.2826658079259894
2.4042811393737793,-0.006836533546447754,-0.11846199631690979,0.22825604677200317,-2.6494996547698975,-0.7064948678016663,-0.12213741987943649,-0.26667698617087265,1.4213785932982286,2.3099188046710584
2.4141950607299805,-0.03852194547653198,-0.10691609978675842,0.21652597188949585,-2.5462801456451416,-0.6345018148422241,-0.10716533660888672,-0.2716524239023605,1.4217283685827509,2.336456350432981
2.4242911338806152,-0.06696653366088867,-0.0836743414402008,0.19956660270690918,-2.362579584121704,-0.5637784004211426,-0.0680331140756607,-0.27618269725267064,1.422538582053397,2.361604017359856
2.4349541664123535,-0.09231674671173096,-0.07608965039253235,0.18478114902973175,-2.1149520874023438,-0.5034545660018921,-0.016706332564353943,-0.2798788401751917,1.4235202388436201,2.3846323656857935
2.4442811012268066,-0.10142940282821655,-0.08017906546592712,0.16549380123615265,-1.8392153978347778,-0.4516962766647339,0.0366213396191597,-0.2826584148563286,1.424413219249475,2.405035826482142
2.454256057739258,-0.10160672664642334,-0.07251039147377014,0.14756780862808228,-1.5644744634628296,-0.4120272397994995,0.10185525566339493,-0.2844293821003468,1.4250409259330319,2.4226936055077544
2.4643330574035645,-0.09536337852478027,-0.059172868728637695,0.13710777461528778,-1.3394256830215454,-0.38873738050460815,0.1670646220445633,-0.2851752820599443,1.4253063340440013,2.437833462636859
2.474492073059082,-0.07742130756378174,-0.05711027979850769,0.13543862104415894,-1.2095937728881836,-0.36911219358444214,0.21624648571014404,-0.28509296891353747,1.4252678898652025,2.451205817275749
2.485095977783203,-0.05804938077926636,-0.0662093460559845,0.13899816572666168,-1.1757454872131348,-0.32928168773651123,0.26174846291542053,-0.2844302237618648,1.4253079371729336,2.463831124530786
2.4944019317626953,-0.04425317049026489,-0.08577004075050354,0.14267820119857788,-1.2113738059997559,-0.29334086179733276,0.2992464303970337,-0.2833482757181542,1.42576897628896,2.47654534119601
2.5045411586761475,-0.03370398283004761,-0.10263535380363464,0.14326298236846924,-1.2859593629837036,-0.26379549503326416,0.31875115633010864,-0.2820657709863264,1.4267011908174907,2.489880645987224
2.5144972801208496,-0.019718825817108154,-0.10248717665672302,0.14403869211673737,-1.3768901824951172,-0.2340431958436966,0.3339255154132843,-0.2807201958301445,1.4281721533614682,2.5041006806654895
2.5245120525360107,-0.009745478630065918,-0.09475445747375488,0.13997185230255127,-1.457370638847351,-0.19858799874782562,0.34340208768844604,-0.2793584214581573,1.4301930158306735,2.519231351329952
2.5349931716918945,-0.00765615701675415,-0.08533269166946411,0.13453222811222076,-1.511657476425171,-0.16316209733486176,0.3512677550315857,-0.2779702436429711,1.4327406471666946,2.535070047106879
2.544389247894287,-0.0057187676429748535,-0.07266736030578613,0.1261233240365982,-1.530380368232727,-0.13139323890209198,0.3661971688270569,-0.2764783821890083,1.4357148863764815,2.5512919576642723
2.554409980773926,-0.0033043622970581055,-0.05121147632598877,0.11439734697341919,-1.512007474899292,-0.09551868587732315,0.3874310851097107,-0.2747637639327127,1.438987449845589,2.567521871682351
2.564399242401123,-0.005099236965179443,-0.028733134269714355,0.10168765485286713,-1.4571075439453125,-0.05233953148126602,0.4166851043701172,-0.2726853457563208,1.4425472564725197,2.583392926482987
2.57448410987854,-0.013752341270446777,-0.008495181798934937,0.08475977182388306,-1.371791124343872,-0.005099180154502392,0.4507262110710144,-0.2701619712960935,1.446330789399664,2.5985703190044154
2.5848569869995117,-0.019808292388916016,0.00912526249885559,0.06577938795089722,-1.2685736417770386,0.03147187829017639,0.4833510220050812,-0.26711107950759644,1.4502436205349276,2.612776792091626
2.594456195831299,-0.022904932498931885,0.02685609459877014,0.0535317063331604,-1.166152000427246,0.07606260478496552,0.5134605765342712,-0.26358482830109686,1.4542220141362112,2.6259245913725198
2.6044301986694336,-0.027432262897491455,0.040840983390808105,0.04556293040513992,-1.0680789947509766,0.12383918464183807,0.5468409061431885,-0.2595644499119891,1.4583724136007228,2.638054678802861
2.614603042602539,-0.03382432460784912,0.048135995864868164,0.035164713859558105,-0.9687480926513672,0.16601060330867767,0.5709574222564697,-0.255097852988916,1.462653139052177,2.6491727426174294
2.6245391368865967,-0.04175621271133423,0.06342552602291107,0.025003910064697266,-0.8665977716445923,0.20906326174736023,0.5978569388389587,-0.25022806998380726,1.4670483474432776,2.6592429308033743
2.63500714302063,-0.05143892765045166,0.07683485746383667,0.008242785930633545,-0.7749013304710388,0.24849140644073486,0.612559974193573,-0.24500598918687247,1.471572250181288,2.6683071925609125
2.6445870399475098,-0.06179547309875488,0.09068070352077484,-0.009321145713329315,-0.6969814896583557,0.2831362187862396,0.6191334128379822,-0.23956127985685513,1.4762049170223794,2.67646856759393
2.6545372009277344,-0.07369518280029297,0.10271668434143066,-0.02270728349685669,-0.6378757357597351,0.31455883383750916,0.6154722571372986,-0.23400793715222679,1.480951974138505,2.6838989338378307
2.6645541191101074,-0.08374077081680298,0.1107054054737091,-0.035452596843242645,-0.6027867197990417,0.33539968729019165,0.6062712669372559,-0.22843434814583033,1.4857922396880814,2.6907921249263422
2.674657106399536,-0.09238570928573608,0.11592322587966919,-0.04486673325300217,-0.5863398313522339,0.3554712235927582,0.5932252407073975,-0.2229242092121543,1.4907347543084177,2.6973790375305997
2.685853958129883,-0.10168802738189697,0.12226620316505432,-0.05558997392654419,-0.5778501629829407,0.36700111627578735,0.5727953314781189,-0.21755007044651697,1.4957647804634093,2.703793222705688
2.6946001052856445,-0.10989421606063843,0.12947715818881989,-0.06757843494415283,-0.5687481760978699,0.3701971769332886,0.548800528049469,-0.21235578428752283,1.5008061219069988,2.710081086960481
2.7045791149139404,-0.11215811967849731,0.13839326798915863,-0.08070921152830124,-0.5587863326072693,0.3662264347076416,0.5233443975448608,-0.20737394134401496,1.5057806539978418,2.7162132144787416
2.714658260345459,-0.11222279071807861,0.1490919291973114,-0.09279710054397583,-0.5508394837379456,0.35888445377349854,0.503227174282074,-0.20258701541403362,1.5106400072717214,2.722205200108135
2.7246832847595215,-0.11347383260726929,0.1591038554906845,-0.1018214225769043,-0.5585253834724426,0.35115358233451843,0.47560301423072815,-0.19802280425007765,1.5153789744525556,2.7281437009471783
2.734966278076172,-0.11195534467697144,0.1650392711162567,-0.10938620567321777,-0.5791032910346985,0.3401166796684265,0.46066468954086304,-0.1936517612837556,1.5200169660547576,2.7341890703325764
2.744673252105713,-0.10603606700897217,0.16792944073677063,-0.12008816003799438,-0.6189836263656616,0.33697545528411865,0.4430502653121948,-0.1894177036448033,1.524606384626306,2.7405045684964398
2.7545900344848633,-0.09836322069168091,0.17317816615104675,-0.12834292650222778,-0.6576461791992188,0.33060988783836365,0.4362652897834778,-0.18530237470083236,1.529195269136902,2.7472025281299053
2.7647011280059814,-0.08756256103515625,0.18037647008895874,-0.1377195119857788,-0.6924041509628296,0.3200986683368683,0.43088358640670776,-0.1812248466903518,1.5337366993609614,2.754260743409745
2.7748799324035645,-0.07172495126724243,0.1890324354171753,-0.14776939153671265,-0.715488612651825,0.30285346508026123,0.42262595891952515,-0.17718870393658054,1.538163216708035,2.7615727168073843
2.78499698638916,-0.06050294637680054,0.20121605694293976,-0.15576928853988647,-0.7359794974327087,0.2819460332393646,0.41214215755462646,-0.17323001338288407,1.5424058799915898,2.76906859446957
2.7949740886688232,-0.050218284130096436,0.212343230843544,-0.15942764282226562,-0.7653349041938782,0.26265397667884827,0.3974638879299164,-0.16937056221977137,1.546447225879445,2.77679104832917
2.804805278778076,-0.03788357973098755,0.22269394993782043,-0.1593257188796997,-0.7981112003326416,0.25740835070610046,0.3887316584587097,-0.1656201790614026,1.5503671847540699,2.7848310366999054
2.814779281616211,-0.018809735774993896,0.23221686482429504,-0.15839797258377075,-0.8205348253250122,0.24982552230358124,0.3942355215549469,-0.16184513292896752,1.5542643472539297,2.7931082237991585
2.824843168258667,0.030408620834350586,0.24262367188930511,-0.16253536939620972,-0.8311326503753662,0.23460689187049866,0.3960382044315338,-0.15802718933769608,1.5580473327806006,2.8015690633680865
2.8349671363830566,0.1088172197341919,0.26084959506988525,-0.17427349090576172,-0.8208485841751099,0.2167826145887375,0.39740440249443054,-0.1541121622143513,1.5616112199655554,2.8099827247030573
2.8446121215820312,0.18366479873657227,0.27468690276145935,-0.1896754503250122,-0.8041686415672302,0.1972334086894989,0.3818552792072296,-0.15027073506595615,1.5649560830932265,2.818268153652308
2.854666233062744,0.23499470949172974,0.28546619415283203,-0.19922477006912231,-0.8063311576843262,0.14853405952453613,0.347348153591156,-0.14663840316124824,1.5678871425022056,2.8264225248622976
2.8646371364593506,0.2654568552970886,0.2884412407875061,-0.19151347875595093,-0.8294311165809631,0.1150679737329483,0.2694062292575836,-0.14353922605165564,1.5703958906940358,2.834666635988678
2.8747682571411133,0.27999264001846313,0.3024447560310364,-0.18046092987060547,-0.8875882029533386,0.05849497765302658,0.16928547620773315,-0.14133898519690352,1.5725022183177004,2.843355803960668
2.8852882385253906,0.27688294649124146,0.3036484718322754,-0.16428399085998535,-0.9262682199478149,-0.009167424403131008,0.041590366512537,-0.1402465507141554,1.5740250226026842,2.8525241610070293
2.8949851989746094,0.2793322205543518,0.30095797777175903,-0.149999737739563,-0.9749292731285095,-0.06532727926969528,-0.1455569863319397,-0.14071383594897918,1.574978611918946,2.8621272735264602
2.9052562713623047,0.24097418785095215,0.29874634742736816,-0.14615488052368164,-1.031164288520813,-0.09668014198541641,-0.35637468099594116,-0.14319453578548688,1.5755662929730425,2.8722830069940706
2.914860248565674,0.15542829036712646,0.27894604206085205,-0.15115439891815186,-1.08698570728302,-0.11006327718496323,-0.5911126732826233,-0.14787713233106137,1.5760578366223772,2.8830151508737916
2.9248931407928467,0.06527209281921387,0.25286436080932617,-0.1660839319229126,-1.1159696578979492,-0.0960467979311943,-0.8105670213699341,-0.15488927331764213,1.5766722840908538,2.8942161284856005
2.935150146484375,-0.02127903699874878,0.22501540184020996,-0.18235254287719727,-1.1067811250686646,-0.07877903431653976,-1.0110386610031128,-0.16396291442230962,1.5776116320292646,2.9055890727933513
2.944918155670166,-0.0932508111000061,0.2086818367242813,-0.20921194553375244,-1.0289920568466187,-0.06808458268642426,-1.1875807046890259,-0.17497642121447676,1.5787132252738583,2.9165668836390233
2.9549560546875,-0.13580995798110962,0.1961403489112854,-0.23199915885925293,-0.8758153915405273,-0.08113335818052292,-1.3081097602844238,-0.1874475097706356,1.5797312894873985,2.9264016430563795
2.96490216255188,-0.15126770734786987,0.1803063154220581,-0.2415776252746582,-0.680066704750061,-0.1300995647907257,-1.4083306789398193,-0.20101919569670776,1.5802337864522613,2.9344783924600266
2.9751031398773193,-0.13139432668685913,0.15474192798137665,-0.24380528926849365,-0.44741061329841614,-0.18825045228004456,-1.4702563285827637,-0.21538890355635704,1.5798562175386388,2.9403711363880047
2.9850640296936035,-0.08755570650100708,0.11759613454341888,-0.24307644367218018,-0.23095500469207764,-0.2538052201271057,-1.4998369216918945,-0.23028970412912145,1.5783546005909415,2.9439603372945737
2.9949822425842285,-0.037941157817840576,0.07454590499401093,-0.24012887477874756,-0.04690619185566902,-0.3118022680282593,-1.49954354763031,-0.2453521547942127,1.5758469822081689,2.945453826521493
3.0050320625305176,0.02154362201690674,0.03827914595603943,-0.22998535633087158,0.08947162330150604,-0.365469753742218,-1.4808534383773804,-0.26030489900840076,1.5723804562985857,2.9452431463337168
3.015676975250244,0.09866690635681152,0.005512148141860962,-0.21745073795318604,0.1671609729528427,-0.4576594829559326,-1.4481892585754395,-0.2750262244641188,1.567892596390664,2.9438647143462724
3.0250000953674316,0.18614763021469116,-0.033837318420410156,-0.19201308488845825,0.1802552044391632,-0.5720465183258057,-1.4165517091751099,-0.2893853628071143,1.562147555639628,2.941885985361194
3.0349271297454834,0.26585566997528076,-0.08327493071556091,-0.1460476517677307,0.10009809583425522,-0.6703792810440063,-1.3943010568618774,-0.30347254304646903,1.5553878788963202,2.9401604471443226
3.045025110244751,0.306368350982666,-0.1365763545036316,-0.09270095825195312,-0.05410291999578476,-0.7721179127693176,-1.372683048248291,-0.31736868216371006,1.5479276399346173,2.9395826662545117
3.0549850463867188,0.3119834065437317,-0.1877562701702118,-0.04220473766326904,-0.25292494893074036,-0.8419288396835327,-1.3536070585250854,-0.33111814758628916,1.5401010741398977,2.9407492859349804
3.0649962425231934,0.3069620728492737,-0.24430328607559204,0.003757897764444351,-0.4651346802711487,-0.8868635892868042,-1.3399062156677246,-0.344815171629742,1.5323897120496255,2.944019610178832
3.075031280517578,0.28086698055267334,-0.2861347496509552,0.02947467938065529,-0.6656147837638855,-0.9074018597602844,-1.333990454673767,-0.3586223488864823,1.5249140961293808,2.949347015951707
3.0851049423217773,0.25030088424682617,-0.308857798576355,0.04320771247148514,-0.8225338459014893,-0.9069736003875732,-1.3247950077056885,-0.3724802723856089,1.5180925070452822,2.956520067588527
3.0951342582702637,0.22248059511184692,-0.3263073265552521,0.04871678352355957,-0.9338036179542542,-0.892733633518219,-1.31375253200531,-0.3863048335423836,1.5119761740309945,2.965103146854293
3.105131149291992,0.19153273105621338,-0.345155268907547,0.049639880657196045,-0.9932014346122742,-0.8694993853569031,-1.3088233470916748,-0.40010228568788214,1.5066004856830348,2.9745935966394206
3.115100145339966,0.15267205238342285,-0.356361985206604,0.051050424575805664,-1.0064071416854858,-0.8503854870796204,-1.2985445261001587,-0.41385113636776116,1.5017680345560047,2.984477474349899
3.1251461505889893,0.12191951274871826,-0.35990163683891296,0.05341345816850662,-0.9859199523925781,-0.8399046659469604,-1.2874470949172974,-0.4275247091544956,1.497176884091174,2.9943065507861664
3.135200023651123,0.10677319765090942,-0.36346137523651123,0.05744171142578125,-0.9470323920249939,-0.8297194838523865,-1.2667274475097656,-0.4410532337964643,1.4926513310102525,3.003803863707322
3.145118236541748,0.09328305721282959,-0.37080058455467224,0.06153356283903122,-0.9084634780883789,-0.8228994011878967,-1.2294349670410156,-0.4542898593320129,1.488094515000624,3.012850933333809
3.155137062072754,0.08433043956756592,-0.38000357151031494,0.062338948249816895,-0.8798153400421143,-0.8100846409797668,-1.1777551174163818,-0.4670679908016626,1.483608928946482,3.0215516086543865
3.165208101272583,0.08017051219940186,-0.38944000005722046,0.06270372867584229,-0.8495360016822815,-0.7889066338539124,-1.1139758825302124,-0.4792634880936677,1.4792646909588036,3.030019865598129
3.1751489639282227,0.08522236347198486,-0.39594921469688416,0.06389093399047852,-0.8279666304588318,-0.7712494730949402,-1.044830560684204,-0.4907262695515171,1.4751322860737623,3.0381391552664256
3.185263156890869,0.09517031908035278,-0.4015902578830719,0.056729257106781006,-0.8382080793380737,-0.78494793176651,-0.99235999584198,-0.5016696827448882,1.4711931457502745,3.04637393154432
3.195289134979248,0.11259502172470093,-0.4012635052204132,0.06280148774385452,-0.8388801217079163,-0.7990782260894775,-0.9119548797607422,-0.5119770246694273,1.4672775656556298,3.054806009593361
3.2052690982818604,0.1334959864616394,-0.4232809543609619,0.06436437368392944,-0.8319436311721802,-0.8099106550216675,-0.85107421875,-0.521611360501058,1.463354750623116,3.063281779788823
3.2152652740478516,0.1460953950881958,-0.4277260899543762,0.06722520291805267,-0.8404852151870728,-0.8295565843582153,-0.7914747595787048,-0.5306690475996464,1.459413157708677,3.0718332659921246
3.2253310680389404,0.1497158408164978,-0.4103947877883911,0.07057052850723267,-0.8805615305900574,-0.8502302169799805,-0.7160646915435791,-0.5391145578683718,1.4555012346717366,3.080749841875074
3.2353129386901855,0.14547783136367798,-0.4162883162498474,0.07849383354187012,-0.9548182487487793,-0.8510972857475281,-0.6450450420379639,-0.5469071823176981,1.4519644869911816,3.0904513689704296
3.2452502250671387,0.13475316762924194,-0.4280624985694885,0.081776924431324,-1.030626654624939,-0.8577037453651428,-0.5824666023254395,-0.5541697247269155,1.4489878947253094,3.101153947734764
3.2554001808166504,0.12086707353591919,-0.41760706901550293,0.08157747983932495,-1.0999616384506226,-0.8623892068862915,-0.5216684341430664,-0.5609453236434991,1.446527981438012,3.1128188966420804
3.265839099884033,0.11232912540435791,-0.40659230947494507,0.08463592082262039,-1.161262035369873,-0.8555912375450134,-0.45822951197624207,-0.5671950570021427,1.4446209146314486,3.1253813120681064
3.275653123855591,0.10307681560516357,-0.3984033465385437,0.08474747836589813,-1.208039402961731,-0.850922167301178,-0.3885940909385681,-0.5728741741977573,1.443273989819162,3.1387301467018
3.285431146621704,0.09341543912887573,-0.3853893280029297,0.08479487895965576,-1.2360435724258423,-0.848152220249176,-0.3155997693538666,-0.5779140909321232,1.4423379131062632,-3.130521899084287
3.295480251312256,0.09348809719085693,-0.3678649663925171,0.08937232196331024,-1.2549594640731812,-0.8450903296470642,-0.239332914352417,-0.5822472623119213,1.4417128923632616,-3.116175082177991
3.305408000946045,0.09609067440032959,-0.352783739566803,0.09308512508869171,-1.2693732976913452,-0.8372014760971069,-0.15778346359729767,-0.5858254401381234,1.4413811141230737,-3.1014757196893536
3.3154029846191406,0.09717178344726562,-0.34306836128234863,0.09653425961732864,-1.28499174118042,-0.8246731162071228,-0.0746433436870575,-0.588598516866504,1.441380471705839,-3.0864376109672844
3.3254241943359375,0.0959099531173706,-0.334025502204895,0.1012837365269661,-1.3080013990402222,-0.8055558800697327,0.007889077998697758,-0.590569612109704,1.4417966648269935,-3.0709960803710694
3.335512161254883,0.09466737508773804,-0.32472681999206543,0.10579455643892288,-1.3337236642837524,-0.7775605320930481,0.09106050431728363,-0.5917567893198084,1.4427199208588843,-3.0551295679393533
3.345428943634033,0.09516394138336182,-0.31674903631210327,0.10816645622253418,-1.3446398973464966,-0.7530152201652527,0.1678873747587204,-0.5921461155117955,1.4441055106583667,-3.038906113083259
3.3554229736328125,0.09630167484283447,-0.3057425618171692,0.11046761274337769,-1.346286654472351,-0.7279237508773804,0.24086034297943115,-0.5917724333760681,1.4458459589313508,-3.022491939048501
3.365567207336426,0.09205251932144165,-0.29485321044921875,0.11061698198318481,-1.3454134464263916,-0.6913905143737793,0.302217960357666,-0.5907130376361782,1.4479386781527595,-3.0059713258898593
3.375523090362549,0.08118408918380737,-0.28486913442611694,0.11195117235183716,-1.336405873298645,-0.6509800553321838,0.3654429018497467,-0.5889996042863154,1.4504015141091215,-2.9894329092180585
3.385329246520996,0.06547874212265015,-0.2800746560096741,0.1092166155576706,-1.3163858652114868,-0.6072168350219727,0.4265477955341339,-0.5866120459896559,1.4531994724953974,-2.973007353347956
3.3956222534179688,0.051299452781677246,-0.2705473303794861,0.10373876988887787,-1.2818107604980469,-0.5574526786804199,0.49244776368141174,-0.5835301306895722,1.456275201477461,-2.95685777329025
3.4056291580200195,0.03365367650985718,-0.2603694200515747,0.09795773774385452,-1.2341958284378052,-0.5088305473327637,0.5591027140617371,-0.5796947647986584,1.4595543041577743,-2.9411597963861196
3.4155611991882324,0.018410027027130127,-0.24781274795532227,0.09097028523683548,-1.1740710735321045,-0.46293944120407104,0.6263055205345154,-0.5750889374013918,1.4629243411439148,-2.9260742281419483
3.425542116165161,0.005282700061798096,-0.23438411951065063,0.0844230130314827,-1.1010349988937378,-0.4226412773132324,0.6994447112083435,-0.5696785523665313,1.4662365347410453,-2.911761342867586
3.4354939460754395,-0.010798335075378418,-0.22400683164596558,0.07856959104537964,-1.0225310325622559,-0.38761937618255615,0.7725390791893005,-0.5634199174189969,1.469386270687591,-2.8983454628892025
3.4455251693725586,-0.02053070068359375,-0.2110198736190796,0.0731344223022461,-0.9481689929962158,-0.36275720596313477,0.845365047454834,-0.556322609817463,1.472279329269412,-2.8858217353201607
3.4555740356445312,-0.028737127780914307,-0.20029014348983765,0.06919842213392258,-0.8885806798934937,-0.34369054436683655,0.917247474193573,-0.548414671370084,1.4748968572003196,-2.874088460951862
3.465562105178833,-0.03553462028503418,-0.19467991590499878,0.06862377375364304,-0.8448560833930969,-0.32651713490486145,0.9873194694519043,-0.5397176274158358,1.4773072549222548,-2.862953290642315
3.4756522178649902,-0.0435522198677063,-0.1865001916885376,0.06777000427246094,-0.8182598948478699,-0.3106483221054077,1.0599019527435303,-0.5302624618167062,1.4795889330835514,-2.852232405978405
3.4856982231140137,-0.04711329936981201,-0.17963942885398865,0.06450831890106201,-0.8113133311271667,-0.2935686707496643,1.1296075582504272,-0.5200581489493471,1.4818363601268867,-2.84171316493168
3.4956250190734863,-0.04667496681213379,-0.1655021607875824,0.061544470489025116,-0.8156759142875671,-0.27720117568969727,1.2055461406707764,-0.5091114212899909,1.4841450871060822,-2.8312226937911444
3.505547046661377,-0.041383326053619385,-0.1525232493877411,0.05758696794509888,-0.8286343216896057,-0.26073458790779114,1.2774232625961304,-0.4974133090308447,1.4865561575795936,-2.8206472346946794
3.5157101154327393,-0.03217214345932007,-0.1437796950340271,0.05232279747724533,-0.8440020680427551,-0.24580246210098267,1.3517353534698486,-0.4849709190309444,1.4890718436489714,-2.8099417526350456
3.525670051574707,-0.017542660236358643,-0.13071191310882568,0.04833871126174927,-0.8629456758499146,-0.23466646671295166,1.420221209526062,-0.471797434590167,1.4916590878250926,-2.799094675350709
3.535722255706787,-0.0014250874519348145,-0.11376550793647766,0.04722386598587036,-0.8864558935165405,-0.22972610592842102,1.4862253665924072,-0.4579430648396437,1.494273866530101,-2.788070787729528
3.545647144317627,0.015446603298187256,-0.09833577275276184,0.0475957989692688,-0.9312435984611511,-0.23077994585037231,1.541003704071045,-0.4434797957743795,1.4968859014639058,-2.7767524712786424
3.555662155151367,0.03383183479309082,-0.08330583572387695,0.04955554008483887,-0.9880902171134949,-0.2319364994764328,1.5894728899002075,-0.4285313148044736,1.4995455362447787,-2.76493974319385
3.5657119750976562,0.04848963022232056,-0.06688916683197021,0.052175410091876984,-1.0718250274658203,-0.23333118855953217,1.6198945045471191,-0.41318634692185563,1.5023104654542987,-2.7524547046902814
3.575770139694214,0.0652119517326355,-0.049636900424957275,0.05190939083695412,-1.1725813150405884,-0.23304960131645203,1.6326535940170288,-0.3976665385277246,1.505244519701727,-2.7390765968171076
3.585705280303955,0.07896000146865845,-0.031244546175003052,0.04722542315721512,-1.284469485282898,-0.23169033229351044,1.633839726448059,-0.3821039040109914,1.508381442631641,-2.7246767990398992
3.5957601070404053,0.09138566255569458,-0.011114358901977539,0.03920185565948486,-1.4000537395477295,-0.24522818624973297,1.6166605949401855,-0.36665616446676774,1.5116553204729346,-2.7091909820363504
3.605752944946289,0.0997309684753418,0.006476998329162598,0.03837156295776367,-1.5059306621551514,-0.26576223969459534,1.5679821968078613,-0.35153331103893515,1.51487867765536,-2.692717200405889
3.615779161453247,0.10462522506713867,0.03296846151351929,0.035301629453897476,-1.6212457418441772,-0.25600993633270264,1.5290906429290771,-0.33689350689611103,1.5181540207094533,-2.675213254194776
3.625800132751465,0.10767006874084473,0.04501780867576599,0.03837186098098755,-1.7306822538375854,-0.24375644326210022,1.493749737739563,-0.322625745724549,1.5216613726088808,-2.6566592356085863
3.6358799934387207,0.1460789442062378,0.05224210023880005,0.04078400135040283,-1.7853611707687378,-0.2813064455986023,1.4742889404296875,-0.308605290078757,1.525027200208661,-2.637392855937364
3.645782947540283,0.23069274425506592,0.0789741575717926,0.03576159477233887,-1.796412706375122,-0.30079385638237,1.4441659450531006,-0.2947834139323664,1.527859933373302,-2.6179088176680994
3.6558499336242676,0.30376672744750977,0.12116670608520508,0.03185003995895386,-1.8610546588897705,-0.318747341632843,1.3904327154159546,-0.2813175750760677,1.5303575481332394,-2.5982389890137307
3.6657841205596924,0.32311010360717773,0.14647629857063293,0.030064284801483154,-1.9522393941879272,-0.35894882678985596,1.3402901887893677,-0.26836984603467573,1.5324534952004607,-2.577915485819934
3.6759042739868164,0.3179052472114563,0.15747690200805664,0.043453216552734375,-2.048845052719116,-0.3468846082687378,1.2786893844604492,-0.25596884835654415,1.5344046254016381,-2.5566832631465104
3.6859371662139893,0.3092581033706665,0.16350628435611725,0.05164026841521263,-2.128793716430664,-0.3439791202545166,1.1783074140548706,-0.2443595503254204,1.5363921789799695,-2.5346327636228447
3.6959481239318848,0.29452961683273315,0.18311595916748047,0.043475568294525146,-2.1702053546905518,-0.35050761699676514,1.0521901845932007,-0.2338972870266718,1.5382389724680534,-2.512091683634425
3.705888271331787,0.267248272895813,0.20832933485507965,0.035752054303884506,-2.2155165672302246,-0.34879574179649353,0.906074047088623,-0.22472493620611594,1.5398928606357796,-2.489242509809722
3.7158560752868652,0.19663822650909424,0.21493284404277802,0.027619244530797005,-2.2523193359375,-0.3272387385368347,0.7389295101165771,-0.21711236324823507,1.5415713892262344,-2.4660675940723964
3.7258529663085938,0.10204648971557617,0.21574273705482483,0.018399840220808983,-2.235633611679077,-0.31043925881385803,0.5725756883621216,-0.21114603023546308,1.5432828974156279,-2.4428547006251633
3.7360451221466064,0.019186675548553467,0.21785877645015717,0.009404536336660385,-2.151381731033325,-0.29148414731025696,0.40845486521720886,-0.20676808826725937,1.5449229144238568,-2.42025216578273
3.7459940910339355,-0.05331993103027344,0.22862102091312408,-0.010791901499032974,-2.008115291595459,-0.2715354859828949,0.2444014847278595,-0.20397323056081243,1.5464435459768577,-2.3988697473141016
3.755929946899414,-0.1197730302810669,0.2515013813972473,-0.03777122497558594,-1.8014577627182007,-0.2697599232196808,0.09870420396327972,-0.20267252071318362,1.5476672893058379,-2.3793350812052014
3.7660160064697266,-0.16493916511535645,0.25806474685668945,-0.06263893842697144,-1.575426459312439,-0.2832898497581482,-0.028793836012482643,-0.20267034770543205,1.5483331076921896,-2.362075388470134
3.7760982513427734,-0.19111353158950806,0.24955810606479645,-0.07457786798477173,-1.3529633283615112,-0.30132201313972473,-0.13342469930648804,-0.2037841776665393,1.5483970261619309,-2.347145726932543
3.786355972290039,-0.20183289051055908,0.23789730668067932,-0.06887376308441162,-1.1683883666992188,-0.34199538826942444,-0.1972484141588211,-0.20570415923385202,1.5477671372301802,-2.33433618511223
3.7960500717163086,-0.17429989576339722,0.21052251756191254,-0.05790138244628906,-1.0295439958572388,-0.39981892704963684,-0.2452719807624817,-0.20816815860146706,1.5463030855911715,-2.323179427765979
3.8060312271118164,-0.1031867265701294,0.16517597436904907,-0.04196864366531372,-0.957280695438385,-0.4557921886444092,-0.26152071356773376,-0.2109423316530189,1.5440694210510135,-2.31314849172234
3.816033124923706,-0.02246272563934326,0.10981304943561554,-0.02624857798218727,-0.9833585023880005,-0.49977901577949524,-0.26949411630630493,-0.21386547560374813,1.541315344503252,-2.3033568495814674
3.8260059356689453,0.05449092388153076,0.06970657408237457,-0.00850820541381836,-1.0961687564849854,-0.5531506538391113,-0.25397348403930664,-0.2168084537645978,1.5382695130163195,-2.292864787900041
3.836703062057495,0.11880916357040405,0.030584320425987244,0.014767467975616455,-1.2948685884475708,-0.6081008911132812,-0.2327338010072708,-0.2196360616936647,1.5350359654336176,-2.2807517026420894
3.846066951751709,0.1618233323097229,-0.004658147692680359,0.052613142877817154,-1.619941234588623,-0.6825565099716187,-0.23406246304512024,-0.22250824734402921,1.5317995356296112,-2.2659242726105466
3.856032133102417,0.17392867803573608,-0.040817081928253174,0.10081672668457031,-1.9930883646011353,-0.7522368431091309,-0.2191639393568039,-0.22547718422999968,1.5286540767844639,-2.2475112418037457
3.866082191467285,0.1480996012687683,-0.07961541414260864,0.14709633588790894,-2.366389513015747,-0.7919043898582458,-0.23199504613876343,-0.22863575936189032,1.5258793384312686,-2.2252052006714615
3.8760221004486084,0.1138530969619751,-0.10976794362068176,0.18310046195983887,-2.658834218978882,-0.8071504831314087,-0.24001578986644745,-0.23213206113168047,1.5237146369344068,-2.199469836179065
3.886329174041748,0.07000118494033813,-0.12186828255653381,0.19050300121307373,-2.857907295227051,-0.8147945404052734,-0.2511936128139496,-0.2358968507215596,1.5220834186243761,-2.171163667984592
3.8961472511291504,0.021331191062927246,-0.10410939157009125,0.18104952573776245,-2.9555490016937256,-0.7839987874031067,-0.24560683965682983,-0.23979306340327539,1.5210393348923537,-2.1413430814760175
3.9061360359191895,-0.032229602336883545,-0.0790073573589325,0.1610545516014099,-2.9560933113098145,-0.7402273416519165,-0.22345013916492462,-0.24359485918015553,1.5206367033476706,-2.11096650714926
3.9161200523376465,-0.08162587881088257,-0.05129148066043854,0.14212018251419067,-2.8515634536743164,-0.6870315670967102,-0.19295985996723175,-0.2471122590383293,1.5206851601557008,-2.081087581760938
3.9261631965637207,-0.1180146336555481,-0.02776987850666046,0.12572038173675537,-2.6615681648254395,-0.6281688213348389,-0.15924105048179626,-0.2502370932121042,1.5210360465106447,-2.0526990223922486
3.936224937438965,-0.15691137313842773,-0.00735098123550415,0.10714412480592728,-2.410130262374878,-0.5567052960395813,-0.11673541367053986,-0.2528495237870654,1.5215771595478556,-2.026554080030994
3.9462451934814453,-0.19287866353988647,0.0035441219806671143,0.08794516324996948,-2.123323440551758,-0.4917616844177246,-0.07571074366569519,-0.2548985896657718,1.522170212716642,-2.003183345530023
3.9561519622802734,-0.2123745083808899,0.009915679693222046,0.0725785493850708,-1.832132339477539,-0.43069538474082947,-0.03680834919214249,-0.25640374254799575,1.5226890419599732,-1.9827832281527162
3.966186046600342,-0.21885472536087036,0.01746717095375061,0.06614011526107788,-1.572768211364746,-0.3726286292076111,-0.000623982516117394,-0.2573993327246167,1.5231021463969445,-1.9652241989335137
3.976181983947754,-0.21906542778015137,0.015408247709274292,0.06417399644851685,-1.3876913785934448,-0.31685715913772583,0.03836118057370186,-0.25790318692601955,1.5235042490085382,-1.9499729558372547
3.986536979675293,-0.21139544248580933,0.002363145351409912,0.06433629989624023,-1.275391697883606,-0.2558633089065552,0.07731177657842636,-0.2579335637567109,1.5241257719819128,-1.9362221220871874
3.9962830543518066,-0.19546693563461304,-0.013514667749404907,0.06782853603363037,-1.2234617471694946,-0.20450536906719208,0.12345939874649048,-0.2575006948367904,1.5251124870343036,-1.9232855915815936
4.00636100769043,-0.17127853631973267,-0.022975534200668335,0.06913655996322632,-1.1934361457824707,-0.16377338767051697,0.16533415019512177,-0.25660181778151836,1.5264541751221856,-1.910739479083136
4.016382217407227,-0.14157086610794067,-0.027469635009765625,0.07120096683502197,-1.1769769191741943,-0.13295243680477142,0.20755250751972198,-0.25523788074364395,1.5280754169808992,-1.898406685445514
4.026243209838867,-0.1156952977180481,-0.027939945459365845,0.07013225555419922,-1.1572562456130981,-0.11397581547498703,0.2439318150281906,-0.25345352143875627,1.5298943807349052,-1.8862361525344555
4.036427974700928,-0.08741253614425659,-0.012533321976661682,0.06632035970687866,-1.1326217651367188,-0.10829475522041321,0.2826583981513977,-0.2512680999378921,1.531759090466255,-1.8742932854005054
4.046286106109619,-0.05355709791183472,0.008901894092559814,0.058654364198446274,-1.115861177444458,-0.09805038571357727,0.3171420693397522,-0.2486888877154857,1.5336028859794275,-1.862582736626306
4.056282997131348,-0.027033329010009766,0.024444133043289185,0.05307537317276001,-1.115483283996582,-0.08054058253765106,0.3412570357322693,-0.2457998807737312,1.535528910135295,-1.8509623653939844
4.066296100616455,-0.014146268367767334,0.03226350247859955,0.04463612660765648,-1.1237956285476685,-0.06437785923480988,0.3640803098678589,-0.242647736560006,1.5376024439092293,-1.8392995259181266
4.076341152191162,-0.003003239631652832,0.03853704035282135,0.03658914566040039,-1.1394389867782593,-0.04090498015284538,0.3705064654350281,-0.23931433149078096,1.539866814579875,-1.8275232553812968
4.086410045623779,-0.0015993714332580566,0.046892717480659485,0.031274497509002686,-1.1564890146255493,-0.00804077461361885,0.374660462141037,-0.23592945716250685,1.5424089747689593,-1.8155910236209165
4.09633207321167,-0.007565200328826904,0.05852214992046356,0.019479457288980484,-1.1698384284973145,0.027031324803829193,0.3701430559158325,-0.23250734186707792,1.5452871467934752,-1.8035068938042313
4.106386184692383,-0.015837907791137695,0.0709746778011322,0.003181757405400276,-1.1654963493347168,0.059655316174030304,0.3558488190174103,-0.2291516382235621,1.5484744515944742,-1.7914013284413055
4.116533279418945,-0.028246760368347168,0.0869968831539154,-0.012103855609893799,-1.1420351266860962,0.09256976842880249,0.3363143801689148,-0.2259246983689959,1.551916927765397,-1.7794637292338176
4.126364231109619,-0.04578500986099243,0.1002991646528244,-0.02673584409058094,-1.0963637828826904,0.11842160671949387,0.3085072338581085,-0.22287616687011763,1.5555278239655603,-1.7679122660793123
4.136472225189209,-0.06372189521789551,0.11147168278694153,-0.038063228130340576,-1.0395928621292114,0.13767336308956146,0.27771300077438354,-0.2200732792164534,1.5592177335182642,-1.7568996336422504
4.14643406867981,-0.0807618498802185,0.12342508137226105,-0.049922168254852295,-0.9777034521102905,0.14744876325130463,0.24020396173000336,-0.21758192274864066,1.5628840666039983,-1.746539357455345
4.15646505355835,-0.09538334608078003,0.13123974204063416,-0.06035590171813965,-0.9256711006164551,0.16161052882671356,0.209291011095047,-0.21539243085713042,1.5665083815916652,-1.73678289743536
4.166484117507935,-0.10738271474838257,0.13353045284748077,-0.07383328676223755,-0.8897064924240112,0.17564618587493896,0.17735837399959564,-0.2134696624494937,1.570167610805663,-1.7274951581436488
4.176465034484863,-0.11712241172790527,0.13720223307609558,-0.08556759357452393,-0.8721593618392944,0.1866031438112259,0.15045464038848877,-0.2118363001613788,1.5738672269280785,-1.7184864791150074
4.186672210693359,-0.11941111087799072,0.13612189888954163,-0.09399247169494629,-0.858832061290741,0.19817191362380981,0.1345720738172531,-0.21036630795401512,1.5776285868307804,-1.709645251906445
4.196465015411377,-0.11674630641937256,0.1303705871105194,-0.10250818729400635,-0.8519558310508728,0.2140435129404068,0.1218939945101738,-0.20900779144209314,1.581496468005579,-1.7009013701035707
4.206480026245117,-0.11368602514266968,0.1293107569217682,-0.11148738861083984,-0.8441935181617737,0.22323088347911835,0.11836983263492584,-0.20770486663172547,1.5854619194334867,-1.692238182274385
4.216598033905029,-0.1058167815208435,0.13613978028297424,-0.11983835697174072,-0.8265812397003174,0.22691786289215088,0.11452742666006088,-0.20640221429618952,1.5894539705172799,-1.6837173733046997
4.226572036743164,-0.09166157245635986,0.1436089724302292,-0.1270279884338379,-0.8265514373779297,0.2337414026260376,0.11314631253480911,-0.2050850557316215,1.5934579332147876,-1.675312267225414
4.236545085906982,-0.07968097925186157,0.14789049327373505,-0.13442718982696533,-0.8371888399124146,0.24208463728427887,0.1085009053349495,-0.20378236906529557,1.5975495532723467,-1.666830448930577
4.246490001678467,-0.06712561845779419,0.14753879606723785,-0.1400928497314453,-0.8518990874290466,0.2476184219121933,0.11330205202102661,-0.20242776873349116,1.6017231799528908,-1.6582346307162374
4.2567362785339355,-0.05210316181182861,0.1471163034439087,-0.15085279941558838,-0.8589500784873962,0.2526020109653473,0.11130627989768982,-0.2010212105402764,1.605954813249487,-1.6495280371394925
4.26668906211853,-0.03995394706726074,0.1612994372844696,-0.16200053691864014,-0.8457154631614685,0.2524358332157135,0.11828242987394333,-0.19956530159727007,1.6102063210746485,-1.6408574369078104
4.2767181396484375,-0.03341817855834961,0.1757287234067917,-0.17149829864501953,-0.8186423182487488,0.24147836863994598,0.11828791350126266,-0.19804547824025676,1.6143289880217129,-1.632411600463639
4.286780118942261,-0.0226898193359375,0.1839788556098938,-0.18034124374389648,-0.7947119474411011,0.2358471155166626,0.11557015776634216,-0.19652558745479878,1.6182955045684275,-1.6242461062222178
4.296808242797852,-0.009159326553344727,0.19573593139648438,-0.1854078769683838,-0.7591372728347778,0.24456679821014404,0.13785740733146667,-0.19489980993289707,1.6222051037848524,-1.616384314376815
4.306643962860107,0.017976880073547363,0.20503491163253784,-0.19651472568511963,-0.7120685577392578,0.24475134909152985,0.16430579125881195,-0.19301173505434138,1.6260613084458395,-1.6089703427909279
4.31660795211792,0.07300269603729248,0.21749348938465118,-0.20849168300628662,-0.6180055737495422,0.25136709213256836,0.2062276303768158,-0.19079690984098877,1.6298188671572305,-1.602252154995742
4.326816082000732,0.1498260498046875,0.23504021763801575,-0.22519254684448242,-0.4817430377006531,0.20645847916603088,0.24950692057609558,-0.1881720881153423,1.6331583308733844,-1.596790781894204
4.336733102798462,0.22412735223770142,0.2539070248603821,-0.2405916452407837,-0.3591988980770111,0.14307811856269836,0.25434184074401855,-0.18540085442773394,1.635617689565391,-1.5927295557515886
4.346681118011475,0.2743889093399048,0.2723066210746765,-0.24289512634277344,-0.31573477387428284,0.09586694091558456,0.24433422088623047,-0.1826872316473458,1.6373725982630114,-1.5895333789688741
4.3567421436309814,0.282657265663147,0.2668931484222412,-0.23682057857513428,-0.31448084115982056,0.0345090813934803,0.19109416007995605,-0.18029471826144938,1.6385543240307525,-1.586513563608857
4.366708278656006,0.2668163776397705,0.25726401805877686,-0.2207430601119995,-0.34922710061073303,-0.051336318254470825,0.10677342116832733,-0.1785586716348707,1.6390355657269082,-1.5832671332620798
4.376705169677734,0.25881683826446533,0.24712428450584412,-0.19919848442077637,-0.43986210227012634,-0.15880772471427917,-0.03235373646020889,-0.17791550692898417,1.6386244345988585,-1.5793305757549998
4.3869171142578125,0.23491054773330688,0.23917870223522186,-0.1738361120223999,-0.5844142436981201,-0.23003476858139038,-0.20654523372650146,-0.17877949319353428,1.6375293356544836,-1.5741138872405058
4.396728038787842,0.1634703278541565,0.22252774238586426,-0.16172683238983154,-0.771123468875885,-0.2663499414920807,-0.4007224440574646,-0.1813887897831437,1.6362459382865884,-1.5670425753991577
4.406772136688232,0.06098330020904541,0.20416513085365295,-0.16013741493225098,-0.9183036088943481,-0.2762153744697571,-0.5940860509872437,-0.18584932203723897,1.6350841071381204,-1.5580983871707017
4.416790008544922,-0.037351250648498535,0.19450153410434723,-0.1625676155090332,-1.017516016960144,-0.2716345191001892,-0.7774555087089539,-0.19213047108988546,1.6341998440220273,-1.5477895097333285
4.426852226257324,-0.12070393562316895,0.18527010083198547,-0.1758866310119629,-1.047497034072876,-0.25132790207862854,-0.9530976414680481,-0.2001734029640546,1.63367544592607,-1.5366627029753892
4.436872959136963,-0.17934423685073853,0.18447665870189667,-0.19229376316070557,-0.9805400371551514,-0.2338617444038391,-1.0983558893203735,-0.20985177200514543,1.6334468173296492,-1.5256091283390685
4.446887016296387,-0.2062739133834839,0.18733598291873932,-0.20838725566864014,-0.8401288986206055,-0.23053571581840515,-1.2141543626785278,-0.22087318152623886,1.633217423421551,-1.5155232699651968
4.4568891525268555,-0.21051830053329468,0.18608534336090088,-0.21948790550231934,-0.6541526913642883,-0.22893214225769043,-1.2957301139831543,-0.2330094499719007,1.6327720925046143,-1.5070490243499841
4.466843128204346,-0.2001236081123352,0.1791771501302719,-0.21809327602386475,-0.4489537179470062,-0.2373405396938324,-1.3485554456710815,-0.24593224157220736,1.631937318282984,-1.500539056302537
4.477126121520996,-0.17278772592544556,0.16466137766838074,-0.21339631080627441,-0.24655234813690186,-0.25422945618629456,-1.3726208209991455,-0.2593796857502778,1.6305241008214482,-1.4961168995821295
4.486915111541748,-0.11990123987197876,0.14065289497375488,-0.19865190982818604,-0.04653935879468918,-0.2773163914680481,-1.3636201620101929,-0.273019700475641,1.628424843904465,-1.493783056611317
4.496826171875,-0.04493403434753418,0.10663437843322754,-0.1849757432937622,0.1464814394712448,-0.31461668014526367,-1.3348217010498047,-0.28660099792577315,1.6254911975936348,-1.4935483709235151
4.506863117218018,0.0505070686340332,0.07355490326881409,-0.17598450183868408,0.3052101135253906,-0.37857943773269653,-1.2999907732009888,-0.29992462519284163,1.6214855131027939,-1.4952299753976497
4.516874074935913,0.15920239686965942,0.04742830991744995,-0.16290175914764404,0.4056815505027771,-0.45547279715538025,-1.2588188648223877,-0.3129400171886572,1.6163097322878623,-1.4983709135318162
4.52690315246582,0.25309085845947266,0.020773977041244507,-0.14204120635986328,0.4436070919036865,-0.5236459970474243,-1.202691674232483,-0.3254721954669445,1.6100815630054628,-1.502355753967059
4.536911964416504,0.30703747272491455,-0.01660880446434021,-0.11090254783630371,0.4011824131011963,-0.5905791521072388,-1.1571500301361084,-0.3374770847602056,1.60312929630542,-1.506449407520905
4.546996116638184,0.3318834900856018,-0.05454489588737488,-0.07777619361877441,0.28076574206352234,-0.6452834010124207,-1.1113771200180054,-0.3489685838760136,1.5957580746523357,-1.5098333529398047
4.55695104598999,0.3458555340766907,-0.08665519952774048,-0.04120659828186035,0.11044063419103622,-0.7170252799987793,-1.0903394222259521,-0.36007143348651843,1.58818598328128,-1.5117002322437985
4.566964149475098,0.347365140914917,-0.11766716837882996,-0.007174134254455566,-0.0842185914516449,-0.753892719745636,-1.0846400260925293,-0.37100830497000015,1.580704550845936,-1.511729011633828
4.577145099639893,0.32943809032440186,-0.14660483598709106,0.012245774269104004,-0.278753399848938,-0.7625893950462341,-1.091841697692871,-0.3819599879204258,1.5736978514428226,-1.5097412421501928
4.587069034576416,0.28997373580932617,-0.1677647829055786,0.01636141538619995,-0.4281335771083832,-0.752669095993042,-1.102765440940857,-0.3930472782120993,1.5673891086794216,-1.5059474578903547
4.597058057785034,0.23485183715820312,-0.17815178632736206,0.0191880464553833,-0.5116874575614929,-0.7543843388557434,-1.1173617839813232,-0.40430166293556813,1.5615764212179326,-1.5009675631240462
4.607048034667969,0.19533491134643555,-0.174174964427948,0.02225285768508911,-0.536858856678009,-0.7491451501846313,-1.1315548419952393,-0.4157549176093806,1.55599471113972,-1.4954685422189298
4.61706018447876,0.15658783912658691,-0.16435831785202026,0.026189563795924187,-0.5200279355049133,-0.7330502271652222,-1.1413654088974,-0.42738842189446463,1.5505175041172037,-1.4900059297829578
4.627057075500488,0.11158031225204468,-0.1619981825351715,0.028089940547943115,-0.4744522273540497,-0.7120722532272339,-1.1433244943618774,-0.4391287740341436,1.5450693025266033,-1.4849541640068342
4.63696813583374,0.07201749086380005,-0.16676390171051025,0.028261959552764893,-0.40169957280158997,-0.6843559741973877,-1.1409612894058228,-0.4508665450697977,1.5395948250673246,-1.4806303091448
4.64715313911438,0.04418414831161499,-0.17283576726913452,0.02786058560013771,-0.3140600025653839,-0.6596629023551941,-1.129875898361206,-0.4625281388768622,1.5340466503718895,-1.477242840017012
4.657112121582031,0.026257097721099854,-0.1777808666229248,0.027502596378326416,-0.23095113039016724,-0.6201297044754028,-1.1118007898330688,-0.4740033909814579,1.5284342603147796,-1.4748415860377209
4.667171955108643,0.016015350818634033,-0.18681201338768005,0.03082120418548584,-0.15600444376468658,-0.5863528251647949,-1.0873639583587646,-0.4851978872494504,1.5228599048169105,-1.473357533310899
4.677160263061523,0.019154667854309082,-0.1991124451160431,0.03120642900466919,-0.08910354971885681,-0.5706075429916382,-1.0521191358566284,-0.49606408875512514,1.5171908078326901,-1.4727128053773786
4.687212944030762,0.03730440139770508,-0.2163052260875702,0.036386363208293915,-0.04703598842024803,-0.5527126789093018,-1.0174654722213745,-0.5065169223774864,1.5114037528376403,-1.4727308065058593
4.6971070766448975,0.051186323165893555,-0.23506447672843933,0.04596596956253052,-0.03908750042319298,-0.5378836393356323,-0.9752417802810669,-0.5165508011450954,1.505638222688163,-1.4730798715661115
4.707137107849121,0.05318915843963623,-0.25456106662750244,0.05689406394958496,-0.06549673527479172,-0.5309032201766968,-0.9300175905227661,-0.5261537284461597,1.500056563185589,-1.4733143212134854
4.717144012451172,0.05857884883880615,-0.2718159556388855,0.07319200783967972,-0.10213900357484818,-0.5340924859046936,-0.879343569278717,-0.5352798464210302,1.4946756531030085,-1.4731967852176444
4.727241039276123,0.06598156690597534,-0.2885153293609619,0.08810735493898392,-0.1478862464427948,-0.5364256501197815,-0.8293435573577881,-0.5439310559016339,1.4895303456026079,-1.4725918270651612
4.737109184265137,0.06298810243606567,-0.301514208316803,0.0984465554356575,-0.20877940952777863,-0.5279169678688049,-0.7740324139595032,-0.5521168100662776,1.4847594170429586,-1.4713591054484485
4.747234106063843,0.04994344711303711,-0.31113022565841675,0.10262501239776611,-0.26954397559165955,-0.5188268423080444,-0.7099711298942566,-0.5597550863289338,1.4804834331142394,-1.4693876252300409
4.757236003875732,0.03730982542037964,-0.3202502727508545,0.10498720407485962,-0.32971569895744324,-0.5054382681846619,-0.6410917043685913,-0.5667878151923269,1.4767597081022164,-1.466641844458524
4.768606185913086,0.025820016860961914,-0.3240320682525635,0.10531878471374512,-0.3846982717514038,-0.4895016849040985,-0.5661892294883728,-0.5731646158115169,1.4736234032466957,-1.463128894754148
4.777336120605469,0.011625826358795166,-0.3240448832511902,0.10515999794006348,-0.4360297620296478,-0.4731577932834625,-0.48565590381622314,-0.5788201531311746,1.4710558149227373,-1.4589041808975094
4.787354946136475,-0.00015908479690551758,-0.32637548446655273,0.10825765877962112,-0.4732884466648102,-0.4519294500350952,-0.39507487416267395,-0.5836717312095443,1.4690636094650007,-1.454036425925905
4.797260284423828,-0.009293973445892334,-0.3276177644729614,0.11065899580717087,-0.49395886063575745,-0.43640953302383423,-0.3012056350708008,-0.5876343649973111,1.4675346935167763,-1.4487052943440915
4.807276248931885,-0.01242130994796753,-0.3242494463920593,0.1073102355003357,-0.4951138496398926,-0.4199666380882263,-0.20044389367103577,-0.5906488181302155,1.4663184290366593,-1.4431185579751777
4.818518161773682,-0.015211522579193115,-0.3173341751098633,0.10233467817306519,-0.4964875280857086,-0.4041520059108734,-0.09589936584234238,-0.5926489866292695,1.4653648922670528,-1.437379489260194
4.827365159988403,-0.023744702339172363,-0.31162339448928833,0.09815127402544022,-0.4853169023990631,-0.38417989015579224,0.00838229525834322,-0.5936009806773935,1.4646521347094992,-1.4315565645416148
4.8372802734375,-0.031109988689422607,-0.3085781931877136,0.09630328416824341,-0.47713717818260193,-0.3687586784362793,0.11450910568237305,-0.5934985209421155,1.4641247021441746,-1.4257145557011122
4.847291946411133,-0.03603178262710571,-0.3039427399635315,0.0930204913020134,-0.46742329001426697,-0.3547089099884033,0.22244222462177277,-0.5923249033759348,1.4637494619032079,-1.4198609759234155
4.857345104217529,-0.03909945487976074,-0.3001015782356262,0.09378384798765182,-0.46562862396240234,-0.3443196713924408,0.3275029957294464,-0.59008767394222,1.4635408985443843,-1.4139336960002231
4.86849308013916,-0.03547018766403198,-0.29663288593292236,0.0946124792098999,-0.4716162085533142,-0.3440123498439789,0.4263073205947876,-0.5868346649726524,1.4634553755634017,-1.4078561906512261
4.877366065979004,-0.022065937519073486,-0.2903413772583008,0.09787256270647049,-0.4914168119430542,-0.3379516005516052,0.5273145437240601,-0.5826017033428442,1.4635059561253259,-1.4015302398795164
4.887433052062988,-0.012875497341156006,-0.28969860076904297,0.0984802320599556,-0.5306704640388489,-0.3237124979496002,0.6201840043067932,-0.5774368616699956,1.4638913556270938,-1.394737186666679
4.897377014160156,-0.007810711860656738,-0.2819212079048157,0.09636545926332474,-0.5781591534614563,-0.30691295862197876,0.7113548517227173,-0.5713897812259326,1.4647409181901057,-1.38733343980483
4.907478094100952,0.0023589134216308594,-0.27411168813705444,0.09151329100131989,-0.6307528614997864,-0.28474482893943787,0.798651397228241,-0.5644969682395949,1.4660978515069356,-1.3792526676982606
4.918362140655518,0.012019634246826172,-0.2640184164047241,0.08558856695890427,-0.6816447973251343,-0.2605654001235962,0.8824565410614014,-0.5567953750613942,1.4680012611059299,-1.3705116970645572
4.927741050720215,0.01866769790649414,-0.254170298576355,0.07514143735170364,-0.7170518040657043,-0.24211980402469635,0.9652829766273499,-0.5482908920581429,1.4703498884705462,-1.3612211937212324
4.937462091445923,0.029719233512878418,-0.24066776037216187,0.06926649808883667,-0.737728476524353,-0.23137390613555908,1.0400927066802979,-0.5390035934870715,1.4729512205162496,-1.3515980761643545
4.9475932121276855,0.04256206750869751,-0.2238214612007141,0.06642091274261475,-0.7519391179084778,-0.22335165739059448,1.1134196519851685,-0.5289872824939419,1.4756703047024873,-1.3417799862300726
4.957864284515381,0.05641299486160278,-0.20621246099472046,0.06310445070266724,-0.7624813318252563,-0.22059261798858643,1.1838765144348145,-0.5182389567321108,1.478419077849904,-1.3318182737330937
4.971292018890381,0.07113909721374512,-0.19075828790664673,0.058541953563690186,-0.7737894058227539,-0.22205336391925812,1.2529650926589966,-0.5067743942812348,1.4811177546363212,-1.321774407076743
4.977627277374268,0.08477401733398438,-0.17659011483192444,0.05337440222501755,-0.8012106418609619,-0.21783874928951263,1.3219003677368164,-0.49462424991059556,1.4838136139025009,-1.3115525020558865
4.98779821395874,0.0949602723121643,-0.16045424342155457,0.05141740292310715,-0.8452364206314087,-0.2060641050338745,1.4050931930541992,-0.48174448268097386,1.486641686233872,-1.3009506599100085
4.99760103225708,0.11297386884689331,-0.1472741663455963,0.05380290746688843,-0.8834825158119202,-0.1947505921125412,1.515238642692566,-0.4678856511583044,1.4896878032361056,-1.2898946945049379
5.007636070251465,0.1598377823829651,-0.13433685898780823,0.05942559987306595,-0.9006449580192566,-0.20532308518886566,1.6198861598968506,-0.4529504536242935,1.492730767592354,-1.2785389796023567
5.018572092056274,0.23489874601364136,-0.10842636227607727,0.061456628143787384,-0.8838420510292053,-0.2144635021686554,1.7069792747497559,-0.4370077026141473,1.4954665772614495,-1.267249730435202
5.02753210067749,0.282800555229187,-0.08123433589935303,0.05955959111452103,-0.8746882081031799,-0.21115131676197052,1.7672958374023438,-0.42029699555664374,1.4979064387647785,-1.2562161770448197
5.037539958953857,0.2747032642364502,-0.05769357085227966,0.0520969033241272,-0.8957350254058838,-0.1817207783460617,1.8015265464782715,-0.4030846656139835,1.500333649690584,-1.2451964792641452
5.047547101974487,0.24112731218338013,-0.04045665264129639,0.04347766190767288,-0.9500808119773865,-0.1512797772884369,1.81470787525177,-0.38563746679456945,1.5030046003442743,-1.23386436459115
5.057651042938232,0.21893668174743652,-0.02101379632949829,0.039185166358947754,-1.0098625421524048,-0.12209553271532059,1.8063658475875854,-0.3681728867299635,1.5059688467819612,-1.2220458895374693
5.068861961364746,0.21087592840194702,0.010202646255493164,0.040245890617370605,-1.0602694749832153,-0.09574328362941742,1.7720363140106201,-0.3509292913419746,1.5091802768070766,-1.209784787821352
5.077574253082275,0.2038673758506775,0.040653228759765625,0.03589153662323952,-1.0908231735229492,-0.07313131541013718,1.712702751159668,-0.33413605550810127,1.5125157101266637,-1.1972449498650675
5.087613105773926,0.19193965196609497,0.06677860021591187,0.025720540434122086,-1.1007400751113892,-0.061934053897857666,1.6469132900238037,-0.317961611613246,1.5158517524561679,-1.184671395238968
5.097631931304932,0.17084527015686035,0.09528544545173645,0.011836230754852295,-1.0856302976608276,-0.0437530092895031,1.5437934398651123,-0.3025589925261651,1.519066860343708,-1.1722961889248131
5.107712268829346,0.1384478211402893,0.13404563069343567,-0.004124104976654053,-1.0555241107940674,-0.02313135378062725,1.4222831726074219,-0.2882649517843257,1.5221914483011518,-1.1603177684351567
5.118764162063599,0.08827632665634155,0.15671512484550476,-0.02029716596007347,-1.0059038400650024,-0.003304164856672287,1.2838740348815918,-0.2751808335877201,1.525199394092747,-1.1489268945159503
5.127705097198486,0.028978705406188965,0.1692386269569397,-0.03751856088638306,-0.9406009912490845,0.014772040769457817,1.1180204153060913,-0.2635817743377031,1.5280761136515304,-1.13826563444988
5.137644052505493,-0.025418996810913086,0.18840014934539795,-0.056667860597372055,-0.8642609715461731,0.02445250004529953,0.9480095505714417,-0.2536101422398639,1.5307598337686756,-1.128482914590011
5.147690057754517,-0.07513463497161865,0.20529472827911377,-0.07381945848464966,-0.7777010798454285,0.025865837931632996,0.772391140460968,-0.2453086776498475,1.53317492463903,-1.1196696865469802
5.157670021057129,-0.1153186559677124,0.2104121744632721,-0.08502358198165894,-0.6800193786621094,0.01699080877006054,0.6022897362709045,-0.23870167951787188,1.535236286008099,-1.1118939057686872
5.168830156326294,-0.14703905582427979,0.20907558500766754,-0.09115278720855713,-0.5841980576515198,-0.007008267566561699,0.45011699199676514,-0.2336573599661695,1.536828271255031,-1.1052176476683953
5.177711009979248,-0.16757231950759888,0.2060028463602066,-0.09401172399520874,-0.5048055052757263,-0.03910987824201584,0.30876535177230835,-0.23004161004667245,1.5378821930062654,-1.0995044953831556
5.187746047973633,-0.17834442853927612,0.20205560326576233,-0.09604543447494507,-0.464756578207016,-0.07466600835323334,0.17820706963539124,-0.227764860960982,1.5384212203647207,-1.0944854025593798
5.19782018661499,-0.1837335228919983,0.18980984389781952,-0.0977475643157959,-0.46394068002700806,-0.09933921694755554,0.06705386191606522,-0.2266926704275542,1.538594519630626,-1.0897110887473782
5.207876205444336,-0.18471843004226685,0.16464108228683472,-0.10347676277160645,-0.5056540966033936,-0.13097651302814484,-0.04106568172574043,-0.22671553144465934,1.5385390211466519,-1.0847583983256817
5.2186150550842285,-0.17183983325958252,0.136095330119133,-0.10251015424728394,-0.5862370729446411,-0.16957250237464905,-0.131589874625206,-0.22776128829070902,1.538259412137078,-1.079205814156999
5.227732181549072,-0.14216214418411255,0.10986721515655518,-0.09621632099151611,-0.6913014650344849,-0.1982901692390442,-0.20219747722148895,-0.22965525590232902,1.537861328826966,-1.0727147976343705
5.237656116485596,-0.10336935520172119,0.08503521978855133,-0.08948493003845215,-0.8093369007110596,-0.23200254142284393,-0.2470952719449997,-0.23215367797891304,1.5374474555990874,-1.065082764649237
5.247823238372803,-0.05294770002365112,0.06576575338840485,-0.08475226163864136,-0.9296793341636658,-0.28874412178993225,-0.27511096000671387,-0.2350685765728453,1.5368723024292124,-1.0562392101891138
5.258026123046875,0.015375375747680664,0.05599971115589142,-0.07124054431915283,-1.0630877017974854,-0.35655421018600464,-0.2886660397052765,-0.23823958651707206,1.535990011523453,-1.0460970027734802
5.268661975860596,0.0794600248336792,0.04645074903964996,-0.05738508701324463,-1.223902702331543,-0.4210756719112396,-0.2968142628669739,-0.24159814397970236,1.534844416388879,-1.0344596983063414
5.278026103973389,0.12461179494857788,0.03481076657772064,-0.040701862424612045,-1.403799057006836,-0.4979572296142578,-0.30165621638298035,-0.24507011672614976,1.5334385266348698,-1.0210465072524961
5.287973165512085,0.15490847826004028,0.02163088321685791,-0.01807338371872902,-1.6094015836715698,-0.5725829601287842,-0.3184199929237366,-0.24873287873960817,1.5318288597038392,-1.005640777117782
5.2978291511535645,0.1775323748588562,-8.413195610046387e-05,0.00466996431350708,-1.8298763036727905,-0.6355558037757874,-0.34586143493652344,-0.2527512744013047,1.5300931078516253,-0.9880268929758033
5.307984113693237,0.17283415794372559,-0.020800024271011353,0.031079832464456558,-2.046849489212036,-0.6681430339813232,-0.37811338901519775,-0.2571764308891149,1.5285649069924612,-0.9681310939332609
5.318531036376953,0.14367014169692993,-0.03600993752479553,0.04633719101548195,-2.20406436920166,-0.699101984500885,-0.4150760769844055,-0.26206751434498127,1.5272780867462457,-0.9462788202009287
5.328412055969238,0.10767471790313721,-0.03805065155029297,0.055503372102975845,-2.3080894947052,-0.7076017260551453,-0.4503520429134369,-0.26739120418726425,1.526269486871035,-0.9230712842790996
5.3379271030426025,0.0751304030418396,-0.022954493761062622,0.05847436562180519,-2.360705614089966,-0.693077564239502,-0.48528969287872314,-0.27313339473242904,1.5256321636603332,-0.8990341844583907
5.347945213317871,0.02621358633041382,-0.00830376148223877,0.0550503134727478,-2.360222101211548,-0.6689985990524292,-0.5025861263275146,-0.279157696802555,1.5254024104647088,-0.874701193907741
5.358013153076172,-0.024895906448364258,-0.006036341190338135,0.057784195989370346,-2.3121793270111084,-0.6334700584411621,-0.5116994380950928,-0.2852966220355069,1.5255575280717626,-0.8505903229925714
5.368729114532471,-0.06555014848709106,-0.004385709762573242,0.05694866180419922,-2.222289562225342,-0.5738952159881592,-0.5076857805252075,-0.291437417894895,1.526140893896716,-0.8271487882591335
5.3779520988464355,-0.10176515579223633,-0.0060086846351623535,0.053313788026571274,-2.0786709785461426,-0.5033384561538696,-0.4832925796508789,-0.2973587090346803,1.5271822509344564,-0.8048757451798376
5.3879852294921875,-0.12871122360229492,-0.005492538213729858,0.04510873928666115,-1.8931398391723633,-0.433120995759964,-0.4443132281303406,-0.30287204966736575,1.5285434505564799,-0.784275262540591
5.397871971130371,-0.1425665020942688,-0.003312915563583374,0.033633530139923096,-1.680019497871399,-0.3621467053890228,-0.3875543475151062,-0.30780219583449475,1.5301129247083027,-0.7657272553595017
5.407933235168457,-0.15008556842803955,-0.00611722469329834,0.023244623094797134,-1.4620288610458374,-0.290556401014328,-0.3185148239135742,-0.31198046938751234,1.5318048889029527,-0.749376325663396
5.418759107589722,-0.1550348997116089,-0.011887073516845703,0.018409788608551025,-1.2483688592910767,-0.22635771334171295,-0.23705245554447174,-0.31528713838676264,1.533559625425753,-0.7352522100002457
5.428930282592773,-0.15706855058670044,-0.017831116914749146,0.0157431922852993,-1.0563490390777588,-0.17410488426685333,-0.1544550359249115,-0.3176723102391544,1.5352785975487624,-0.723220912786543
5.437917232513428,-0.154100239276886,-0.025008946657180786,0.01790810003876686,-0.911437451839447,-0.13236889243125916,-0.0705614686012268,-0.31914078866985635,1.5369356412688246,-0.7129484498190237
5.4482481479644775,-0.15428054332733154,-0.03435662388801575,0.01976996660232544,-0.8249022960662842,-0.08601870387792587,0.00436710100620985,-0.3197613458912434,1.5386813559407897,-0.7038467792244061
5.458001136779785,-0.15496790409088135,-0.04658472537994385,0.020975233986973763,-0.7759643197059631,-0.04179292172193527,0.07891670614480972,-0.3196067358977067,1.540677183956691,-0.6954273973016883
5.470251083374023,-0.15026581287384033,-0.060827404260635376,0.018110396340489388,-0.7560905814170837,-0.001976046245545149,0.14513865113258362,-0.318697261067456,1.5429808905755804,-0.6873421149360671
5.478028059005737,-0.1417320966720581,-0.06564351916313171,0.010905327275395393,-0.7565926909446716,0.034935057163238525,0.21283909678459167,-0.3171170377726035,1.5456331171784337,-0.67933008061814
5.488028049468994,-0.13340801000595093,-0.061935871839523315,0.004853187128901482,-0.7512040734291077,0.06568124890327454,0.2763836979866028,-0.31485378803282876,1.5486154793100804,-0.6713240363732412
5.498203277587891,-0.12272489070892334,-0.05271196365356445,-0.0027012843638658524,-0.7263326048851013,0.0845935121178627,0.3340136408805847,-0.3119425938070626,1.5517809139112437,-0.6634766396431085
5.508901119232178,-0.1122170090675354,-0.04122292995452881,-0.013212323188781738,-0.6944119334220886,0.10229474306106567,0.3881639540195465,-0.3084502777523718,1.5550032152618387,-0.6559432430470623
5.5187671184539795,-0.1024053692817688,-0.02689501643180847,-0.0259820818901062,-0.6668042540550232,0.11871179938316345,0.43138501048088074,-0.30444927471258637,1.5582684079842501,-0.6487546679290562
5.528388023376465,-0.09690326452255249,-0.013458549976348877,-0.03992056846618652,-0.6449503898620605,0.13776326179504395,0.4769546091556549,-0.29998083041124957,1.5615998064884538,-0.6418360239692319
5.538177013397217,-0.08751773834228516,-0.004233658313751221,-0.05121791362762451,-0.6284297108650208,0.15571558475494385,0.5136759877204895,-0.29507210964736114,1.5650167538882997,-0.6351455963019402
5.548408031463623,-0.07648879289627075,0.005362570285797119,-0.06378334760665894,-0.6157110333442688,0.17125912010669708,0.5410695672035217,-0.28981503115259266,1.5685208447134065,-0.6286277869978364
5.558248996734619,-0.0653734803199768,0.01840871572494507,-0.07274830341339111,-0.6113343238830566,0.18717089295387268,0.5631750822067261,-0.2842944560702401,1.5721256190179664,-0.6222220089163067
5.568763256072998,-0.053599655628204346,0.030374199151992798,-0.08173942565917969,-0.6130062937736511,0.19579100608825684,0.5736602544784546,-0.2785736557281993,1.5757933845707308,-0.6158691306199073
5.578174114227295,-0.04278081655502319,0.038922637701034546,-0.09146904945373535,-0.6153172254562378,0.20919087529182434,0.577164888381958,-0.27276612887086094,1.5795347885071471,-0.6095320926045136
5.588950157165527,-0.03814518451690674,0.04683217406272888,-0.10448384284973145,-0.6409618258476257,0.21827252209186554,0.5589560270309448,-0.26699761722800763,1.5833799489463516,-0.6030945653880044
5.598265171051025,-0.037938475608825684,0.05950888991355896,-0.11665487289428711,-0.6942421197891235,0.2316293865442276,0.5347996950149536,-0.2614369237837233,1.5873994833542289,-0.5962802816863151
5.608345031738281,-0.03572720289230347,0.06645062565803528,-0.12570571899414062,-0.7853203415870667,0.24481229484081268,0.4979170560836792,-0.25611865417515073,1.5916853946162315,-0.5887490772970071
5.619001150131226,-0.03369581699371338,0.06822951138019562,-0.1347430944442749,-0.8994711637496948,0.2648017108440399,0.4589233696460724,-0.25114404057803746,1.5963742058895514,-0.5801577403659995
5.6284332275390625,-0.03757756948471069,0.07224778831005096,-0.14063715934753418,-1.0038022994995117,0.2802531123161316,0.4236420691013336,-0.24646287005251666,1.6014794651793884,-0.5704531503107081
5.638311147689819,-0.03724813461303711,0.08025045692920685,-0.14973533153533936,-1.081043004989624,0.2864164113998413,0.3887172043323517,-0.24205243879328814,1.6068752620444773,-0.5598216566212968
5.648332118988037,-0.029863178730010986,0.09604106843471527,-0.16009783744812012,-1.1244888305664062,0.2708049714565277,0.355333149433136,-0.23790755424175472,1.6123399862564975,-0.5486264641470512
5.658390998840332,-0.019605398178100586,0.11623522639274597,-0.16925537586212158,-1.1889524459838867,0.24586167931556702,0.30767130851745605,-0.23407125890976385,1.617658291065445,-0.5368671059698092
5.669022083282471,-0.004872143268585205,0.13430511951446533,-0.17881381511688232,-1.206134557723999,0.2118573635816574,0.287990003824234,-0.23052401410193898,1.6227414421703228,-0.5246486780911694
5.678347110748291,0.008483588695526123,0.14991003274917603,-0.19429409503936768,-1.0595017671585083,0.19810204207897186,0.2939682900905609,-0.22703530500511135,1.627381036243917,-0.5130490336749833
5.688385009765625,0.022902369499206543,0.1838662028312683,-0.22393393516540527,-0.8501035571098328,0.16428789496421814,0.27043500542640686,-0.22363273687549493,1.6313101427361325,-0.5034018642668879
5.698374271392822,0.03362542390823364,0.2302229404449463,-0.25020039081573486,-0.5870159864425659,0.16283327341079712,0.2752463221549988,-0.2205192411221562,1.6344857109575386,-0.4962648633214049
5.7083611488342285,0.03270065784454346,0.24246925115585327,-0.24538767337799072,-0.4072067439556122,0.21468661725521088,0.27756887674331665,-0.2174463330468181,1.6373799022737003,-0.49139280371669425
5.7186291217803955,0.032785236835479736,0.22135207056999207,-0.2363903522491455,-0.2752954363822937,0.26935720443725586,0.3156763017177582,-0.21430544176989397,1.6404854781340388,-0.4881415140165893
5.728607177734375,0.05860215425491333,0.21698251366615295,-0.22016406059265137,-0.1692669838666916,0.2792774736881256,0.36108773946762085,-0.21078322240907293,1.6436644711585509,-0.48611293331392336
5.73837423324585,0.13963890075683594,0.2241838127374649,-0.22110378742218018,-0.03536956384778023,0.2639893591403961,0.388822078704834,-0.2069626369080553,1.6465224782942003,-0.48534936354214864
5.749181270599365,0.21519798040390015,0.23749294877052307,-0.2355175018310547,0.11179032921791077,0.23923581838607788,0.38360974192619324,-0.20314074775486435,1.6488937618182506,-0.48603943820015033
5.758645057678223,0.2347920536994934,0.24984444677829742,-0.2549557685852051,0.23682630062103271,0.17820921540260315,0.3541414141654968,-0.19959828477037386,1.6505535780834455,-0.48815760593791957
5.768372058868408,0.22313904762268066,0.25098299980163574,-0.2538418769836426,0.28757336735725403,0.1117234006524086,0.2997032105922699,-0.19656941696081234,1.6513790653497755,-0.4911610913131466
5.778496265411377,0.21692436933517456,0.24471093714237213,-0.232141375541687,0.27618300914764404,0.04061682149767876,0.23879089951515198,-0.19412801943842603,1.6515091892289682,-0.4942763734636587
5.788442134857178,0.2135128378868103,0.23517067730426788,-0.2066112756729126,0.22649776935577393,-0.04590209200978279,0.14780665934085846,-0.19240580547533168,1.6509338368028659,-0.49701776434674383
5.798395156860352,0.21461880207061768,0.224642813205719,-0.18674731254577637,0.1402699053287506,-0.1340932846069336,0.03942601755261421,-0.19162786546188657,1.6495993488409917,-0.4989914687600783
5.808470249176025,0.20368748903274536,0.213903546333313,-0.17272961139678955,0.026436815038323402,-0.20491020381450653,-0.0890083834528923,-0.19196685311979272,1.647676379677701,-0.4998432744561254
5.818634033203125,0.16420656442642212,0.19665047526359558,-0.16493642330169678,-0.10107237845659256,-0.25221869349479675,-0.22393210232257843,-0.19353239272185063,1.6454118033578504,-0.4993650176855102
5.828894138336182,0.10298848152160645,0.18146365880966187,-0.1579740047454834,-0.2154194563627243,-0.27384915947914124,-0.36040768027305603,-0.19638302158413184,1.643062694399207,-0.4975367753755235
5.838562965393066,0.03513580560684204,0.17427796125411987,-0.1529752016067505,-0.29921674728393555,-0.27768152952194214,-0.4847491681575775,-0.20045967407802648,1.6408023117358668,-0.494606781229438
5.84849214553833,-0.028165161609649658,0.17130047082901,-0.1519918441772461,-0.34428250789642334,-0.2709258794784546,-0.6069312691688538,-0.205742985604227,1.638731097830431,-0.4909169982114814
5.858572006225586,-0.07777589559555054,0.17084909975528717,-0.1534649133682251,-0.35014763474464417,-0.2624976933002472,-0.7124768495559692,-0.21214729928572434,1.6368295708423553,-0.4869038075861695
5.868854999542236,-0.11084449291229248,0.1678164303302765,-0.1555114984512329,-0.31228625774383545,-0.2518250644207001,-0.8105759620666504,-0.2195947027257638,1.6350282152887476,-0.48299489452049926
5.878600120544434,-0.13074755668640137,0.15838542580604553,-0.15313291549682617,-0.23912060260772705,-0.24952565133571625,-0.8974105715751648,-0.22799940327621956,1.6332069899724946,-0.47961047718456284
5.888554096221924,-0.1462671160697937,0.14676444232463837,-0.1511096954345703,-0.14561861753463745,-0.2539249062538147,-0.971159040927887,-0.23726064002881597,1.631227202984278,-0.4770551081820367
5.898674964904785,-0.1567668318748474,0.13843485713005066,-0.1474931240081787,-0.05662541836500168,-0.2590443789958954,-1.038291096687317,-0.24728684035778647,1.6289808290707686,-0.47541115621826313
5.90897798538208,-0.15928006172180176,0.12805473804473877,-0.1415930986404419,0.0361013226211071,-0.2662612795829773,-1.087060809135437,-0.2579442043845491,1.626491066935599,-0.47470588584809886
5.9188151359558105,-0.15246546268463135,0.10474100708961487,-0.1393575668334961,0.12153418362140656,-0.2840995192527771,-1.129141092300415,-0.2691162811535744,1.6236235525610023,-0.47491672707739996
5.928633213043213,-0.14251190423965454,0.0802304744720459,-0.12930119037628174,0.18762852251529694,-0.3001439869403839,-1.1496766805648804,-0.28064727893727465,1.6203603816022702,-0.4759342790896219
5.938668251037598,-0.12423592805862427,0.05923888087272644,-0.11847376823425293,0.26407507061958313,-0.31833505630493164,-1.1414774656295776,-0.29225476597092037,1.6167082649261921,-0.477734515947705
5.9486000537872314,-0.08280420303344727,0.03771626949310303,-0.10994100570678711,0.35735148191452026,-0.3534490764141083,-1.1204853057861328,-0.3037397623180041,1.6125136853945297,-0.48047027118181057
5.958765983581543,-0.01792079210281372,0.022956162691116333,-0.1042708158493042,0.46418312191963196,-0.4223739206790924,-1.0811814069747925,-0.314958346828111,1.6074181445174076,-0.4843447894044144
5.968593120574951,0.0655631422996521,0.007784634828567505,-0.09675359725952148,0.5432332158088684,-0.5072783827781677,-1.043330430984497,-0.3257826442890626,1.6011418709674066,-0.48933802035000246
5.9786951541900635,0.1428012251853943,-0.017503172159194946,-0.0790473222732544,0.5520687699317932,-0.5854299664497375,-1.0044454336166382,-0.33620983693563494,1.593806377868797,-0.4948973146230796
5.989452123641968,0.19301950931549072,-0.04763460159301758,-0.05009341239929199,0.49484407901763916,-0.6554934978485107,-0.9609214067459106,-0.3461792872070499,1.5857188136654021,-0.5003359445576329
5.998824119567871,0.22371357679367065,-0.0788145363330841,-0.01809990406036377,0.3771689236164093,-0.728114664554596,-0.9126287698745728,-0.3556428860703319,1.5771474626650266,-0.5049453589331294
6.008798122406006,0.24641478061676025,-0.10586005449295044,0.013808786869049072,0.19799277186393738,-0.7872554659843445,-0.885789692401886,-0.3646832777306556,1.5683792424196252,-0.5080622782423613
6.0187461376190186,0.2613344192504883,-0.13382834196090698,0.045810163021087646,-0.015142104588449001,-0.8281764388084412,-0.8598974943161011,-0.37345131754526883,1.5598449105526508,-0.5091454072809017
6.028797149658203,0.2543361186981201,-0.16008064150810242,0.07091128826141357,-0.2164350003004074,-0.8676325082778931,-0.8414071798324585,-0.38201180547744823,1.5516828365716473,-0.5080423295306485
6.038852214813232,0.24279069900512695,-0.18142029643058777,0.0911245346069336,-0.3813692033290863,-0.8835725784301758,-0.8341425657272339,-0.39050360184701444,1.5439632352259378,-0.5050291484620218
