timestamp,accel_x,accel_y,accel_z,rotation_x,rotation_y,rotation_z, pitch,roll,yaw
0.04530000686645508,-0.012464940547943115,0.011363834142684937,0.0036037564277648926,0.051796216517686844,0.023572493344545364,-0.0063126361928880215,-0.16354332286972895,1.4371485081666688,0.14310150291050033
0.06039094924926758,-0.009358763694763184,0.012555629014968872,0.003473520278930664,0.05298535153269768,0.026162151247262955,-0.009594129398465157,-0.1635416885671928,1.4373129213662261,0.14255517157043432
0.07277989387512207,-0.007815241813659668,0.010390251874923706,0.0023952126502990723,0.0552024319767952,0.024320043623447418,-0.012205892242491245,-0.16357123495660583,1.43744749154934,0.14198961691313217
0.07992696762084961,-0.004731416702270508,0.006865859031677246,0.005089402198791504,0.054196372628211975,0.018756477162241936,-0.016711747273802757,-0.16364814691517152,1.4375305696372527,0.14141543184355568
0.08167195320129395,-0.0035068392753601074,0.005673140287399292,0.0050926655530929565,0.055162034928798676,0.02197730354964733,-0.02214645966887474,-0.16383633417525234,1.4376167389964984,0.14083843262437737
0.08652806282043457,-0.0027629733085632324,0.007696181535720825,0.0015510916709899902,0.05311279743909836,0.021855775266885757,-0.028005627915263176,-0.16407476189675746,1.437706630464164,0.14025726300594912
0.0953218936920166,-0.00048363208770751953,0.011165991425514221,-0.0020041614770889282,0.048405129462480545,0.009150100871920586,-0.0319572277367115,-0.16433157861834508,1.437747686466658,0.13969477889713103
0.10443282127380371,0.006891429424285889,0.00932551920413971,-0.001671329140663147,0.04094618186354637,-0.0020330450497567654,-0.03976556286215782,-0.16469686964962055,1.4376956691169487,0.1391856396456426
0.11450982093811035,0.011014759540557861,0.00339682400226593,0.0003987997770309448,0.02974306046962738,-0.008710921742022038,-0.04704584553837776,-0.16520027308184404,1.437596028106407,0.13877382456383225
0.12480282783508301,0.0062427520751953125,-0.001881927251815796,-0.0012113600969314575,0.01965094543993473,-0.011879196390509605,-0.05371205508708954,-0.16578734570856232,1.4374817400236541,0.13846780729711392
0.13449788093566895,0.0024071931838989258,-0.0053984373807907104,-0.001960158348083496,0.01700323075056076,-0.00749669736251235,-0.05902985483407974,-0.16641328127931088,1.4373751615821924,0.13822174162210457
0.14448904991149902,-0.0017439723014831543,-0.006824016571044922,-0.00287783145904541,0.02131255902349949,-0.008476830087602139,-0.05897041782736778,-0.16702334116948567,1.437332371700715,0.1379717552835965
0.15470385551452637,-0.0017148256301879883,-0.004324808716773987,-0.005403235554695129,0.024006612598896027,-0.016017571091651917,-0.05485955998301506,-0.167583732249884,1.4372338685260273,0.1376743499321486
0.16451597213745117,0.00011515617370605469,-0.0036701858043670654,-0.006473839282989502,0.015915878117084503,-0.017971398308873177,-0.057279519736766815,-0.1681578581714826,1.4370359688506102,0.13739387773461353
0.17589592933654785,-0.00022560358047485352,-0.012332826852798462,-0.005302950739860535,0.008331462740898132,-0.015337532386183739,-0.057525597512722015,-0.16877255108167993,1.4368073200500389,0.13718825007145927
0.18476295471191406,-0.005115866661071777,-0.016553282737731934,-0.001965761184692383,0.007036800496280193,-0.010893604718148708,-0.05342597886919975,-0.1693544697350258,1.4366735780732434,0.13705005824928732
0.19476699829101562,-0.0038584470748901367,-0.014536768198013306,0.0038577765226364136,0.004179494455456734,-0.017995189875364304,-0.05100596323609352,-0.16984749349291794,1.4365582939904633,0.13693764014796875
0.20491909980773926,-0.0008013248443603516,-0.01439046859741211,0.012023985385894775,0.008912680670619011,-0.02166941948235035,-0.04670996963977814,-0.17025639452866378,1.4363428914229828,0.1368082221020687
0.21470403671264648,7.021427154541016e-05,-0.016785040497779846,0.015487968921661377,0.013668819330632687,-0.023572247475385666,-0.04293467104434967,-0.17059594536167139,1.4360691077175123,0.13663557871238077
0.22483301162719727,-0.0029671788215637207,-0.01632167398929596,0.015853047370910645,0.0147638451308012,-0.026671279221773148,-0.03600757569074631,-0.17088445602717656,1.4357509816958605,0.13643033059072482
0.23496508598327637,-0.005456387996673584,-0.01661449670791626,0.016621366143226624,0.009591454640030861,-0.023288533091545105,-0.03146661818027496,-0.17113515247401534,1.4353958101210407,0.13625075681743673
0.2448561191558838,-0.0064057111740112305,-0.02420911192893982,0.018650472164154053,0.0008848148863762617,-0.005586323328316212,-0.02922743372619152,-0.1713785939797244,1.43515595942246,0.13614857907126943
0.2549769878387451,-0.009106338024139404,-0.029051095247268677,0.016423895955085754,-0.002255850937217474,0.003139790380373597,-0.019454164430499077,-0.1715074961360419,1.4350891494755118,0.13612005267374183
0.26499199867248535,-0.00712430477142334,-0.024424448609352112,0.014630600810050964,-0.004464959725737572,0.002229743404313922,-0.009316416457295418,-0.1715042325445869,1.4350973891105572,0.1361322977027228
0.27498507499694824,0.001424551010131836,-0.02094288170337677,0.014502763748168945,-0.00902562215924263,0.00566921615973115,-0.001958900596946478,-0.17143967526196974,1.4352142852011207,0.13619755792505375
0.2847130298614502,0.00626528263092041,-0.02121041715145111,0.01665365695953369,-0.010801752097904682,0.011930840089917183,0.0030474690720438957,-0.1713240469994023,1.4354989039035368,0.1363301094272542
0.29471516609191895,0.001958012580871582,-0.024222731590270996,0.01841975748538971,-0.008059495128691196,0.019110988825559616,0.005431530997157097,-0.17116012722181057,1.4358975087682466,0.13647741673537134
0.30472588539123535,-9.989738464355469e-05,-0.02107653021812439,0.02095884084701538,-0.0002752412110567093,0.021614093333482742,0.009374767541885376,-0.17097137762430017,1.4363331509747024,0.13656514971682981
0.31477999687194824,-0.0011251568794250488,-0.016910746693611145,0.02304123342037201,0.007001313380897045,0.021030595526099205,0.011364148929715157,-0.17073899815757496,1.4367530583402475,0.13657977906447769
0.32480406761169434,0.0008134245872497559,-0.015531614422798157,0.023509308695793152,0.014199553988873959,0.017150769010186195,0.013957108370959759,-0.17042340032299502,1.4371560672641832,0.1365299526405173
0.3347499370574951,0.0013325214385986328,-0.016866549849510193,0.022665083408355713,0.02213071659207344,0.018304716795682907,0.015997089445590973,-0.1700438642608862,1.4374823392257825,0.13639801673297502
0.34499287605285645,-0.0030308961868286133,-0.016021594405174255,0.01849210262298584,0.027361929416656494,0.0255514457821846,0.020206429064273834,-0.16966649554602423,1.4378109138109307,0.13619635429855795
0.35502004623413086,-0.007959246635437012,-0.013041689991950989,0.011858046054840088,0.03022802248597145,0.034062907099723816,0.025685884058475494,-0.16925948197477197,1.4382227039497775,0.135968671828913
0.3650639057159424,-0.010879337787628174,-0.014257147908210754,0.007410153746604919,0.03412764146924019,0.03738746419548988,0.028653763234615326,-0.16880528935667521,1.438740479206619,0.1357171080137411
0.37540411949157715,-0.01229161024093628,-0.011164635419845581,0.0030459314584732056,0.034169185906648636,0.04743237420916557,0.03415851667523384,-0.1682840935496624,1.439314525092637,0.13544541371014954
0.3849198818206787,-0.008618474006652832,-0.006797432899475098,-0.001640215516090393,0.0375734381377697,0.05779464915394783,0.0425029993057251,-0.1677237219294461,1.440046913015167,0.13517587343213186
0.39497900009155273,-0.007812201976776123,-0.0028131455183029175,-0.003956735134124756,0.03531428053975105,0.06309353560209274,0.047181908041238785,-0.167133895549056,1.4408530478496366,0.1349088948015339
0.40492796897888184,-0.006623208522796631,0.002247065305709839,-0.007624581456184387,0.0356706902384758,0.0837407112121582,0.04064693674445152,-0.16656716152560216,1.441807628723106,0.13466009918034108
0.4152228832244873,-0.007364511489868164,0.0013994723558425903,-0.01005159318447113,0.05618635192513466,0.09589644521474838,0.032892078161239624,-0.16604954579930048,1.4428961549675818,0.13429972847076896
0.42588210105895996,-0.010534048080444336,0.00806744396686554,-0.01513247936964035,0.08967281132936478,0.09738053381443024,0.030450116842985153,-0.16555461183139503,1.4439202771401647,0.1336346953828812
0.43505096435546875,-0.009331762790679932,0.021120965480804443,-0.025274991989135742,0.11403807252645493,0.09613151848316193,0.02641116827726364,-0.16508315739959262,1.444798910199695,0.1326424545000499
0.4449608325958252,-0.006703376770019531,0.021355509757995605,-0.03704066574573517,0.14284180104732513,0.09043435007333755,0.019622184336185455,-0.16462885964962765,1.4455268498033431,0.13138289222616595
0.45489001274108887,-0.005629479885101318,0.019152775406837463,-0.04708874225616455,0.18409788608551025,0.0869663804769516,0.008817474357783794,-0.16423221926481113,1.4460730731760691,0.12975521094236625
0.4651949405670166,-0.010830461978912354,0.024730786681175232,-0.06024201214313507,0.24381563067436218,0.08747726678848267,0.002481547649949789,-0.163898775452807,1.4464854496574227,0.1275896654485358
0.4756748676300049,-0.018041372299194336,0.03314267098903656,-0.07294636964797974,0.31102633476257324,0.0859518051147461,0.0006604781374335289,-0.16353870942008297,1.4468293904906033,0.12475942381020387
0.485105037689209,-0.021103978157043457,0.04355669021606445,-0.08986532688140869,0.3519231081008911,0.06253045797348022,-0.00963082816451788,-0.16319084960100935,1.446958104054638,0.12139802490867116
0.4951479434967041,-0.023117542266845703,0.053486570715904236,-0.09893059730529785,0.38877859711647034,0.03901953622698784,-0.015841586515307426,-0.16286975794158434,1.4467792656579999,0.11764437094940675
0.5050981044769287,-0.02880150079727173,0.062311574816703796,-0.107639841735363,0.4419252574443817,0.027943097054958344,-0.026690399274230003,-0.162585904004611,1.446345186879261,0.11344463073614024
0.515251874923706,-0.04470944404602051,0.07337725162506104,-0.12059466540813446,0.5091460943222046,0.034747205674648285,-0.04392717406153679,-0.16238180573645775,1.4457729107127757,0.10860242949741528
0.5257561206817627,-0.06662040948867798,0.08774836361408234,-0.13221043348312378,0.5927513837814331,0.055259451270103455,-0.0611029677093029,-0.16224535297698126,1.4452186080287641,0.10298787261900345
0.5351598262786865,-0.08388757705688477,0.10177664458751678,-0.1485423892736435,0.6938396096229553,0.06908765435218811,-0.07967132329940796,-0.1621625132001604,1.4446955870005556,0.09641443190055474
0.5451250076293945,-0.08122515678405762,0.11636753380298615,-0.16780227422714233,0.8057553172111511,0.047247640788555145,-0.09674197435379028,-0.16209715918836004,1.444061243177493,0.08875454949440555
0.5553100109100342,-0.06430608034133911,0.13607896864414215,-0.17838174104690552,0.9142128229141235,0.03787597641348839,-0.11434147506952286,-0.16205372163010287,1.4430542366726167,0.07996253735530091
0.567314863204956,-0.044198036193847656,0.14722594618797302,-0.18280988931655884,1.0096735954284668,0.022945895791053772,-0.1395859569311142,-0.16207648808111422,1.4417785744023002,0.07010959100279301
0.5761868953704834,-0.025453627109527588,0.15191400051116943,-0.19443170726299286,1.090423583984375,-0.012501310557126999,-0.15957403182983398,-0.1621965164802661,1.4400864941404035,0.059337204989960174
0.5852048397064209,-0.002360105514526367,0.15809062123298645,-0.2003307044506073,1.1424516439437866,-0.0561310350894928,-0.19253821671009064,-0.16246256892325517,1.4378907976228628,0.04784524610536274
0.5953609943389893,0.022548317909240723,0.16239984333515167,-0.2150101512670517,1.1484829187393188,-0.10501682013273239,-0.22915296256542206,-0.16301294791780377,1.4351640773996197,0.03600325622504397
0.6052138805389404,0.046601057052612305,0.15797306597232819,-0.2372097373008728,1.112430214881897,-0.1832238733768463,-0.272792786359787,-0.16394261291318601,1.4318311386606342,0.024261494785213618
0.6152999401092529,0.07348763942718506,0.13962315022945404,-0.24623984098434448,1.034038782119751,-0.2799416184425354,-0.3363174498081207,-0.16545197892889116,1.4276521977902241,0.013012343382152089
0.6256799697875977,0.09315335750579834,0.11733971536159515,-0.25092029571533203,0.9160691499710083,-0.36369556188583374,-0.40643441677093506,-0.1677166979251515,1.4226974014667932,0.0026405835213307847
0.6352641582489014,0.10229313373565674,0.10990257561206818,-0.2676832675933838,0.7966945171356201,-0.4628375768661499,-0.47572293877601624,-0.17080344233371447,1.4170049342290925,-0.006637588906250289
0.6455249786376953,0.11715829372406006,0.10928645730018616,-0.2801700234413147,0.6871191263198853,-0.5855039954185486,-0.535515546798706,-0.17465064088855206,1.4103328165248918,-0.014879187118077671
0.6554639339447021,0.1385747194290161,0.10434237122535706,-0.28540611267089844,0.5763135552406311,-0.7197361588478088,-0.5949557423591614,-0.17920810565189502,1.4025008490241568,-0.0221744483875643
0.6658351421356201,0.1609402894973755,0.09508408606052399,-0.2938995957374573,0.44350188970565796,-0.8804225325584412,-0.6569314002990723,-0.18451028084458515,1.393316037607791,-0.028412507777446333
0.6765639781951904,0.18019849061965942,0.0869378000497818,-0.2924720048904419,0.29018211364746094,-1.052359700202942,-0.7299901843070984,-0.19067424907226552,1.3826348136721591,-0.033402283717665085
0.6853868961334229,0.19784444570541382,0.0722137838602066,-0.2852177619934082,0.10552390664815903,-1.2286159992218018,-0.8089148998260498,-0.1978582358348304,1.370526504541253,-0.036919192547365275
0.6954560279846191,0.20928573608398438,0.07052671909332275,-0.2728477120399475,-0.09637805819511414,-1.4208568334579468,-0.8847920894622803,-0.20615319289154382,1.3568849084808146,-0.0387450471740115
0.7053749561309814,0.22426849603652954,0.06235148012638092,-0.23745575547218323,-0.27583393454551697,-1.6107006072998047,-0.9644815325737,-0.21559039634840677,1.3416427567288358,-0.03894928055008258
0.7154519557952881,0.23500049114227295,0.04088670015335083,-0.1822974532842636,-0.43082883954048157,-1.796144723892212,-1.0447369813919067,-0.2262047087082458,1.3248159522509293,-0.03784749955599215
0.7260000705718994,0.23483508825302124,0.031247511506080627,-0.12657099962234497,-0.5878128409385681,-1.9654004573822021,-1.1212509870529175,-0.23799106226518196,1.3064737704598264,-0.03559847961657653
0.7353839874267578,0.2255040407180786,0.01415640115737915,-0.07746180891990662,-0.7355847358703613,-2.117307424545288,-1.2014247179031372,-0.2509825590512415,1.2868330962227095,-0.032276401460038816
0.745413064956665,0.21367675065994263,-0.011344850063323975,-0.0344332754611969,-0.9096357226371765,-2.2684855461120605,-1.2704055309295654,-0.26520571471879545,1.2659885649306297,-0.027856848433041564
0.755439043045044,0.20444464683532715,-0.03726503252983093,-0.010538369417190552,-1.0978106260299683,-2.4129068851470947,-1.3426235914230347,-0.2807614970710471,1.2440613339494533,-0.02216784967178814
0.7655160427093506,0.19568175077438354,-0.06916508078575134,0.025745153427124023,-1.2587171792984009,-2.503937244415283,-1.4163095951080322,-0.2977102565736251,1.2213635340077242,-0.015330171219419823
0.775864839553833,0.17705875635147095,-0.08919331431388855,0.054042279720306396,-1.430473804473877,-2.5781197547912598,-1.4835466146469116,-0.3160472326306595,1.1982527074656044,-0.007521894433105684
0.7854268550872803,0.1522701382637024,-0.08200615644454956,0.0736248791217804,-1.5718687772750854,-2.6186392307281494,-1.551444172859192,-0.3357940772772699,1.1750296296055565,0.0012027799803314124
0.795478105545044,0.13881522417068481,-0.05991974472999573,0.09755772352218628,-1.6649055480957031,-2.6817309856414795,-1.6064523458480835,-0.35674542011801136,1.1515974413327503,0.010354447323218375
0.8054709434509277,0.13804882764816284,-0.04368755221366882,0.1264204978942871,-1.7212815284729004,-2.716722249984741,-1.6511059999465942,-0.3786606960450804,1.1278509426810495,0.019576395939158008
0.8154981136322021,0.1355304718017578,-0.039714664220809937,0.14904379844665527,-1.7160816192626953,-2.707813262939453,-1.6818742752075195,-0.40123987433210595,1.1040162759999508,0.028401441518451195
0.8256950378417969,0.11920666694641113,-0.03646847605705261,0.16568222641944885,-1.68239164352417,-2.671043872833252,-1.6873430013656616,-0.42406468059670027,1.080262129232745,0.0363938595681524
0.8354098796844482,0.09941601753234863,-0.03352895379066467,0.16548341512680054,-1.6579627990722656,-2.6093108654022217,-1.687928318977356,-0.4469089798641276,1.0568548404308955,0.043575916139934216
0.8456480503082275,0.09473800659179688,-0.04307374358177185,0.16673922538757324,-1.628727674484253,-2.544229745864868,-1.7042700052261353,-0.46985502158395276,1.0338595732963425,0.049961283727025636
0.8556220531463623,0.0919884443283081,-0.0701662003993988,0.18772143125534058,-1.5788072347640991,-2.4482643604278564,-1.7198774814605713,-0.4928638804713994,1.0113289805069303,0.05533263465219513
0.8656959533691406,0.07682520151138306,-0.08427432179450989,0.2004401981830597,-1.5139763355255127,-2.307694911956787,-1.7047538757324219,-0.515670553124954,0.9895567654188436,0.05964536818708739
0.8758890628814697,0.06717193126678467,-0.08053761720657349,0.19146162271499634,-1.4303016662597656,-2.164585828781128,-1.6813273429870605,-0.5379500382078852,0.9688210824433156,0.06286749380958302
0.8855879306793213,0.07140785455703735,-0.08319032192230225,0.18870100378990173,-1.4275343418121338,-2.0447328090667725,-1.6719834804534912,-0.5598584853989091,0.9489708175918449,0.0652212509893167
0.8955860137939453,0.07170790433883667,-0.09501039981842041,0.1787695288658142,-1.4661775827407837,-1.9198552370071411,-1.6571829319000244,-0.5818857154238143,0.930317356316811,0.06743246033228988
0.9055321216583252,0.0821378231048584,-0.10142457485198975,0.16224998235702515,-1.4333765506744385,-1.7962881326675415,-1.6170885562896729,-0.6037681179198598,0.9128375428468999,0.06946302429327432
0.9157500267028809,0.098233163356781,-0.11214423179626465,0.1732965111732483,-1.3507826328277588,-1.6596570014953613,-1.5712651014328003,-0.6249350766161047,0.8963022389065418,0.07082601703313739
0.9257299900054932,0.0951462984085083,-0.12648284435272217,0.1976916790008545,-1.2427808046340942,-1.496703028678894,-1.5261777639389038,-0.6451535663847898,0.8807110804810224,0.07120047309569637
0.9355781078338623,0.08120161294937134,-0.14877063035964966,0.22113841772079468,-1.1634972095489502,-1.337238073348999,-1.4841283559799194,-0.6644232433968662,0.8661929166916755,0.07062067544187348
0.9456541538238525,0.07629072666168213,-0.1786055564880371,0.23100566864013672,-1.0737128257751465,-1.193008542060852,-1.4470893144607544,-0.6828589172135052,0.8526676291779306,0.06925277294785079
0.9559128284454346,0.07787901163101196,-0.218134343624115,0.2283504605293274,-0.9590290188789368,-1.0774394273757935,-1.4015945196151733,-0.7002834066184629,0.8397913855664535,0.06684985019533599
0.9656951427459717,0.08426588773727417,-0.23809248208999634,0.19694513082504272,-0.8393793702125549,-0.9643427729606628,-1.3397853374481201,-0.716518377768354,0.8273837644329205,0.06350442856113925
0.9759969711303711,0.09707492589950562,-0.21837592124938965,0.1632182002067566,-0.7049092054367065,-0.8699638247489929,-1.2620980739593506,-0.7313013550004592,0.8153435966452879,0.059160823171720806
0.9857299327850342,0.1133154034614563,-0.19531232118606567,0.16028761863708496,-0.6198428869247437,-0.800338864326477,-1.1814804077148438,-0.744739093592792,0.8036711924163962,0.05427041530559657
0.9957540035247803,0.12267673015594482,-0.18231910467147827,0.16706067323684692,-0.5524387955665588,-0.7444332242012024,-1.1012943983078003,-0.7570005580453317,0.7924009610547392,0.0490621605619876
1.0056719779968262,0.1249234676361084,-0.18075919151306152,0.17939382791519165,-0.5624539852142334,-0.7034456729888916,-1.0251131057739258,-0.7684350234260477,0.7817105997966256,0.04407557250305775
1.0157790184020996,0.12305217981338501,-0.1910160779953003,0.1818060278892517,-0.6414084434509277,-0.667256236076355,-0.958885908126831,-0.7796846871066957,0.7720433514102657,0.04006021324018266
1.0259900093078613,0.11784875392913818,-0.21448272466659546,0.18305236101150513,-0.7461105585098267,-0.63109290599823,-0.8954538702964783,-0.7911416269018839,0.7636978915501608,0.03745315293710938
1.0357649326324463,0.1114414632320404,-0.2410483956336975,0.19091486930847168,-0.8391554951667786,-0.589638352394104,-0.8285746574401855,-0.8028447871081119,0.7567962067778521,0.03634940336052606
1.0457661151885986,0.10106506943702698,-0.26479750871658325,0.18920642137527466,-0.9107141494750977,-0.5391342043876648,-0.7661958932876587,-0.8147229400931678,0.7513555992116104,0.03663812771687724
1.0558099746704102,0.08326876163482666,-0.2748550772666931,0.18901649117469788,-0.9583602547645569,-0.48598018288612366,-0.6985628008842468,-0.8265884786379463,0.7473447938135666,0.038145406968955776
1.0657899379730225,0.07142916321754456,-0.26861298084259033,0.17983078956604004,-0.9591923356056213,-0.4370880722999573,-0.6280455589294434,-0.8381705529852679,0.7445632773198484,0.040619100196635546
1.0759060382843018,0.06906241178512573,-0.25577616691589355,0.1695355772972107,-0.9157617688179016,-0.39684343338012695,-0.5437058806419373,-0.849067358368939,0.7427001299144477,0.04369906036031802
1.0858089923858643,0.07057759165763855,-0.23839622735977173,0.16366806626319885,-0.8625825643539429,-0.35081103444099426,-0.458325058221817,-0.8590081452555286,0.7416185817645596,0.04724100690674878
1.0959839820861816,0.06888586282730103,-0.2227553129196167,0.15439116954803467,-0.8088053464889526,-0.28367727994918823,-0.38148432970046997,-0.8680248558223734,0.7414354118447113,0.051194227892861786
1.1058759689331055,0.05993485450744629,-0.21652507781982422,0.1460789144039154,-0.7354757189750671,-0.21309149265289307,-0.2938196063041687,-0.8760112366244792,0.7422191247636949,0.055464531097469884
1.1162569522857666,0.053151100873947144,-0.21054619550704956,0.14370062947273254,-0.6682727336883545,-0.14770741760730743,-0.20513182878494263,-0.8828598487620707,0.7439256715800154,0.06001643759103563
1.1261260509490967,0.05417957901954651,-0.2012319564819336,0.13073790073394775,-0.6043092012405396,-0.07496540248394012,-0.11679557710886002,-0.8886378382758262,0.7466648217270571,0.06499587249020221
1.1358799934387207,0.05475500226020813,-0.19907397031784058,0.11895531415939331,-0.5240532159805298,0.00020072562620043755,-0.029355211183428764,-0.8932875481094888,0.7503937367964543,0.07027813261988738
1.1459019184112549,0.05218598246574402,-0.1977587342262268,0.11873948574066162,-0.41402798891067505,0.07358288019895554,0.06334324181079865,-0.8966002623329682,0.7549438900468891,0.07563531439739707
1.1559488773345947,0.04723072052001953,-0.18841040134429932,0.1139150857925415,-0.2923057973384857,0.15303830802440643,0.15374106168746948,-0.8984196010284988,0.7601238837315631,0.08081065934923361
1.1659350395202637,0.03863602876663208,-0.17656689882278442,0.10989707708358765,-0.18393851816654205,0.23075945675373077,0.2461232990026474,-0.8987583668959236,0.7659304056657809,0.08577252387035579
1.1760008335113525,0.03289523720741272,-0.16685402393341064,0.10535281896591187,-0.08588999509811401,0.31068703532218933,0.3385442793369293,-0.8976918957156137,0.7724482417678001,0.09063465811491017
1.1859500408172607,0.033761829137802124,-0.16229647397994995,0.1023705005645752,-0.006656358018517494,0.38578569889068604,0.42878130078315735,-0.8953045276987688,0.7797631597285678,0.09551736317526059
1.1959750652313232,0.03432902693748474,-0.15841037034988403,0.09486806392669678,0.029730144888162613,0.45432162284851074,0.5119925737380981,-0.8918787981238983,0.788026105022974,0.10071173180422768
1.2060329914093018,0.03341543674468994,-0.1618228554725647,0.0908312201499939,0.0231672003865242,0.5209426879882812,0.5873488187789917,-0.8877498077800615,0.7974226222848023,0.1065199316376839
1.215965986251831,0.028095632791519165,-0.17221450805664062,0.07851463556289673,-0.008051704615354538,0.5832372307777405,0.6490201950073242,-0.8832419954651348,0.8081506054979337,0.113225363102591
1.2263410091400146,0.022410809993743896,-0.1702965497970581,0.05910077691078186,-0.05019426718354225,0.636070728302002,0.7091538906097412,-0.8785024421798124,0.8201767682388829,0.12089329945121677
1.2360599040985107,0.02034980058670044,-0.1620274782180786,0.05106616020202637,-0.09579930454492569,0.6695615649223328,0.763329267501831,-0.8735706614235541,0.8333525228433827,0.12953271066054026
1.246086835861206,0.02222946286201477,-0.15254497528076172,0.05470907688140869,-0.16561105847358704,0.6955756545066833,0.8126350045204163,-0.8685372001371028,0.8475884237552724,0.13919868914676223
1.2560341358184814,0.024033039808273315,-0.1447581648826599,0.06869900226593018,-0.25699636340141296,0.7175302505493164,0.8587151765823364,-0.8636069956309204,0.8629930514822011,0.15013787741803947
1.2661230564117432,0.02649247646331787,-0.14068984985351562,0.08622002601623535,-0.3449248969554901,0.7438411712646484,0.9086784720420837,-0.8587912895121487,0.8796400669516143,0.1624396506402636
1.2762730121612549,0.03424561023712158,-0.13394510746002197,0.09994444251060486,-0.407881498336792,0.7744877934455872,0.9645829796791077,-0.8539000283114856,0.897440686145929,0.17593647314101715
1.2860901355743408,0.03921794891357422,-0.12152731418609619,0.09992960095405579,-0.44641101360321045,0.804074764251709,1.0280227661132812,-0.8486947095813531,0.9162300748310107,0.19039391997178085
1.2961070537567139,0.04526400566101074,-0.11004829406738281,0.08311295509338379,-0.44934821128845215,0.8305932283401489,1.0941951274871826,-0.8429126067225868,0.9356814699188695,0.20544242618735412
1.3062150478363037,0.05642038583755493,-0.10843825340270996,0.045144885778427124,-0.43090540170669556,0.8516204953193665,1.1659058332443237,-0.8363195039301724,0.9554800455892482,0.22072521640820922
1.3161461353302002,0.06761914491653442,-0.10191154479980469,0.003625810146331787,-0.39698526263237,0.8776297569274902,1.239749789237976,-0.828775535527135,0.9754176557979234,0.235985511776404
1.326807975769043,0.07143086194992065,-0.09233510494232178,-0.01283884048461914,-0.3674752712249756,0.9132587909698486,1.3125790357589722,-0.8202439196937393,0.9954747831611234,0.2510853639606981
1.3360559940338135,0.07024151086807251,-0.0878257155418396,-0.005418509244918823,-0.33897995948791504,0.9436073899269104,1.3859493732452393,-0.8107274991104156,1.0156108189520265,0.26598055555587297
1.3461129665374756,0.07419377565383911,-0.08535951375961304,0.01309916377067566,-0.33734533190727234,0.9809229969978333,1.457614779472351,-0.8002950837634459,1.0359359983233276,0.2807932738481684
1.3563249111175537,0.07363682985305786,-0.0825163722038269,0.030969887971878052,-0.3460264503955841,1.0266566276550293,1.5168213844299316,-0.7891134104156149,1.0565910574550315,0.2956623642859737
1.3663899898529053,0.06571370363235474,-0.08790898323059082,0.04117584228515625,-0.3616539537906647,1.0855687856674194,1.5773969888687134,-0.7772581510701084,1.077702062389154,0.31060847057900304
1.3769748210906982,0.05607867240905762,-0.09313267469406128,0.0370941162109375,-0.33896541595458984,1.1398476362228394,1.6356099843978882,-0.7646497762511256,1.0991376251013885,0.3253714801009632
1.3864219188690186,0.052560627460479736,-0.08628171682357788,0.027639001607894897,-0.23119692504405975,1.1914522647857666,1.7023929357528687,-0.7509947779082076,1.1203272653426564,0.3392067840714356
1.3976409435272217,0.05750441551208496,-0.0770907998085022,0.00986817479133606,-0.043465904891490936,1.2373462915420532,1.7693722248077393,-0.7358770378091218,1.1404805803345364,0.351010511832953
1.4064018726348877,0.06301170587539673,-0.05845421552658081,-0.036043912172317505,0.19756630063056946,1.2810207605361938,1.8313767910003662,-0.7191157925924341,1.1590490990936018,0.3599576582114532
1.4185421466827393,0.06712394952774048,-0.028568804264068604,-0.0833134651184082,0.43301689624786377,1.3070975542068481,1.8936183452606201,-0.7007151433986759,1.1757921521274404,0.36574080032635015
1.4276750087738037,0.07365602254867554,-0.008264660835266113,-0.09688776731491089,0.6016706824302673,1.317612648010254,1.944571614265442,-0.6809433841730698,1.1909644841469404,0.3689090777934977
1.4363210201263428,0.07804149389266968,-0.009294629096984863,-0.08552953600883484,0.7148616909980774,1.3354099988937378,1.9843113422393799,-0.6602107917166338,1.205042551336437,0.37019431683404663
1.4462800025939941,0.07485747337341309,-0.024630308151245117,-0.06568831205368042,0.7582642436027527,1.3534245491027832,2.0194056034088135,-0.638828159118787,1.2185795415483327,0.3702953373279137
1.4564011096954346,0.06460529565811157,-0.032268226146698,-0.04184293746948242,0.750551700592041,1.3561077117919922,2.047828197479248,-0.6170972178373109,1.231980044188938,0.3700043260279965
1.4664051532745361,0.06164032220840454,-0.04105210304260254,-0.01420128345489502,0.6994720101356506,1.356496810913086,2.0711803436279297,-0.5952374945754876,1.2454644716981147,0.36982380047249097
1.4766340255737305,0.06416475772857666,-0.053456008434295654,0.004370450973510742,0.6529362201690674,1.347019910812378,2.094066619873047,-0.5733197153010109,1.2590837871775122,0.36995177996849987
1.4863970279693604,0.06795454025268555,-0.053707003593444824,0.010137796401977539,0.6178336143493652,1.3292925357818604,2.115776777267456,-0.5513055733651426,1.2726597014752143,0.37026529028761074
1.4965009689331055,0.07193940877914429,-0.050003647804260254,0.01294448971748352,0.5888611078262329,1.3045448064804077,2.135896682739258,-0.5291761572461574,1.2860610301254125,0.37067327559136787
1.506330966949463,0.07736819982528687,-0.04021516442298889,0.017551779747009277,0.571365237236023,1.2868226766586304,2.151614189147949,-0.5069492353974977,1.299215261639281,0.3710407347031687
1.516516923904419,0.08218508958816528,-0.03036561608314514,0.025009989738464355,0.5747802257537842,1.2672407627105713,2.1586458683013916,-0.4846138696712939,1.3120811540374098,0.37119192585812993
1.5265390872955322,0.08681946992874146,-0.01645350456237793,0.032978788018226624,0.5955412983894348,1.2423982620239258,2.1626925468444824,-0.4622100810748024,1.3245112403414758,0.3709025122279439
1.5363759994506836,0.08931660652160645,-0.00137251615524292,0.04511290788650513,0.642160177230835,1.215570092201233,2.1608920097351074,-0.43970627612245466,1.336412545457918,0.3699618691899652
1.5464420318603516,0.08958935737609863,0.016855835914611816,0.05824972689151764,0.6881449818611145,1.1964423656463623,2.149667978286743,-0.4171666607078701,1.3477669317612146,0.3682221608462457
1.556514024734497,0.08973836898803711,0.03591462969779968,0.0607052743434906,0.7387170791625977,1.1856181621551514,2.125981330871582,-0.39471082769646876,1.3586795047347864,0.3656680048662882
1.5664050579071045,0.08899080753326416,0.04646897315979004,0.05294424295425415,0.7990410327911377,1.1835144758224487,2.0993878841400146,-0.3724197697401297,1.3692536601851775,0.362232429812776
1.5765249729156494,0.08828747272491455,0.059187114238739014,0.037413835525512695,0.8515218496322632,1.1755318641662598,2.05932354927063,-0.35037303062871206,1.3795411440174585,0.35790280767026417
1.5864789485931396,0.09467357397079468,0.07734984159469604,0.018325746059417725,0.8826403617858887,1.153230905532837,2.0109002590179443,-0.328731204845281,1.3895282822705577,0.3528412265788649
1.5964438915252686,0.10189598798751831,0.09308239817619324,0.006770417094230652,0.8731075525283813,1.1173744201660156,1.954073190689087,-0.3076204628386491,1.3991935559840802,0.34735952673895354
1.6064388751983643,0.10931515693664551,0.10023096203804016,-0.005930304527282715,0.8182687759399414,1.0809484720230103,1.8853380680084229,-0.28724790770265507,1.40860302439877,0.34194298912172694
1.6165821552276611,0.11294114589691162,0.10231491923332214,-0.013352915644645691,0.7314702868461609,1.0528290271759033,1.8152365684509277,-0.2677236381714618,1.4179279592839227,0.3369908772129563
1.626626968383789,0.10406160354614258,0.09935545921325684,-0.010792776942253113,0.6298052668571472,1.0433496236801147,1.7370271682739258,-0.2491303623045241,1.4273305465329598,0.3327453987888617
1.6363508701324463,0.09167927503585815,0.09953321516513824,-0.00023502111434936523,0.5706462860107422,1.0433986186981201,1.6610139608383179,-0.23144605802107063,1.436915168861989,0.32906629144691474
1.6468560695648193,0.08126556873321533,0.11078950762748718,0.013421118259429932,0.5286352038383484,1.0509153604507446,1.5809699296951294,-0.21464643731608204,1.446640286868572,0.3256176219743267
1.6563999652862549,0.07387912273406982,0.13217948377132416,0.013259537518024445,0.5087102651596069,1.0563303232192993,1.5003936290740967,-0.19871558682414953,1.4565183266942343,0.32224329190048
1.6664199829101562,0.07929521799087524,0.15104961395263672,0.007249608635902405,0.5142576098442078,1.0486884117126465,1.4183824062347412,-0.1836293060935459,1.466390260551778,0.31869957071781774
1.6777708530426025,0.09226983785629272,0.16173885762691498,-0.003518812358379364,0.5434533357620239,1.0502322912216187,1.3458147048950195,-0.16933040140517935,1.476220275773908,0.31476725155402824
1.686474084854126,0.09931522607803345,0.17594024538993835,-0.0261765718460083,0.5820382237434387,1.0436561107635498,1.2597815990447998,-0.15582053561377399,1.4859817277629013,0.3102773565680211
1.6963729858398438,0.10039478540420532,0.18294468522071838,-0.05540662258863449,0.6122174859046936,1.0434547662734985,1.1826680898666382,-0.14316644431732437,1.4956647544630681,0.3052158120238299
1.7065019607543945,0.09463798999786377,0.18256954848766327,-0.08341842144727707,0.6115265488624573,1.0463393926620483,1.1235668659210205,-0.13122223444985429,1.5054286390954992,0.2998504158574364
1.716681957244873,0.09306067228317261,0.1725820004940033,-0.10534214973449707,0.5895344614982605,1.033571720123291,1.0505783557891846,-0.11998780447829219,1.5151724293744606,0.2944641612891679
1.7266571521759033,0.09032410383224487,0.14952132105827332,-0.10796868801116943,0.5630219578742981,1.033921480178833,0.9763303399085999,-0.1095631048067957,1.5249248671675426,0.28918836062185466
1.7366650104522705,0.08014261722564697,0.13456542789936066,-0.10066866874694824,0.5508992075920105,1.0335626602172852,0.9070327281951904,-0.09991468894886014,1.5347418639512362,0.2839798304427346
1.7465898990631104,0.07623928785324097,0.13875409960746765,-0.10223346948623657,0.5602760910987854,1.0275352001190186,0.8479061126708984,-0.09097031433704561,1.5445767745714751,0.27867657107462285
1.756739854812622,0.07927900552749634,0.14985492825508118,-0.10585373640060425,0.5822842121124268,0.997525155544281,0.7919554710388184,-0.08264573018314358,1.5542479342275801,0.273125158165428
1.7666430473327637,0.08660942316055298,0.15876099467277527,-0.11547070741653442,0.6193585395812988,0.982155442237854,0.7523003816604614,-0.07482933328307138,1.5637191924280038,0.2671801793029987
1.7766950130462646,0.08866596221923828,0.16071027517318726,-0.12643945217132568,0.6458224058151245,0.9319817423820496,0.6884369850158691,-0.06759740224552965,1.5728662477408402,0.26085188802635967
1.7867369651794434,0.08095961809158325,0.1502072960138321,-0.13112199306488037,0.6572238206863403,0.88835608959198,0.6329469084739685,-0.061027477443219805,1.5815314723817209,0.25425368716976926
1.7967078685760498,0.06476294994354248,0.13245108723640442,-0.12446045875549316,0.6519696712493896,0.8568083047866821,0.5762732625007629,-0.0550767501789643,1.5898945761925232,0.24760069035824966
1.8091709613800049,0.056383371353149414,0.12312007695436478,-0.12373030185699463,0.6449018716812134,0.8265751600265503,0.5266004800796509,-0.049706175321393986,1.597990767683554,0.24096340947754433
1.816748857498169,0.05032336711883545,0.1151471883058548,-0.12720024585723877,0.6097100973129272,0.7872642278671265,0.48368629813194275,-0.04485626261442525,1.605784372954442,0.23451538627070873
1.8267381191253662,0.05074131488800049,0.11155376583337784,-0.1334308385848999,0.5709289312362671,0.7483866810798645,0.4560724198818207,-0.04037371609066912,1.613240680494163,0.22841669729559458
1.8367278575897217,0.05567818880081177,0.10699517279863358,-0.1296314001083374,0.5242133736610413,0.6732344031333923,0.4056289494037628,-0.036292823358662324,1.6201580430189164,0.22274225068111936
1.8466589450836182,0.05733555555343628,0.09810848534107208,-0.13062143325805664,0.4885486364364624,0.6192768812179565,0.35274747014045715,-0.032772012327304936,1.6264336883358217,0.21747591808525912
1.8594260215759277,0.037840068340301514,0.09351406246423721,-0.134970560669899,0.44744008779525757,0.5804339051246643,0.2982344329357147,-0.029796622345259226,1.6322855934521614,0.21260147218016837
1.8668570518493652,0.01384115219116211,0.08549918234348297,-0.1496351957321167,0.38515034317970276,0.579514741897583,0.25233474373817444,-0.027327697131300135,1.6379417554092983,0.2082491353044785
1.8768479824066162,-0.00817936658859253,0.07877983897924423,-0.15264689922332764,0.34221407771110535,0.5874661207199097,0.21597006916999817,-0.025242012528653088,1.6437124005882904,0.20447196645523055
1.886829137802124,-0.018542945384979248,0.07952671498060226,-0.14106988906860352,0.3183499276638031,0.578140914440155,0.20143292844295502,-0.02341121924524543,1.6494995914756345,0.2010239937474136
1.8970060348510742,-0.0069686174392700195,0.07918250560760498,-0.1373816728591919,0.3059411942958832,0.5157449245452881,0.16869895160198212,-0.021817154923085155,1.6549219953754088,0.19775422507045462
1.9082379341125488,0.007279694080352783,0.08739112317562103,-0.1430661678314209,0.29188430309295654,0.4728110432624817,0.15176455676555634,-0.020474681753221674,1.6597994024171592,0.1946384877058578
1.9168519973754883,0.001601099967956543,0.08264900743961334,-0.1415032297372818,0.26871293783187866,0.45880600810050964,0.1268320381641388,-0.019341945863350522,1.6643732400991407,0.19172861867630364
1.9268600940704346,-0.015035092830657959,0.06709374487400055,-0.1424962282180786,0.2504914104938507,0.4663069546222687,0.10373988747596741,-0.018432810335131798,1.668972340926177,0.18904006792002567
1.9367599487304688,-0.026165783405303955,0.05821442976593971,-0.15101434290409088,0.242166668176651,0.4302573502063751,0.08446446061134338,-0.01776001306477432,1.6734382978417528,0.18650037886935625
1.9468748569488525,-0.01947838068008423,0.05698012560606003,-0.1507359743118286,0.24301777780056,0.39224469661712646,0.07984887808561325,-0.0171936940228012,1.6775153390267874,0.1840094859930243
1.9581689834594727,-0.010064959526062012,0.06183851510286331,-0.13928937911987305,0.2504570186138153,0.3592694401741028,0.07125592231750488,-0.016699258167146153,1.6812423059891322,0.18146936530701085
1.967393159866333,-0.009858548641204834,0.07018916308879852,-0.14030122756958008,0.2706051468849182,0.3266509175300598,0.06313839554786682,-0.016328907511110925,1.6846403536282355,0.1788189685552582
1.9772279262542725,-0.01686614751815796,0.07563772797584534,-0.14147472381591797,0.29540902376174927,0.2914745509624481,0.05812979117035866,-0.016053026568454993,1.6876956100488452,0.17593632744472873
1.9868791103363037,-0.021864891052246094,0.07993677258491516,-0.13550911843776703,0.3203980624675751,0.2506449818611145,0.043727412819862366,-0.015904359425723772,1.690354631684111,0.17280336049129544
1.9970729351043701,-0.027856290340423584,0.07300695776939392,-0.13596487045288086,0.3294834494590759,0.22654736042022705,0.025054393336176872,-0.01595246164819392,1.6926739439800533,0.16952838583394395
2.008958101272583,-0.038827478885650635,0.06616941839456558,-0.13556288182735443,0.3431157171726227,0.1979258805513382,0.015146316029131413,-0.016167724776577568,1.6947603500425503,0.16617075020647135
2.0170328617095947,-0.04697704315185547,0.06482970714569092,-0.12430141866207123,0.3630465567111969,0.17055657505989075,0.0053940871730446815,-0.016500390688880318,1.6965447051647695,0.1626557374949402
2.0269720554351807,-0.0494614839553833,0.06833980977535248,-0.10932481288909912,0.38779592514038086,0.15237069129943848,-0.0030082394368946552,-0.01697289604120801,1.6980762511714071,0.15892464724454106
2.036954164505005,-0.0561140775680542,0.07577243447303772,-0.10877014696598053,0.41268104314804077,0.1305210441350937,-0.001721932552754879,-0.01750543969365314,1.6994414851780595,0.15494560283817452
2.046941041946411,-0.060998380184173584,0.07783569395542145,-0.12003123760223389,0.4225083291530609,0.10715274512767792,-0.006727556698024273,-0.018082039352247975,1.700535611293366,0.15079957380519243
2.059345006942749,-0.06631791591644287,0.07689158618450165,-0.13207852840423584,0.43292155861854553,0.11066332459449768,-0.015329034999012947,-0.01873635103959002,1.7015457914899348,0.146571443176715
2.0670058727264404,-0.07623231410980225,0.07754877954721451,-0.13795462250709534,0.4444529712200165,0.09654328972101212,-0.01688282936811447,-0.019467822613902116,1.7025188890359173,0.1422450674441384
2.0769829750061035,-0.0764155387878418,0.07881411910057068,-0.1438608318567276,0.453263521194458,0.05971629172563553,-0.018161147832870483,-0.020232066682537096,1.7032148367626174,0.13780697564505695
2.0870440006256104,-0.06724250316619873,0.08235763013362885,-0.13980689644813538,0.45808228850364685,0.03104940801858902,-0.016297999769449234,-0.021006947847250577,1.7035760117320906,0.13330504437935792
2.0970828533172607,-0.06566673517227173,0.08782492578029633,-0.13507352769374847,0.4579741656780243,-0.00860586017370224,-0.027862243354320526,-0.021826480245462288,1.7035906005258628,0.12878960995315902
2.108341932296753,-0.06522518396377563,0.08579283952713013,-0.13110004365444183,0.45785072445869446,-0.048323892056941986,-0.03283713385462761,-0.022729621101647144,1.703202116296461,0.1242891646725502
2.117100954055786,-0.06271815299987793,0.08767814934253693,-0.12975551187992096,0.4658870995044708,-0.09913167357444763,-0.03946441039443016,-0.023697973928266544,1.7023718209837633,0.11974479579198906
2.1271650791168213,-0.059764862060546875,0.09594036638736725,-0.1336287260055542,0.48000651597976685,-0.1642352193593979,-0.04517678543925285,-0.02474392509101561,1.7009563664662326,0.11511352372401608
2.137324094772339,-0.05515474081039429,0.10325328260660172,-0.13707220554351807,0.4910748600959778,-0.2293447107076645,-0.04872464761137962,-0.025838951086266878,1.6988616390087312,0.11035464747724659
2.1471469402313232,-0.05182403326034546,0.10911353677511215,-0.14466285705566406,0.4689237177371979,-0.294535756111145,-0.06367206573486328,-0.026998153642352078,1.6961182241099493,0.10562426234178704
2.1596310138702393,-0.045737624168395996,0.1063183918595314,-0.15311658382415771,0.4229671359062195,-0.3882039189338684,-0.07968351989984512,-0.028267901058152252,1.6926004876193603,0.10127195794394354
2.1674699783325195,-0.03427255153656006,0.09937885403633118,-0.14887642860412598,0.3557862639427185,-0.4872066378593445,-0.09512761980295181,-0.029608021964756114,1.6881021135423326,0.09749486171142038
2.1781539916992188,-0.02346903085708618,0.09068114310503006,-0.13690698146820068,0.2702878713607788,-0.5828806757926941,-0.11544540524482727,-0.031012672702018924,1.6826606449992467,0.09449406026240234
2.18733286857605,-0.0204237699508667,0.08394533395767212,-0.13103222846984863,0.16916339099407196,-0.6831374168395996,-0.14082394540309906,-0.03253075314894339,1.6762464629516,0.09243301113647025
2.197206974029541,-0.021112024784088135,0.07517531514167786,-0.12753784656524658,0.05070891231298447,-0.7712840437889099,-0.16724862158298492,-0.03417582190381476,1.6689316113280575,0.09147811702516252
2.2084429264068604,-0.02584552764892578,0.06778723001480103,-0.12710823118686676,-0.08698583394289017,-0.8656291961669922,-0.19883078336715698,-0.035980302498796086,1.6607457865064836,0.0918100695517507
2.217259168624878,-0.028100311756134033,0.06287577748298645,-0.128775954246521,-0.2368893176317215,-0.9519497156143188,-0.23356479406356812,-0.037993952686881764,1.651684224339174,0.09360806428518542
2.2273590564727783,-0.03285181522369385,0.05507497116923332,-0.12703287601470947,-0.3904799520969391,-1.0022729635238647,-0.2653249204158783,-0.04024229004178878,1.642008368285316,0.09692676772881663
2.2372381687164307,-0.038221001625061035,0.05153362825512886,-0.1302492618560791,-0.547789990901947,-1.0598646402359009,-0.30321264266967773,-0.04276345829720562,1.6319104742735198,0.10179787340814316
2.2471940517425537,-0.030240774154663086,0.05251273140311241,-0.13212597370147705,-0.7028740048408508,-1.1493914127349854,-0.34007909893989563,-0.04563238586706195,1.621132650024882,0.10822235650034147
2.258486032485962,-0.0138930082321167,0.054029036313295364,-0.12028908729553223,-0.8556148409843445,-1.2284067869186401,-0.3799301087856293,-0.048880450190772654,1.6095832966395072,0.1161945169928827
2.2672531604766846,-0.0037685632705688477,0.059188421815633774,-0.10469710826873779,-0.9893769025802612,-1.2786272764205933,-0.4286934435367584,-0.05262176240892257,1.597484890210386,0.12558790139264703
2.2773001194000244,-0.0084075927734375,0.06310444325208664,-0.09156012535095215,-1.088148593902588,-1.294872522354126,-0.47823622822761536,-0.056951978907299645,1.5851555372058015,0.13611483491696139
2.287281036376953,-0.017323195934295654,0.07167017459869385,-0.07901513576507568,-1.1496484279632568,-1.2970147132873535,-0.5313223600387573,-0.06191429851201934,1.572850122506967,0.1473954301873615
2.297227144241333,-0.015898942947387695,0.08394147455692291,-0.07115107774734497,-1.1797168254852295,-1.3100559711456299,-0.5916991829872131,-0.06758396318848559,1.5605488263470686,0.1590720131710966
2.309257984161377,-0.0045316219329833984,0.09359628707170486,-0.06419140100479126,-1.1623883247375488,-1.3154438734054565,-0.6511852741241455,-0.07399745925394982,1.548208377250767,0.1707418458495583
2.3173840045928955,0.006869018077850342,0.09642423689365387,-0.06643950939178467,-1.1141059398651123,-1.2961900234222412,-0.7104310393333435,-0.08113975777256127,1.5359944292227765,0.1819937632714256
2.3273990154266357,0.012473881244659424,0.1020846962928772,-0.08828145265579224,-1.0448386669158936,-1.2582632303237915,-0.7704811096191406,-0.08898117633365601,1.5240800134232573,0.1925360784205991
2.3374359607696533,0.021681010723114014,0.10500576347112656,-0.10378217697143555,-0.9610388278961182,-1.2220754623413086,-0.8322305083274841,-0.09752608062884163,1.5125871602350562,0.20219930938112804
2.347465991973877,0.044363975524902344,0.10324857383966446,-0.1128888726234436,-0.845421314239502,-1.2312726974487305,-0.8865675330162048,-0.10668575535180598,1.501181005280223,0.2107302598554017
2.3593480587005615,0.07707685232162476,0.10320701450109482,-0.11953378468751907,-0.7306311130523682,-1.244446039199829,-0.9464494585990906,-0.1164314979301901,1.4895725900242296,0.21796087338592443
2.367668867111206,0.1036534309387207,0.10707950592041016,-0.14176249504089355,-0.655809760093689,-1.2616755962371826,-1.0067708492279053,-0.12678036224606523,1.4777773869342647,0.22404046761145388
2.3781540393829346,0.12274163961410522,0.11199845373630524,-0.16856487095355988,-0.6571695804595947,-1.3193939924240112,-1.0707141160964966,-0.13778094932419574,1.4655891173055484,0.22954355034876828
2.387479066848755,0.14058858156204224,0.10062740743160248,-0.1691187024116516,-0.7287607192993164,-1.3841769695281982,-1.14382004737854,-0.14956336035508933,1.4528825874877396,0.2352417218138186
2.397439956665039,0.15518593788146973,0.06978410482406616,-0.1443444937467575,-0.808815598487854,-1.4404735565185547,-1.2248930931091309,-0.16228099408927216,1.4396711338868011,0.24147829128708645
2.408384084701538,0.1519375443458557,0.044160932302474976,-0.11846630275249481,-0.8887358903884888,-1.4275388717651367,-1.3149255514144897,-0.176046313598182,1.4264056752614998,0.24824155238455828
2.417567014694214,0.14313721656799316,0.04149682819843292,-0.10768777132034302,-0.9319733381271362,-1.431693434715271,-1.4110325574874878,-0.19090763338374306,1.413437656774419,0.2553439429379532
2.4275059700012207,0.16782045364379883,0.047896742820739746,-0.0842706561088562,-0.9363999366760254,-1.540313482284546,-1.5075315237045288,-0.20684036437672498,1.3999889817200453,0.26232197350900077
2.437412977218628,0.22254478931427002,0.036413758993148804,-0.03992815315723419,-0.9495983123779297,-1.6836941242218018,-1.619871973991394,-0.22390582728937553,1.3852539394331669,0.26898550561550977
2.4474689960479736,0.26226806640625,0.015828147530555725,-0.004048198461532593,-1.0061265230178833,-1.8062154054641724,-1.7568267583847046,-0.24236661639617738,1.3692686535886678,0.27548516768808434
2.4583590030670166,0.26465851068496704,-0.0006900131702423096,0.020221784710884094,-1.1204376220703125,-1.9235223531723022,-1.9026907682418823,-0.2624985406759662,1.3522326834371048,0.2822325244821717
2.467388868331909,0.24461716413497925,-0.008899867534637451,0.030052199959754944,-1.2804936170578003,-1.9966661930084229,-2.0396926403045654,-0.28446461578924687,1.3346003996303977,0.2897531323645013
2.4775099754333496,0.22372257709503174,-0.016709864139556885,0.01586243510246277,-1.4422340393066406,-2.044576644897461,-2.1502790451049805,-0.3081543420504227,1.3167874626422342,0.298251821672108
2.4875049591064453,0.2025834321975708,-0.004969418048858643,-0.0019353628158569336,-1.5881845951080322,-2.0735855102539062,-2.249265670776367,-0.3333921989896229,1.2990841522239058,0.3076388796220976
2.4975998401641846,0.19356465339660645,0.001792609691619873,-0.005969524383544922,-1.7297627925872803,-2.0911624431610107,-2.3371241092681885,-0.36009579437787,1.2815866625201138,0.3178129066085951
2.5083160400390625,0.2006627917289734,-0.004409432411193848,-0.004963606595993042,-1.8858380317687988,-2.105804920196533,-2.41377592086792,-0.3881850467700902,1.2644838100686329,0.32884154989252334
2.51776385307312,0.2091248631477356,-0.018585234880447388,0.010210186243057251,-2.058985710144043,-2.0986945629119873,-2.4758408069610596,-0.4176117493556224,1.2480449432452656,0.34094468671383177
2.5281970500946045,0.21051114797592163,-0.03920707106590271,0.031347185373306274,-2.2804336547851562,-2.0674495697021484,-2.5470433235168457,-0.448451350905012,1.232824821513872,0.35455560505494715
2.537539005279541,0.1951216459274292,-0.07108616828918457,0.031014174222946167,-2.4486501216888428,-2.001307725906372,-2.6103217601776123,-0.4808009239186637,1.219217100499015,0.36972361089540234
2.5477330684661865,0.17385375499725342,-0.08842650055885315,0.043632715940475464,-2.608886480331421,-1.939396858215332,-2.647034168243408,-0.5143400686567282,1.2073320364269424,0.38623343189156834
2.5595619678497314,0.16114526987075806,-0.10318845510482788,0.03736254572868347,-2.730335235595703,-1.8498328924179077,-2.69230580329895,-0.5489215826693055,1.197332905061725,0.4039868376503641
2.5677220821380615,0.14850455522537231,-0.12083548307418823,0.038191258907318115,-2.775771141052246,-1.7520124912261963,-2.7068893909454346,-0.5842888745103304,1.189280096800521,0.42260987521986304
2.5776209831237793,0.1390865445137024,-0.12463194131851196,0.027710169553756714,-2.7341830730438232,-1.6562433242797852,-2.6725168228149414,-0.6196468970399637,1.1828366075700292,0.4413822748429069
2.5876529216766357,0.14747726917266846,-0.11682432889938354,0.02242240309715271,-2.602583408355713,-1.5532840490341187,-2.6180975437164307,-0.6543718331178986,1.177585165468336,0.4596286679494797
2.5977580547332764,0.1526668667793274,-0.11400550603866577,0.04391184449195862,-2.3990750312805176,-1.435399055480957,-2.5311391353607178,-0.6878328027693776,1.173095228348927,0.47647753515480556
2.609186887741089,0.14087677001953125,-0.13038551807403564,0.05018430948257446,-2.159576177597046,-1.3109065294265747,-2.443232297897339,-0.7196654051268239,1.1689348230718903,0.4913337877303094
2.6178319454193115,0.1237783432006836,-0.1379687786102295,0.0566292405128479,-1.8736926317214966,-1.1865400075912476,-2.342613458633423,-0.7496673552786928,1.1647204451155748,0.5036976506136125
2.6281609535217285,0.11438047885894775,-0.1337401270866394,0.0676243007183075,-1.5682971477508545,-1.0888996124267578,-2.2197396755218506,-0.7774848365233561,1.1597621613042024,0.512998388324021
2.6376798152923584,0.11847788095474243,-0.1386803388595581,0.07441788911819458,-1.260197401046753,-1.002713680267334,-2.1014456748962402,-0.8029811538014128,1.1535809470050755,0.5190406070535423
2.6477859020233154,0.12002235651016235,-0.15439558029174805,0.07173246145248413,-0.9788068532943726,-0.9040213227272034,-1.9978224039077759,-0.8262859597634744,1.145951429175661,0.5217142466546402
2.6589229106903076,0.11136841773986816,-0.16902440786361694,0.06335029006004333,-0.6746336221694946,-0.7992067337036133,-1.8903284072875977,-0.8474438528676956,1.1367716779629384,0.5208439238104046
2.667832136154175,0.1061200499534607,-0.16631996631622314,0.07025507092475891,-0.3931485712528229,-0.7162005305290222,-1.7657889127731323,-0.8662669596325122,1.1257444251798645,0.5162853316568892
2.677698850631714,0.11707597970962524,-0.17238551378250122,0.08465540409088135,-0.18207786977291107,-0.6460214257240295,-1.6621171236038208,-0.8829345228442887,1.1129890039066035,0.5085571123465638
2.6878068447113037,0.1240997314453125,-0.1928897500038147,0.08800351619720459,-0.07997401058673859,-0.5606372952461243,-1.5884431600570679,-0.8980413960157925,1.0992773713491557,0.4987301718595398
2.6978209018707275,0.11885374784469604,-0.21551477909088135,0.0800277590751648,-0.0447465181350708,-0.4749913513660431,-1.517380952835083,-0.9121426108238526,1.0856447257006818,0.4879954366028355
2.7092299461364746,0.11683696508407593,-0.2123481035232544,0.07954078912734985,-0.017578531056642532,-0.4137815833091736,-1.42660653591156,-0.9253052270753672,1.0724137396486866,0.47693909908909193
2.717808961868286,0.12555766105651855,-0.2128196358680725,0.09657517075538635,-0.023532826453447342,-0.3715986907482147,-1.33529531955719,-0.9375002350248759,1.0596607173483181,0.46595584043225147
2.727980852127075,0.1332668662071228,-0.22630351781845093,0.09868571162223816,-0.05578310787677765,-0.3195427656173706,-1.2558130025863647,-0.9489782819996708,1.0477826963267505,0.45558113751147816
2.737969160079956,0.12503600120544434,-0.24879956245422363,0.08807015419006348,-0.07677441090345383,-0.2568860352039337,-1.1672383546829224,-0.9598082115075082,1.0370784012376735,0.44599807258271346
2.7480249404907227,0.11016473174095154,-0.2691180109977722,0.08871522545814514,-0.06666252017021179,-0.21313920617103577,-1.0660169124603271,-0.969789691829976,1.0273713753479978,0.4370359922423344
2.7590649127960205,0.10054647922515869,-0.26395124197006226,0.09191009402275085,-0.043582767248153687,-0.17823848128318787,-0.9528577327728271,-0.9787091806556166,1.0183574269768878,0.4285084925848459
2.7678420543670654,0.09871506690979004,-0.25637829303741455,0.09597131609916687,-0.026814905926585197,-0.13793766498565674,-0.832520604133606,-0.9864836959651799,1.010128418791088,0.4205329873808488
2.7779059410095215,0.09592702984809875,-0.258880615234375,0.10132196545600891,-0.014327609911561012,-0.08622919023036957,-0.7057749032974243,-0.9931000550206319,1.0030057516672395,0.41334536872029687
2.7878501415252686,0.09097087383270264,-0.2604333758354187,0.11110511422157288,-0.0008022307883948088,-0.03963794559240341,-0.5694172978401184,-0.9985082630648328,0.9971427187343923,0.4071061137248562
2.7979700565338135,0.08691850304603577,-0.25409263372421265,0.1218356192111969,0.0037033050321042538,0.010465435683727264,-0.4329880475997925,-1.002704678511471,0.9927172300636923,0.40203273249965615
2.8101208209991455,0.08464032411575317,-0.25240254402160645,0.13375809788703918,0.01774117723107338,0.07407117635011673,-0.29174384474754333,-1.0056964422602495,0.9898996382302919,0.3981922631118865
2.818472146987915,0.0788918137550354,-0.2639184594154358,0.1384228765964508,0.04802185297012329,0.1352013647556305,-0.150628000497818,-1.0073713401937998,0.9886136389059751,0.3954277120041429
2.827955961227417,0.0743793249130249,-0.2734184265136719,0.1267545223236084,0.08266653120517731,0.19245103001594543,-0.01299876905977726,-1.0077027653188158,0.98866857267112,0.3935623628440218
2.837899923324585,0.07219129800796509,-0.28206831216812134,0.11741387844085693,0.1188194751739502,0.2515692114830017,0.12818525731563568,-1.0066710736309539,0.9900538925818895,0.39257309739398955
2.8479321002960205,0.06702256202697754,-0.28906118869781494,0.1152946949005127,0.15292103588581085,0.32005369663238525,0.2685216963291168,-1.0042580769297254,0.9928108854705804,0.39246143243233844
2.8585641384124756,0.05771711468696594,-0.29245448112487793,0.12132841348648071,0.19912901520729065,0.39415720105171204,0.4119443893432617,-1.0004422783553293,0.9969795149693558,0.3931689174130342
2.8681299686431885,0.04862287640571594,-0.29316502809524536,0.12054544687271118,0.2763705551624298,0.47129684686660767,0.5590548515319824,-0.9950829547898149,1.0023270193511316,0.3943719762564012
2.8781068325042725,0.047071486711502075,-0.29446715116500854,0.10966798663139343,0.3896515667438507,0.5485151410102844,0.7072166204452515,-0.9879566623048501,1.0083446031077223,0.39545407799582927
2.8881189823150635,0.04535353183746338,-0.290621817111969,0.10262453556060791,0.5201839208602905,0.6123000979423523,0.8571099638938904,-0.9788974487628324,1.0146083459040705,0.39598183086419647
2.8981001377105713,0.043634265661239624,-0.27874326705932617,0.09454959630966187,0.6331000924110413,0.6705597043037415,1.0052437782287598,-0.967925040068253,1.0209994355801708,0.39594321068987876
2.9087278842926025,0.038060933351516724,-0.27977585792541504,0.08988028764724731,0.734605610370636,0.7372527718544006,1.1567984819412231,-0.9551176996614111,1.0277304480998908,0.3955509896556901
2.918071985244751,0.029635965824127197,-0.2893591523170471,0.09710407257080078,0.8174133896827698,0.8092049956321716,1.3089145421981812,-0.9405258450692997,1.035000351846222,0.39497237253047723
2.928149938583374,0.01694267988204956,-0.29482710361480713,0.11095532774925232,0.8663339614868164,0.8885024785995483,1.4636136293411255,-0.9242746765433525,1.0431662772525734,0.3945648597359496
2.9381320476531982,0.003866732120513916,-0.2979305386543274,0.1315644383430481,0.8885830640792847,0.9826247096061707,1.6190389394760132,-0.9065087706968687,1.0526539623610223,0.3947065314799043
2.9483089447021484,-0.004332780838012695,-0.30525195598602295,0.155117928981781,0.9198733568191528,1.0857986211776733,1.7776328325271606,-0.8872608510658303,1.063593503109889,0.3954557758569048
2.959089994430542,-0.005304574966430664,-0.31045305728912354,0.17628127336502075,0.967376708984375,1.1894339323043823,1.937940239906311,-0.8664058759815643,1.0757738849991016,0.39648294873512796
2.9681918621063232,-0.0019116997718811035,-0.3054528832435608,0.1752018928527832,1.0239553451538086,1.2919305562973022,2.0947604179382324,-0.8439001109192505,1.0889955220017857,0.3975404855263027
2.978131055831909,0.006431281566619873,-0.2961750030517578,0.16136011481285095,1.120328426361084,1.3958923816680908,2.2399141788482666,-0.8196813621732152,1.1028664427343042,0.3980969729036787
2.988163948059082,0.01470714807510376,-0.290144145488739,0.14275959134101868,1.219753384590149,1.4895107746124268,2.377825975418091,-0.7937613850304017,1.1171086873617342,0.3978085640326324
2.998394012451172,0.02156442403793335,-0.2748996615409851,0.1079152524471283,1.309472918510437,1.5757684707641602,2.5061757564544678,-0.7662215489107616,1.1316147364602338,0.39659422841389325
3.00838303565979,0.0297202467918396,-0.25886404514312744,0.0832609236240387,1.3803809881210327,1.6551737785339355,2.626859664916992,-0.7372301265494045,1.1463980533164644,0.394552844838132
3.0181009769439697,0.03623700141906738,-0.24642926454544067,0.07840275764465332,1.4090887308120728,1.73525869846344,2.7389492988586426,-0.7069940197769616,1.1616885694488566,0.39200564838832486
3.0280909538269043,0.04464644193649292,-0.23487472534179688,0.08388581871986389,1.4002045392990112,1.8208746910095215,2.834237575531006,-0.6758109417825867,1.1777907139682742,0.38932423980621905
3.038109064102173,0.05627709627151489,-0.2254115343093872,0.09224024415016174,1.3813320398330688,1.8997911214828491,2.925018310546875,-0.6438629806773168,1.1947907924137429,0.38666246460654036
3.0481488704681396,0.07279747724533081,-0.21119791269302368,0.10014337301254272,1.3547967672348022,1.9675902128219604,3.0063188076019287,-0.611222225659619,1.2126024984709345,0.3840236435070893
3.058151960372925,0.09643328189849854,-0.18604916334152222,0.10647299885749817,1.327684998512268,2.024775743484497,3.074303150177002,-0.57802415077427,1.231125947727818,0.3813686187536668
3.0680558681488037,0.12272113561630249,-0.16050922870635986,0.10738900303840637,1.3115980625152588,2.0732593536376953,3.1280622482299805,-0.544359197886286,1.2501165097025049,0.3785073456123273
3.0781009197235107,0.14878356456756592,-0.1313665509223938,0.10456794500350952,1.307766079902649,2.1110429763793945,3.166325569152832,-0.5103331751172594,1.269432670611787,0.3752443904647142
3.0881400108337402,0.17557001113891602,-0.10186240077018738,0.0969623327255249,1.3108000755310059,2.136204242706299,3.187488317489624,-0.47609026549394173,1.2888958309483918,0.3713887660489669
3.098149061203003,0.19987016916275024,-0.07132309675216675,0.08586396276950836,1.3078522682189941,2.1492912769317627,3.191519021987915,-0.4417861217425699,1.3083548842606625,0.36689356054904565
3.1082088947296143,0.22683238983154297,-0.03834626078605652,0.072466641664505,1.3195151090621948,2.1536028385162354,3.1734840869903564,-0.40763540165259243,1.327791467141014,0.36168615913168073
3.1189801692962646,0.25111979246139526,-0.008733510971069336,0.05442094802856445,1.3469387292861938,2.125150680541992,3.137124538421631,-0.373808526382707,1.3469103285861115,0.3555601013911006
3.1280879974365234,0.2757183313369751,0.02755674719810486,0.034996211528778076,1.3853352069854736,2.0749356746673584,3.079878807067871,-0.34046345267712036,1.365460681678472,0.34838620948051857
3.138545036315918,0.2991373538970947,0.06291282176971436,0.01351936161518097,1.419963002204895,2.0213725566864014,3.0026400089263916,-0.3078476434697903,1.3833260437929307,0.34012043668379766
3.1485719680786133,0.311434268951416,0.09443497657775879,-0.01394122838973999,1.454591155052185,1.9312047958374023,2.8949615955352783,-0.27622117327948637,1.400424565418287,0.33077686576678
3.1587979793548584,0.3143662214279175,0.12399809062480927,-0.03721325099468231,1.4324275255203247,1.831685185432434,2.7703726291656494,-0.24587283662370002,1.4166877445606025,0.320726501005338
3.1683509349823,0.31862467527389526,0.14633402228355408,-0.051299095153808594,1.369668960571289,1.7299983501434326,2.621861219406128,-0.21710767586180965,1.4321746868525584,0.3104885311189641
3.1783201694488525,0.3175674080848694,0.1591084897518158,-0.058805935084819794,1.2663472890853882,1.6170175075531006,2.460683584213257,-0.1901337737853723,1.4469293229677915,0.30050810488030083
3.188101053237915,0.305351197719574,0.1720922291278839,-0.058580510318279266,1.1401472091674805,1.5089236497879028,2.2785451412200928,-0.16514421590558365,1.4609159438858115,0.2911556124704639
3.1982250213623047,0.28455662727355957,0.18077880144119263,-0.055347368121147156,0.9839696288108826,1.411167025566101,2.083225965499878,-0.14231768867071568,1.474247183460438,0.2827081904602634
3.2083418369293213,0.2593621015548706,0.18473905324935913,-0.05862069129943848,0.8182488083839417,1.310070514678955,1.8855992555618286,-0.1217136024811474,1.4869142681348737,0.27545718424741844
3.2182891368865967,0.23384320735931396,0.18241789937019348,-0.06535530090332031,0.6437630653381348,1.2112879753112793,1.6818530559539795,-0.10333414006488308,1.4988655311381198,0.2695137474083709
3.22827410697937,0.2110266089439392,0.17374765872955322,-0.07633614540100098,0.46225404739379883,1.1351428031921387,1.4724534749984741,-0.08719654025300942,1.5101924183647408,0.26500850355022704
3.238342046737671,0.18814605474472046,0.16362826526165009,-0.09085399657487869,0.2773449122905731,1.0539480447769165,1.2652387619018555,-0.07331485359158117,1.5209165732741676,0.2620638679912952
3.24835205078125,0.1706392765045166,0.1543591320514679,-0.1032419204711914,0.1033884733915329,0.9769713282585144,1.0666948556900024,-0.061576385464242114,1.5309928282673086,0.2607079717723185
3.258436918258667,0.15609872341156006,0.15519246459007263,-0.11396437883377075,-0.034441567957401276,0.9074426293373108,0.8860130310058594,-0.051800916767003144,1.5404282709016592,0.2607247141821018
3.2684760093688965,0.1428220272064209,0.16886702179908752,-0.12605875730514526,-0.16695715487003326,0.8328689336776733,0.7256377935409546,-0.04376292042144015,1.5492193197742785,0.2619343431931746
3.280060052871704,0.1290196180343628,0.1970445215702057,-0.13803958892822266,-0.2920253276824951,0.7464837431907654,0.5877771377563477,-0.03723227286815214,1.5572453753198743,0.26435841255168097
3.288486957550049,0.12029671669006348,0.20949497818946838,-0.144697904586792,-0.3867294490337372,0.6749023795127869,0.4757024645805359,-0.03195028715985026,1.5644595351670882,0.2678394468535589
3.2986409664154053,0.10585319995880127,0.2051224708557129,-0.15289711952209473,-0.44256529211997986,0.6430779099464417,0.37135928869247437,-0.027730209198970672,1.5711820769105185,0.27202004129757845
3.3087618350982666,0.07641708850860596,0.2112509161233902,-0.17295527458190918,-0.46761706471443176,0.6149264574050903,0.2874291241168976,-0.024423509920711187,1.5776160594711575,0.27658481395728685
3.3185698986053467,0.05038738250732422,0.21340730786323547,-0.19279658794403076,-0.46149152517318726,0.5916445851325989,0.21669557690620422,-0.02186970599210802,1.5837716543094633,0.2812343733356214
3.328624963760376,0.036402106285095215,0.21350455284118652,-0.20126593112945557,-0.443194180727005,0.5627171993255615,0.16268117725849152,-0.01991045180196899,1.5896636321265498,0.2857448491093017
3.3386199474334717,0.02878749370574951,0.22054678201675415,-0.20536231994628906,-0.41922199726104736,0.5194962024688721,0.11382868885993958,-0.018437417867597065,1.5951807908456594,0.2900366459513993
3.3485000133514404,0.02402341365814209,0.22041447460651398,-0.2083275318145752,-0.40647977590560913,0.4851260483264923,0.07352323830127716,-0.01739463332325655,1.6002843970858893,0.2941401891173186
3.358858823776245,0.019705772399902344,0.21169820427894592,-0.21291542053222656,-0.4211876392364502,0.43563467264175415,0.042917653918266296,-0.01668086597534334,1.6049970126543798,0.29824871510645756
3.368723154067993,0.019894957542419434,0.20012708008289337,-0.21055352687835693,-0.44495782256126404,0.3801906406879425,0.022388409823179245,-0.016197475266332768,1.6091689293469222,0.30255620315454546
3.378856897354126,0.01720261573791504,0.17890718579292297,-0.19332802295684814,-0.46767458319664,0.35568130016326904,0.001386189484037459,-0.01590244857186344,1.6129123171407234,0.30713128935798023
3.388784170150757,0.006200909614562988,0.16390731930732727,-0.17499291896820068,-0.4672866761684418,0.3279815912246704,-0.015973465517163277,-0.015780838961943624,1.6164316069857971,0.3118230077161733
3.3988070487976074,-0.003996431827545166,0.16358596086502075,-0.16394364833831787,-0.45394691824913025,0.28512758016586304,-0.025427687913179398,-0.015766499554357025,1.6195769108441085,0.3164523180123131
3.409202814102173,-0.005993664264678955,0.1625392884016037,-0.15828776359558105,-0.4342432916164398,0.2509661018848419,-0.028942156583070755,-0.015821349919889503,1.622332381562036,0.32091307645380596
3.4186899662017822,-0.014985799789428711,0.15946564078330994,-0.15803277492523193,-0.4051695466041565,0.23384277522563934,-0.03687145188450813,-0.015934818328585072,1.6248126630097182,0.325131869740117
3.428791046142578,-0.02806222438812256,0.1479426622390747,-0.15870320796966553,-0.3718971312046051,0.23901569843292236,-0.0413786880671978,-0.01610526386503319,1.6272572344652907,0.3290392816744553
3.438814878463745,-0.04073411226272583,0.13237398862838745,-0.16125249862670898,-0.3383333086967468,0.24331723153591156,-0.040639396756887436,-0.01632363015379677,1.6297196440751072,0.33260928313815696
3.449113130569458,-0.041786909103393555,0.11510591953992844,-0.16705572605133057,-0.3079749345779419,0.23351262509822845,-0.0443078987300396,-0.016532409572852527,1.6322014885077791,0.33586482215717817
3.4589500427246094,-0.03162407875061035,0.10325044393539429,-0.16872787475585938,-0.2956759035587311,0.17700807750225067,-0.057598937302827835,-0.016867540993369803,1.634320911764035,0.3388968849044122
3.4687530994415283,-0.022044122219085693,0.09714997559785843,-0.16518759727478027,-0.3003576695919037,0.1147284135222435,-0.062074221670627594,-0.01727654074329574,1.635835027252728,0.3419020319593068
3.4788620471954346,-0.018613815307617188,0.07958461344242096,-0.14885461330413818,-0.31047898530960083,0.07479724287986755,-0.07955548167228699,-0.017767385624167492,1.63682369542334,0.34501177546664263
3.4889309406280518,-0.029107272624969482,0.05669437721371651,-0.13196206092834473,-0.30744630098342896,0.07923131436109543,-0.09105559438467026,-0.01842568245099025,1.6376340452178144,0.3481656830318212
3.500030994415283,-0.04406684637069702,0.049823980778455734,-0.12693464756011963,-0.29443249106407166,0.07394015043973923,-0.090064637362957,-0.019131654909116582,1.6384842484348061,0.35123756529107214
3.509063959121704,-0.04047781229019165,0.05126109719276428,-0.1234060600399971,-0.2699766457080841,0.06934739649295807,-0.07270912826061249,-0.019769845208448416,1.6392460641047544,0.3541167607085203
3.518857955932617,-0.025805294513702393,0.04793040454387665,-0.11039435863494873,-0.24192635715007782,0.0400552861392498,-0.06681342422962189,-0.020277770608368398,1.639893410602277,0.3567299587052371
3.5287210941314697,-0.005670726299285889,0.04227541387081146,-0.10600770264863968,-0.2049097865819931,-0.006289842072874308,-0.06253910064697266,-0.020775390799208968,1.6400856087593119,0.3590057128772512
3.538846969604492,0.004402577877044678,0.0372714102268219,-0.0963820293545723,-0.18069207668304443,-0.016548603773117065,-0.047972943633794785,-0.021186591018347984,1.639997037002562,0.36096235434431934
3.548787832260132,-0.0014497637748718262,0.029125967994332314,-0.09151650220155716,-0.181773841381073,-0.03336966037750244,-0.037149857729673386,-0.021489085136170663,1.6397852186764628,0.3627862557761018
3.558995008468628,-0.008547961711883545,0.020184895023703575,-0.08388221263885498,-0.18278877437114716,-0.03792260214686394,-0.028463425114750862,-0.021686916961478273,1.6394594338379407,0.36464854094414406
3.5688650608062744,-0.01427537202835083,0.006501400843262672,-0.05563616752624512,-0.1642082780599594,-0.03655058890581131,-0.01912691630423069,-0.021805377226087944,1.639120925556867,0.3664105126735723
3.5789058208465576,-0.013777196407318115,-0.00022747740149497986,-0.041526079177856445,-0.13211053609848022,-0.03689786046743393,-0.011034633964300156,-0.021850914624106828,1.6388041069490842,0.367900829598229
3.5888609886169434,-0.006699621677398682,0.0004142392426729202,-0.037342190742492676,-0.09658627957105637,-0.06807677447795868,-0.007018640171736479,-0.021865332233089386,1.6383115811128846,0.36904508423693555
3.5988738536834717,0.00542294979095459,-0.00010258518159389496,-0.028686046600341797,-0.06763479113578796,-0.09398321062326431,-0.0009200013591907918,-0.02184809338157474,1.6375117329757314,0.36986132846865766
3.6091339588165283,0.0095292329788208,-0.002054324373602867,-0.019952908158302307,-0.048260193318128586,-0.10498321801424026,0.0003698739456012845,-0.021846704057003993,1.6359158633292807,0.3704217939587239
3.618932008743286,0.0015832185745239258,-0.005036534741520882,-0.01480090618133545,-0.0367279089987278,-0.10103055834770203,0.0032463539391756058,-0.02183819447310242,1.634315481154581,0.3708324933431731
3.628973960876465,-0.009608209133148193,-0.013285782188177109,-0.008829839527606964,-0.02785353921353817,-0.09326908737421036,0.00654739560559392,-0.021786645141557825,1.6327659425552241,0.3711446854393033
3.6389811038970947,-0.012723147869110107,-0.01303148828446865,-0.005749590694904327,-0.019395073875784874,-0.09782042354345322,0.0055798692628741264,-0.021730703215958994,1.6312541138466232,0.37136217929186244
3.6487691402435303,-0.0097389817237854,-0.003133608028292656,-0.0058721378445625305,-0.032587308436632156,-0.09529708325862885,0.011397544294595718,-0.021613678566824796,1.6299089091270338,0.37158263786102524
3.6591479778289795,-0.005484104156494141,-0.002535240724682808,-0.005526430904865265,-0.06120697036385536,-0.10825388878583908,0.004943639971315861,-0.021473040299986864,1.628614439445072,0.37204441122933873
3.669001817703247,0.0021649599075317383,-0.006376689299941063,-0.0012300051748752594,-0.09569187462329865,-0.1329384595155716,0.0017192444065585732,-0.021377701249613208,1.6271227620581623,0.37282782016394245
3.6790521144866943,0.004024624824523926,-0.011067530140280724,0.008492112159729004,-0.12867939472198486,-0.15326769649982452,-0.0035508847795426846,-0.021292522147299143,1.6254695831421642,0.3739389079947825
3.689072847366333,-0.0008996725082397461,-0.020353909581899643,0.018845923244953156,-0.16344597935676575,-0.14337584376335144,-0.012835569679737091,-0.021271039767615754,1.623856258488399,0.37541545739985854
3.698967933654785,-0.01597428321838379,-0.02329615317285061,0.02113056182861328,-0.18658405542373657,-0.14063143730163574,-0.01654961332678795,-0.021298856059992436,1.6224085688367198,0.37717058807601167
3.7090718746185303,-0.026011109352111816,-0.012758029624819756,0.016405820846557617,-0.19648341834545135,-0.15323632955551147,-0.009952218271791935,-0.021212983571890647,1.6210123029418964,0.3791097252681775
3.719106912612915,-0.02582341432571411,0.0023052338510751724,0.021221041679382324,-0.19666637480258942,-0.14810068905353546,-0.002174989553168416,-0.021026999221645255,1.6196434747310122,0.3810896853292022
3.7291359901428223,-0.02904123067855835,0.010477850213646889,0.023548245429992676,-0.1865817904472351,-0.12663458287715912,0.0005032450426369905,-0.020926259026145564,1.6184589020888853,0.38302040078605426
3.739223003387451,-0.03187417984008789,0.023868277668952942,0.020517107099294662,-0.17133785784244537,-0.14005079865455627,0.0030058175325393677,-0.020810950065418596,1.6173227274585724,0.3848070894624898
3.7490241527557373,-0.02033710479736328,0.03550245612859726,0.021588440984487534,-0.15125225484371185,-0.16069041192531586,-0.0037040698807686567,-0.02068187396084691,1.6160818855535997,0.3864250116977213
3.760357141494751,-0.005605101585388184,0.041402995586395264,0.02971792221069336,-0.13215233385562897,-0.16610674560070038,-0.006227415055036545,-0.02057965416465286,1.6149241735615256,0.3878596924016612
3.769091844558716,-0.0033015012741088867,0.044046007096767426,0.034783005714416504,-0.10857323557138443,-0.1669524908065796,-0.015653248876333237,-0.02046957730799444,1.6139166471077109,0.3890697355367984
3.7793569564819336,-0.01021730899810791,0.03937961906194687,0.034289006143808365,-0.08710017055273056,-0.12716086208820343,-0.030023932456970215,-0.02048204146116182,1.6131127709974105,0.39007678854422445
3.7891499996185303,-0.022136688232421875,0.03650027886033058,0.027118805795907974,-0.0696524903178215,-0.09231265634298325,-0.03765426203608513,-0.02072165914447316,1.6125768538125533,0.39088635139231775
3.799269914627075,-0.023450255393981934,0.04159601032733917,0.018765807151794434,-0.0563337504863739,-0.07930044829845428,-0.04146897420287132,-0.021164968045510307,1.6123240203383362,0.39153364685894954
3.8101489543914795,-0.009207069873809814,0.03530514985322952,0.020622018724679947,-0.046101801097393036,-0.06969109177589417,-0.04978841915726662,-0.021733911353261835,1.6121924459979589,0.392073114503391
3.8195550441741943,0.0022649765014648438,0.032248690724372864,0.019420865923166275,-0.0357210673391819,-0.05919131636619568,-0.05635311082005501,-0.0224864748283541,1.6120972035771928,0.3925133404174487
3.8321189880371094,0.003218710422515869,0.03157797083258629,0.014178041368722916,-0.022810176014900208,-0.03959209471940994,-0.06262512505054474,-0.023386314695065094,1.6121529215550494,0.3928428980674836
3.83964204788208,-0.0012689828872680664,0.02906547300517559,0.011805538088083267,-0.005171529483050108,-0.015045737847685814,-0.0730615183711052,-0.024449534180369107,1.6126043945721211,0.39302921326659523
3.84919810295105,-0.009007036685943604,0.02560611441731453,0.004780169576406479,0.007673845160752535,3.694184124469757e-05,-0.08126597851514816,-0.025620436847906446,1.6133147803789478,0.39306569949397036
3.8596508502960205,-0.00964432954788208,0.017671478912234306,0.0040435828268527985,0.0021176920272409916,0.0006087226793169975,-0.08689723163843155,-0.026826365853293795,1.614084138265096,0.39306521038431247
3.8696858882904053,-0.004378020763397217,0.007645100355148315,0.011432170867919922,-0.007579159922897816,-0.0062582832761108875,-0.09621813148260117,-0.028109940058028565,1.614724038335458,0.3931518749152292
3.8795669078826904,-0.0021250247955322266,-0.0007845964282751083,0.020374536514282227,-0.013334783725440502,-0.017405210062861443,-0.10049384087324142,-0.02950591161918283,1.6150765429037717,0.3933269442469516
3.8894121646881104,-0.0038577914237976074,-0.0018743090331554413,0.021732445806264877,-0.012624085880815983,-0.020820625126361847,-0.10414779931306839,-0.030840373394246272,1.6153535736789604,0.3935128484139131
3.899543046951294,-0.006843924522399902,-0.0026908516883850098,0.017906300723552704,-0.008710570633411407,-0.01892019435763359,-0.10669777542352676,-0.03216110737459107,1.6155502006978963,0.39368200119648294
3.909756898880005,-0.012063920497894287,-0.0032107457518577576,0.009893059730529785,-0.001062039053067565,-0.02606154978275299,-0.10125933587551117,-0.03344463675056849,1.6156003934340468,0.39379497864405905
3.9196231365203857,-0.012331128120422363,-0.005930077284574509,0.0050368234515190125,-0.0008188923820853233,-0.028484493494033813,-0.09825635701417923,-0.03465404131266743,1.6155296996669402,0.3938540019674398
3.929896116256714,-0.01274198293685913,-0.013296160846948624,-0.0007919073104858398,0.002803938928991556,-0.02167399227619171,-0.08861193060874939,-0.03576471873063654,1.6153632878157538,0.3938870437791707
3.9395370483398438,-0.01260751485824585,-0.01298787072300911,-0.014617443084716797,0.002283290959894657,-0.019122682511806488,-0.07478293776512146,-0.03667772826403634,1.6152435887194938,0.3939083221659871
3.9493930339813232,-0.008586347103118896,-0.010465733706951141,-0.021518707275390625,0.01186036691069603,-0.03922595456242561,-0.06376729905605316,-0.03737567303929187,1.6151878606993746,0.3938823584921169
3.9596760272979736,0.000980973243713379,-0.00785757601261139,-0.02386164665222168,0.023815564811229706,-0.05532849207520485,-0.04968796670436859,-0.0378806679431475,1.6151053840646212,0.3937442422318147
3.9692771434783936,0.004131495952606201,-0.004358198493719101,-0.025459885597229004,0.039574187248945236,-0.06465718895196915,-0.041621625423431396,-0.03828783679372519,1.6149186409186271,0.39347650023096126
3.9794440269470215,-0.000630497932434082,-8.76113772392273e-05,-0.027849432080984116,0.06464944779872894,-0.06621593236923218,-0.03203238174319267,-0.038610386254159405,1.6146074523819063,0.3929899875545332
3.9893479347229004,-0.008011400699615479,0.0034439489245414734,-0.032305359840393066,0.09789856523275375,-0.06744760274887085,-0.027658192440867424,-0.038878462250048706,1.6141190822922724,0.39219926814156625
3.999483823776245,-0.012148380279541016,0.00872739776968956,-0.04044747352600098,0.13502861559391022,-0.0703618973493576,-0.02377716638147831,-0.03910360955826315,1.6135173040812825,0.39105079540107135
4.009638071060181,-0.008468389511108398,0.021752510219812393,-0.04884183406829834,0.18100066483020782,-0.08475828170776367,-0.023591650649905205,-0.039277484042148134,1.6126942737836354,0.38949299571138335
4.019510984420776,-0.001182854175567627,0.03267031908035278,-0.05271792411804199,0.23101535439491272,-0.10013377666473389,-0.027484392747282982,-0.03951402914197992,1.6115334311681646,0.38743678846510765
4.0295000076293945,0.007306277751922607,0.040997229516506195,-0.05576241388916969,0.27390632033348083,-0.11339884996414185,-0.03829650580883026,-0.039869649374630216,1.6101665698475849,0.3848960368431468
4.0393760204315186,0.014331221580505371,0.04808150976896286,-0.05895566940307617,0.2863699197769165,-0.14714749157428741,-0.05846595764160156,-0.04039993343973106,1.60858213735006,0.3820793312746025
4.049392938613892,0.024237990379333496,0.045824091881513596,-0.05384993553161621,0.26500415802001953,-0.1943557858467102,-0.09142263233661652,-0.04120844088713131,1.6065416114831468,0.3793297446004551
4.05966591835022,0.03335624933242798,0.030901137739419937,-0.03309464827179909,0.21878476440906525,-0.22115758061408997,-0.12847597897052765,-0.0423537035290854,1.6040796576872398,0.3769217590031239
4.069392919540405,0.03065025806427002,0.015506859868764877,-0.016892675310373306,0.1570993959903717,-0.23746079206466675,-0.16947625577449799,-0.04387916405266729,1.601379961455744,0.3750779985489227
4.079412937164307,0.01823192834854126,0.008582297712564468,-0.010923387482762337,0.09230149537324905,-0.24394026398658752,-0.20616556704044342,-0.04581604383731032,1.5984759760369007,0.3738754364939967
4.089389085769653,0.0054457783699035645,0.002445802092552185,-0.007964018732309341,0.028652597218751907,-0.2400180995464325,-0.24000629782676697,-0.048170957327391996,1.5954388069137564,0.3733031280726566
4.09955906867981,-0.003002166748046875,-0.002092864364385605,-0.012385131791234016,-0.03037237375974655,-0.23402252793312073,-0.2695106565952301,-0.05091245672957104,1.5924429071576205,0.3733462588791484
4.110126972198486,-0.008166193962097168,-0.008999563753604889,-0.01708388328552246,-0.08116687089204788,-0.2194792628288269,-0.2900567352771759,-0.053932317180432836,1.5895719307670337,0.37393441271601285
4.119816064834595,-0.008250415325164795,-0.00907992199063301,-0.022205354645848274,-0.1203124150633812,-0.1974858194589615,-0.2962792217731476,-0.05709982880937426,1.5869099626438516,0.37496476579318133
4.129739046096802,-0.003910958766937256,-0.0026784278452396393,-0.02662801742553711,-0.12181810289621353,-0.2050711214542389,-0.29648473858833313,-0.060041763805295904,1.5849992956143473,0.37624625619135627
4.1394641399383545,0.007259488105773926,-0.0002630650997161865,-0.013032438233494759,-0.10452193766832352,-0.20951034128665924,-0.2911520302295685,-0.06297251173705014,1.5829835625190327,0.37743070656900646
4.149573087692261,0.02026897668838501,0.0007672607898712158,0.008043527603149414,-0.07062990218400955,-0.21232019364833832,-0.2860051989555359,-0.0658391345246739,1.5809329366638825,0.37834566640596107
4.159735918045044,0.02573561668395996,0.009744435548782349,0.01265788171440363,-0.02445388212800026,-0.21205760538578033,-0.2816895544528961,-0.06867868591141894,1.5788332492255772,0.3788494160499313
4.169554948806763,0.023735523223876953,0.0165136456489563,0.015396952629089355,0.025058794766664505,-0.20025621354579926,-0.28167057037353516,-0.07148361866818219,1.5767618074465777,0.37886847096051124
4.179762125015259,0.014122486114501953,0.020365051925182343,0.016170978546142578,0.07357838749885559,-0.17744196951389313,-0.28737929463386536,-0.07433841331478987,1.574823892916711,0.37838281207269125
4.189599990844727,0.007439613342285156,0.01921238750219345,0.012836217880249023,0.11437391489744186,-0.1552427113056183,-0.2913990914821625,-0.07723890585951132,1.5730885520008147,0.37744037357705396
4.199673891067505,0.0033957958221435547,0.019838087260723114,0.008416175842285156,0.16537371277809143,-0.14551417529582977,-0.2954516112804413,-0.08017760344974874,1.5714766992121167,0.3760405420595667
4.210180997848511,0.006371676921844482,0.02017807960510254,0.004688620567321777,0.2241816222667694,-0.12635326385498047,-0.3027651906013489,-0.083174012021878,1.5699501048738123,0.37408683279067306
4.219802141189575,0.006463825702667236,0.022848688066005707,-0.0009486677590757608,0.27337315678596497,-0.11117218434810638,-0.3043971657752991,-0.0862211186788472,1.5685476208896878,0.3715705189909512
