timestamp,accel_x,accel_y,accel_z,rotation_x,rotation_y,rotation_z, pitch,roll,yaw
0.042372941970825195,-0.012635290622711182,0.030041903257369995,-0.029446184635162354,0.01580108143389225,0.02309526316821575,0.004632055759429932,-0.22145870549213376,1.5399446637791179,0.21478198214294697
0.055531978607177734,-0.01502692699432373,0.029750898480415344,-0.030346810817718506,0.0159878171980381,0.020271023735404015,0.003617284819483757,-0.22142852496948562,1.540101718647111,0.2146124659004084
0.06818795204162598,-0.014772653579711914,0.031116873025894165,-0.029341455549001694,0.016424842178821564,0.01338222622871399,0.0009376121452078223,-0.22142035458183892,1.5402130636909683,0.21444355453165395
0.0745699405670166,-0.011155843734741211,0.0302688330411911,-0.027530191466212273,0.017488593235611916,0.009780345484614372,0.0017226587515324354,-0.22142941408647435,1.5402646082101843,0.21427064761934014
0.07604193687438965,-0.009335935115814209,0.0293024480342865,-0.029803156852722168,0.01624489575624466,0.0071688489988446236,-0.00014448334695771337,-0.22145027394849648,1.5402795275879788,0.2140899431427263
0.08397102355957031,-0.011529028415679932,0.02972368896007538,-0.0295181255787611,0.013860335573554039,0.008116579614579678,0.00023128872271627188,-0.2214720386824212,1.5403000350501166,0.21393085046940732
0.09093093872070312,-0.011094093322753906,0.029732495546340942,-0.03175097703933716,0.011241115629673004,0.008141878992319107,-0.001981531735509634,-0.22150996842924633,1.540320597492874,0.21379486149125224
0.10023999214172363,-0.011799931526184082,0.029328301548957825,-0.029103456065058708,0.007071222644299269,0.007441334426403046,-0.0031887427903711796,-0.22156451540786998,1.5403435152783227,0.2136957951262023
0.11027288436889648,-0.011950016021728516,0.028499513864517212,-0.02876978926360607,0.004872516263276339,0.0046071987599134445,-0.005949907936155796,-0.22164768448730193,1.5403607390709546,0.21362552311353977
0.12022089958190918,-0.01041877269744873,0.029079154133796692,-0.026681240648031235,0.005110136698931456,0.0025039231404662132,-0.0072508626617491245,-0.2217416876310264,1.5403620438084302,0.21356019407865723
0.13029003143310547,-0.010425806045532227,0.03036746382713318,-0.027553552761673927,0.006038514431566,-3.460189327597618e-05,-0.008835176937282085,-0.22184445964407581,1.5403326295165132,0.2134907950359742
0.140625,-0.010246753692626953,0.030044570565223694,-0.026290057227015495,0.0079367496073246,-0.003375448752194643,-0.00917371828109026,-0.22195647951766045,1.5402723650569448,0.21341049439213516
0.15046977996826172,-0.010278165340423584,0.029698118567466736,-0.02498435787856579,0.008577506057918072,-0.007501750718802214,-0.008820583112537861,-0.22207700353426607,1.5401686619235153,0.21331793027546928
0.1604769229888916,-0.0103532075881958,0.029177173972129822,-0.02446538209915161,0.008352918550372124,-0.006459344178438187,-0.01249031163752079,-0.22220436491933448,1.5400424311887433,0.21321671642874251
0.17047882080078125,-0.012849748134613037,0.027749627828598022,-0.0241849422454834,0.005470845848321915,-0.00717307161539793,-0.0124599514529109,-0.22235387208807406,1.539925915010129,0.21313136151173198
0.1804499626159668,-0.015693068504333496,0.024790823459625244,-0.022017240524291992,0.0037847980856895447,-0.005116046406328678,-0.0150794368237257,-0.22252452168416906,1.5398297577519668,0.2130706102330027
0.19051790237426758,-0.014207959175109863,0.023692980408668518,-0.020184215158224106,0.0016135228797793388,-0.0039037754759192467,-0.015551082789897919,-0.2240101598837779,1.53845514435112,0.21274235725769558
0.20045995712280273,-0.015661180019378662,0.022745996713638306,-0.018464501947164536,0.002555816201493144,-0.0006121974438428879,-0.01615716516971588,-0.22540419984869642,1.5373060529615552,0.21246908844446166
0.21066808700561523,-0.01551973819732666,0.02090764045715332,-0.017145339399576187,0.005074633285403252,-0.0010406998917460442,-0.017150258645415306,-0.22675823946260118,1.5362073297322725,0.21218977071440284
0.22046995162963867,-0.013784527778625488,0.0194699764251709,-0.014991585165262222,0.004444562830030918,-0.0003844969905912876,-0.015447380021214485,-0.22801461663842323,1.5352388997700028,0.21191747066769656
0.23050498962402344,-0.014148414134979248,0.017121359705924988,-0.012700676918029785,0.0034312300849705935,-0.001273193396627903,-0.01478079054504633,-0.2291726374014491,1.5343805487418019,0.21167315489531843
0.24056005477905273,-0.01018589735031128,0.01451718807220459,-0.010605275630950928,0.0014187293127179146,-0.0035487315617501736,-0.01425673346966505,-0.23023300264538468,1.5335822498366936,0.2114615035685884
0.2507209777832031,-0.010044753551483154,0.013180285692214966,-0.007751107215881348,-0.001905694603919983,-0.0013686679303646088,-0.012204501777887344,-0.2311987810076855,1.5328356566108607,0.2112917256533506
0.2626028060913086,-0.010259270668029785,0.011762604117393494,-0.006683647632598877,-0.004200756549835205,-0.0005243127234280109,-0.013377144932746887,-0.232028268109646,1.5322327114077068,0.21117753803121755
0.2709488868713379,-0.012058019638061523,0.010908558964729309,-0.004153013229370117,-0.004818077199161053,0.0027106287889182568,-0.011179504916071892,-0.2328117910388061,1.531710047737536,0.2110960114712642
0.28126001358032227,-0.010583043098449707,0.010166674852371216,-0.0038282275199890137,-0.0014687865041196346,0.004514831583946943,-0.010651985183358192,-0.23357431578368015,1.531258984031071,0.21100978303542292
0.2908608913421631,-0.010986685752868652,0.010726913809776306,-0.004702631384134293,0.003423706628382206,0.007705830968916416,-0.010219221003353596,-0.23426901964542973,1.5308647333276566,0.2108954154089641
0.30073976516723633,-0.01238250732421875,0.011599943041801453,-0.0031892061233520508,0.0078085679560899734,0.012800635769963264,-0.00963566917926073,-0.23490882314825015,1.5305574175965142,0.2107410150933811
0.3119039535522461,-0.013647079467773438,0.010487079620361328,-0.0029377974569797516,0.011038982309401035,0.01777568832039833,-0.008809823542833328,-0.23547268133657787,1.5303560274536467,0.21056679011477902
0.32058095932006836,-0.01218557357788086,0.009141221642494202,-0.0023875832557678223,0.01748787611722946,0.020438270643353462,-0.003280195640400052,-0.2358995193278808,1.5302567286044857,0.21036571134588916
0.33063697814941406,-0.01409769058227539,0.010595440864562988,-0.0026377439498901367,0.026122378185391426,0.028404850512742996,-0.005331362597644329,-0.23627140153465193,1.530259283944339,0.21009633472043382
0.3405759334564209,-0.018621206283569336,0.012643292546272278,-0.005346894264221191,0.03314032033085823,0.0335562489926815,-0.00010922306682914495,-0.23658205701162266,1.5303433267191577,0.20974729398222833
0.35063886642456055,-0.013904094696044922,0.009597301483154297,-0.008882522583007812,0.03332248330116272,0.03162385895848274,0.0004897218896076083,-0.23687434103055072,1.530477377750815,0.20938214931803625
0.36210203170776367,-0.010966956615447998,0.007506310939788818,-0.007962644100189209,0.03283562511205673,0.0360637903213501,0.003554380964487791,-0.23712605891905175,1.5306275061000636,0.20901224320348213
0.3707149028778076,-0.01599055528640747,0.007506474852561951,-0.007466554641723633,0.031891267746686935,0.036703214049339294,0.0031967186369001865,-0.23739277683894286,1.5307582959152417,0.20864230204596995
0.38068103790283203,-0.014112114906311035,0.008883282542228699,-0.005942586809396744,0.029870295897126198,0.035525742918252945,0.006371313240379095,-0.237687493636196,1.530930222743219,0.20829696481895904
0.39083385467529297,-0.011542558670043945,0.010992541909217834,-0.006775852292776108,0.03619423508644104,0.03509537875652313,0.012019079178571701,-0.23793498524698792,1.531094558123643,0.20796581854197335
0.4008049964904785,-0.013209342956542969,0.011907562613487244,-0.010466039180755615,0.031094150617718697,0.040056224912405014,0.012598741799592972,-0.2380768271702373,1.531263558214988,0.20759738244260692
0.4135150909423828,-0.017969787120819092,0.013133600354194641,-0.010671135038137436,0.04286106303334236,0.04374496638774872,0.02125081978738308,-0.2382440680168782,1.531488866252202,0.20719375933397807
0.420745849609375,-0.017459332942962646,0.015097305178642273,-0.012144748121500015,0.05094107612967491,0.045500747859478,0.02453252673149109,-0.23842165695511716,1.5316061934748688,0.2066803613390702
0.4307727813720703,-0.01587909460067749,0.013737604022026062,-0.010260164737701416,0.05400903895497322,0.05461754649877548,0.029745398089289665,-0.2384076375241647,1.5316925992619217,0.20610105044218796
0.44078683853149414,-0.02074730396270752,0.015985459089279175,-0.014116879552602768,0.06566175818443298,0.06499127298593521,0.04266417771577835,-0.23824561498102484,1.5319103410761992,0.20543842571283863
0.45093584060668945,-0.020632803440093994,0.02059103548526764,-0.016390439122915268,0.08352331817150116,0.07272801548242569,0.04193766787648201,-0.23805987027650552,1.5321635067477994,0.20461583509163836
0.4628279209136963,-0.01778513193130493,0.02953566610813141,-0.01992243155837059,0.0949925035238266,0.07957620173692703,0.03704586625099182,-0.23789980459183696,1.532533847630012,0.20368091990902312
0.47081708908081055,-0.013733386993408203,0.038333356380462646,-0.024210985749959946,0.11411107331514359,0.08410677313804626,0.03234964981675148,-0.23785950114820684,1.5328807571824554,0.20255749970502154
0.4808619022369385,-0.01335209608078003,0.040829166769981384,-0.02352828159928322,0.1309596747159958,0.08918661624193192,0.01361527107656002,-0.23796057080664254,1.5331195158108697,0.20122241545763186
0.49088287353515625,-0.01078486442565918,0.04437609016895294,-0.024726685136556625,0.1344018131494522,0.08690349012613297,-0.003900339361280203,-0.23833030356908544,1.5333131780113936,0.1997698036438741
0.5008950233459473,-0.006547987461090088,0.04646916687488556,-0.023887161165475845,0.13808049261569977,0.08501792699098587,-0.018126945942640305,-0.23890870297420141,1.5334333019952586,0.19827032231326597
0.5123269557952881,-0.003683149814605713,0.048102155327796936,-0.026246964931488037,0.14796960353851318,0.07486382871866226,-0.03186459466814995,-0.23955230652907508,1.5335319631531448,0.19670645385565935
0.5210189819335938,-0.0008254647254943848,0.04990530014038086,-0.02958601713180542,0.15989376604557037,0.06251519918441772,-0.04467610642313957,-0.24038217861130062,1.533380224564326,0.19500762839888777
0.5309500694274902,0.00033539533615112305,0.0487411767244339,-0.03055029734969139,0.16567495465278625,0.052580539137125015,-0.057758085429668427,-0.24142376534418716,1.5330434940379918,0.19319401165031744
0.541193962097168,0.0010210871696472168,0.04558469355106354,-0.03212332725524902,0.17304310202598572,0.04231920465826988,-0.06720831245183945,-0.24274189398192106,1.532529192995017,0.19128938049867797
0.5510659217834473,0.0038675665855407715,0.04325567185878754,-0.034291207790374756,0.18247947096824646,0.02845052257180214,-0.07689236849546432,-0.24430840729655093,1.5317915579519408,0.18927069503214008
0.561830997467041,0.00360184907913208,0.039253100752830505,-0.03461199998855591,0.18386326730251312,0.02179870381951332,-0.08588340878486633,-0.2459806048589213,1.530988377562792,0.1872034940662036
0.5710129737854004,0.00033104419708251953,0.03394371271133423,-0.03376639261841774,0.1799316555261612,0.01576424576342106,-0.09244650602340698,-0.24775812033292594,1.5301290915861525,0.18515225639448224
0.5809650421142578,-0.0011879801750183105,0.029013589024543762,-0.0299762524664402,0.17649510502815247,0.00969570130109787,-0.0963970348238945,-0.24957014573301975,1.5292688946229138,0.1831481278438004
0.5910730361938477,-0.002158045768737793,0.02402295172214508,-0.028627637773752213,0.1762186735868454,0.005322790239006281,-0.10162242501974106,-0.25141397316375136,1.5283287567014447,0.18115003659407522
0.6012139320373535,-0.004198253154754639,0.021244585514068604,-0.02788865938782692,0.17997656762599945,0.0010928469710052013,-0.10225966572761536,-0.25327469634350663,1.527276061905424,0.17910793677643486
0.6124467849731445,-0.004932880401611328,0.01977062225341797,-0.025961939245462418,0.18235237896442413,-0.0021681934595108032,-0.10555426776409149,-0.25508139156915555,1.5261623049040958,0.17703572726015052
0.6213109493255615,-0.003746211528778076,0.016263097524642944,-0.02416462078690529,0.18155457079410553,-0.0015494078397750854,-0.1063380241394043,-0.25679853822682647,1.525008467191544,0.174937211245123
0.6314849853515625,-0.0037012696266174316,0.014398127794265747,-0.024430274963378906,0.1838560700416565,-0.0005403361283242702,-0.10846296697854996,-0.2584430875707634,1.5238100993972834,0.17282243478538695
0.6412439346313477,-0.003216266632080078,0.013164877891540527,-0.021937374025583267,0.18576325476169586,0.0008159670978784561,-0.11159175634384155,-0.26000315282700925,1.522615033849261,0.17067547775862557
0.651298999786377,-0.001217961311340332,0.012659072875976562,-0.021530091762542725,0.186385378241539,0.0036130850203335285,-0.1162421703338623,-0.2615057401315921,1.5214460825359246,0.16851738187020093
0.6657419204711914,-0.001034080982208252,0.012807279825210571,-0.02120894193649292,0.1880541890859604,0.005996925290673971,-0.12185776233673096,-0.26296380901823585,1.5203976192042012,0.16637119731835673
0.6731829643249512,-0.0006943345069885254,0.014792799949645996,-0.02029847726225853,0.19567722082138062,0.003808872075751424,-0.12844961881637573,-0.26436845613007554,1.5193706942756469,0.16417768190670134
0.6822559833526611,-0.0026892423629760742,0.014801204204559326,-0.02079707384109497,0.198923721909523,0.00316509697586298,-0.1382448822259903,-0.26581441730739525,1.5183160110499034,0.16191187614358915
0.6916689872741699,-0.0069803595542907715,0.01352018117904663,-0.020238220691680908,0.19615882635116577,0.006367015652358532,-0.15086746215820312,-0.26734794657229644,1.5173177551710573,0.1596543167749194
0.7014238834381104,-0.011973857879638672,0.011563926935195923,-0.018565714359283447,0.1939411610364914,0.010028773918747902,-0.15793836116790771,-0.2688861464076265,1.516413638568259,0.15743446297129066
0.7130160331726074,-0.01392132043838501,0.009612828493118286,-0.01686234027147293,0.19219893217086792,0.014390498399734497,-0.16637499630451202,-0.2704513649448059,1.5155237461504178,0.15522177878037535
0.7213840484619141,-0.01421421766281128,0.009006977081298828,-0.017556078732013702,0.1940140277147293,0.01619802974164486,-0.1696409434080124,-0.2720463068590138,1.5147132935851668,0.15301773340573915
0.7322828769683838,-0.014584720134735107,0.010794758796691895,-0.020372439175844193,0.19481351971626282,0.01680869422852993,-0.17102259397506714,-0.27362809644575814,1.513919701540408,0.15079691820855867
0.7414917945861816,-0.013185262680053711,0.011292040348052979,-0.0242423377931118,0.19903725385665894,0.01209232397377491,-0.17737449705600739,-0.2752515343654433,1.5131093497652113,0.1485406804513563
0.7516489028930664,-0.012455165386199951,0.014001905918121338,-0.02584630250930786,0.2051103264093399,0.006591830402612686,-0.18342173099517822,-0.2769708341099095,1.5122408823175784,0.14623595964596176
0.7629170417785645,-0.017216384410858154,0.014004409313201904,-0.023523204028606415,0.20516596734523773,0.0018464771565049887,-0.1948157101869583,-0.27877707648900113,1.5112846141287182,0.143873660926032
0.7717380523681641,-0.02278923988342285,0.011233299970626831,-0.023326925933361053,0.20277205109596252,-0.008844250813126564,-0.20772936940193176,-0.2807077079195258,1.5102514303338823,0.1415242039438412
0.7814459800720215,-0.03067868947982788,0.010628879070281982,-0.021409090608358383,0.19387668371200562,-0.019404305145144463,-0.22083701193332672,-0.28273485538439896,1.5091861236305248,0.13924041883229973
0.7913608551025391,-0.03872197866439819,0.008448809385299683,-0.01654171571135521,0.18380728363990784,-0.026117069646716118,-0.23057059943675995,-0.28484680907595106,1.5081128528644765,0.13705815063188345
0.8013379573822021,-0.04399073123931885,0.004537075757980347,-0.01310884952545166,0.17220041155815125,-0.03282703831791878,-0.2376481145620346,-0.2870314428329177,1.5070048140345869,0.1349864389504751
0.8122739791870117,-0.04722332954406738,0.0009212791919708252,-0.01114588975906372,0.16409827768802643,-0.03487527370452881,-0.24134671688079834,-0.28932269775992614,1.5061215427171266,0.1330801923105908
0.8213789463043213,-0.048810362815856934,-0.002444922924041748,-0.009661853313446045,0.15789015591144562,-0.0310569666326046,-0.2354612946510315,-0.2915937997629539,1.5052751897490377,0.13124561048489125
0.8313338756561279,-0.045283734798431396,-0.004759639501571655,-0.00950031727552414,0.16249103844165802,-0.026506688445806503,-0.21999232470989227,-0.29375635594864596,1.504472149155468,0.1294142521773787
0.841317892074585,-0.036827266216278076,-0.004693895578384399,-0.007751457393169403,0.17578820884227753,-0.025255713611841202,-0.19269512593746185,-0.29569687249009974,1.5036717903575723,0.12750213575522112
0.851463794708252,-0.024122416973114014,-0.004204869270324707,-0.0047553107142448425,0.1970713883638382,-0.02333158068358898,-0.15661728382110596,-0.29732350251968676,1.502832930090474,0.12541086786320063
0.8624129295349121,-0.013051271438598633,-0.005741089582443237,-0.0036368966102600098,0.2170344740152359,-0.01920483447611332,-0.11980680376291275,-0.2985634231880688,1.5019541797956035,0.12316332927059997
0.8714580535888672,-0.0038628578186035156,-0.008565962314605713,0.0003466010093688965,0.22591905295848846,-0.01397119089961052,-0.07054844498634338,-0.2993638912833163,1.5010877070822044,0.12077774076689114
0.8813958168029785,0.009016752243041992,-0.012763112783432007,0.007146485149860382,0.22677502036094666,-0.008579886518418789,-0.027522364631295204,-0.299700248288083,1.500269821977015,0.11837491435520228
0.8915200233459473,0.024590671062469482,-0.010297507047653198,0.011443562805652618,0.21612398326396942,-0.006275453604757786,0.012608543038368225,-0.29961104406881156,1.4995094198097523,0.11604740531564617
0.9014739990234375,0.04215306043624878,-0.011760324239730835,0.01651792973279953,0.1890830546617508,-0.00631375890225172,0.03954998403787613,-0.29919375830544553,1.4988373502830172,0.1139482126882295
0.912761926651001,0.056476056575775146,-0.014780431985855103,0.01767628639936447,0.14507564902305603,-0.010647254064679146,0.056427232921123505,-0.2985698999677868,1.4982443016154765,0.11222096776919788
0.9213929176330566,0.05931496620178223,-0.019626885652542114,0.021934032440185547,0.08421793580055237,-0.0039681801572442055,0.059012580662965775,-0.29794116021446937,1.4977777132732393,0.11104789833168283
0.9315838813781738,0.04805958271026611,-0.02431395649909973,0.0278933048248291,0.015172291547060013,0.0051182592287659645,0.05357573553919792,-0.29735335927990203,1.4976381274605828,0.11057337582572792
0.941403865814209,0.03351128101348877,-0.022945910692214966,0.031422436237335205,-0.04588693380355835,0.011415215209126472,0.038301073014736176,-0.2968960904518623,1.4977878277573806,0.1107830209886683
0.9517068862915039,0.02581048011779785,-0.019357115030288696,0.037439823150634766,-0.08273442834615707,0.021430565044283867,0.025948263704776764,-0.29658979255839435,1.4981889038378728,0.11151115698877458
0.9636020660400391,0.01810973882675171,-0.012677758932113647,0.037588417530059814,-0.09005514532327652,0.03016364760696888,0.008138000965118408,-0.29638655480092385,1.4988054532648658,0.11247643580982893
0.971743106842041,0.011086821556091309,-0.005360424518585205,0.03488307446241379,-0.07185296714305878,0.036276135593652725,-0.0017758826725184917,-0.2962820778804506,1.4995323415125328,0.1133833024388091
0.9816718101501465,0.005974829196929932,0.0017545223236083984,0.030849389731884003,-0.032518114894628525,0.04593275487422943,-0.00708654522895813,-0.29610206351147017,1.5003414760751803,0.1140008627518526
0.9918239116668701,-0.0021933913230895996,0.004815489053726196,0.025874614715576172,0.015298942103981972,0.06001901254057884,-0.003609788604080677,-0.29570955538683225,1.5012138558238477,0.11418011446122009
1.0017380714416504,-0.011176705360412598,0.0012256205081939697,0.02141106128692627,0.05757041648030281,0.07703985273838043,0.0048658279702067375,-0.2950120119385211,1.5022440879266574,0.11392567628741648
1.012814998626709,-0.019521772861480713,-0.004888445138931274,0.015678413212299347,0.08718449622392654,0.09522578120231628,0.016687599942088127,-0.2941300575667189,1.5034560974630111,0.11333104986040035
1.0216889381408691,-0.024749338626861572,-0.011499345302581787,0.009371526539325714,0.10692990571260452,0.10656765103340149,0.030782539397478104,-0.29327323876435674,1.5047409103400942,0.11248870189746188
1.031775951385498,-0.027008116245269775,-0.022644788026809692,0.0066831111907958984,0.11097311973571777,0.11214617639780045,0.04425280913710594,-0.29245131234958155,1.5060857039185682,0.11153265404583525
1.0417118072509766,-0.02877938747406006,-0.031795114278793335,0.007057487964630127,0.10116194933652878,0.11436241120100021,0.06162945181131363,-0.2916654393525684,1.507401598946731,0.11059604795540144
1.051919937133789,-0.028439581394195557,-0.03937232494354248,0.008831806480884552,0.08164071291685104,0.10862623155117035,0.0775144100189209,-0.29087813373960614,1.5086568616116733,0.10979729934095944
1.0625319480895996,-0.025310933589935303,-0.047404319047927856,0.007915616035461426,0.05599309131503105,0.09780381619930267,0.09725887328386307,-0.2900561694376012,1.5098375434441722,0.10922650466727618
1.0717859268188477,-0.018667876720428467,-0.05122917890548706,0.0024502351880073547,0.025861021131277084,0.0836656242609024,0.11486503481864929,-0.2891751219860821,1.5109409247265304,0.1089440595330367
1.081885814666748,-0.015972614288330078,-0.05491054058074951,-0.002313673496246338,-0.005939401686191559,0.07553716748952866,0.13546538352966309,-0.28819243657669313,1.512029929665567,0.10899908952040951
1.091897964477539,-0.017491400241851807,-0.0587957501411438,-0.00517880916595459,-0.04945811629295349,0.07072270661592484,0.15674535930156708,-0.28689749019551325,1.5129889842559894,0.10940878917504009
1.1018447875976562,-0.02150040864944458,-0.05995875597000122,-0.006492681801319122,-0.09475474059581757,0.07234540581703186,0.1797000616788864,-0.2853104555409747,1.5139415223309052,0.11025866411128706
1.1133379936218262,-0.023288726806640625,-0.059400707483291626,-0.0065076351165771484,-0.13431254029273987,0.07190518826246262,0.2035025954246521,-0.28337781636622295,1.5149920810910125,0.11155728166266318
1.1218938827514648,-0.019987523555755615,-0.056301891803741455,-0.008594810962677002,-0.16831499338150024,0.07255229353904724,0.23045873641967773,-0.2811522109659472,1.516169993692899,0.1132616378567786
1.1319658756256104,-0.017206668853759766,-0.05012071132659912,-0.01272488385438919,-0.18903544545173645,0.07455259561538696,0.25624880194664,-0.2786423230289519,1.5174597776404477,0.11526089711127153
1.1418070793151855,-0.017109036445617676,-0.04220813512802124,-0.016773290932178497,-0.2020042985677719,0.07519534230232239,0.2816042900085449,-0.275841285695306,1.5187936487289873,0.11744780150237544
1.1521787643432617,-0.017972946166992188,-0.036588072776794434,-0.01705837994813919,-0.2095109522342682,0.07711708545684814,0.30553385615348816,-0.2727769551668001,1.5201185633998686,0.11972263660385137
1.1636528968811035,-0.02033865451812744,-0.030110657215118408,-0.017303772270679474,-0.22162726521492004,0.07714291661977768,0.3268692195415497,-0.26947480958053965,1.5214344198663308,0.12210751274616385
1.1721138954162598,-0.0239141583442688,-0.024381577968597412,-0.018587883561849594,-0.22319826483726501,0.08237869292497635,0.3531186878681183,-0.26593901333772396,1.5227672539134818,0.12455732455415437
1.1838288307189941,-0.024882256984710693,-0.020833492279052734,-0.020493805408477783,-0.23689940571784973,0.08120059967041016,0.3727867603302002,-0.26216874834826076,1.5241116634782232,0.12709334157105573
1.1920337677001953,-0.0222051739692688,-0.015061795711517334,-0.02167695388197899,-0.24158577620983124,0.08606326580047607,0.39941543340682983,-0.2584223094973186,1.525636191786354,0.12976655317454508
1.2019600868225098,-0.018836557865142822,-0.01213178038597107,-0.02643715962767601,-0.2544299066066742,0.0862039253115654,0.42458003759384155,-0.2543994602651328,1.5272140957006226,0.13251034378161808
1.2123479843139648,-0.01321256160736084,-0.0021344125270843506,-0.02863079309463501,-0.2521190941333771,0.092800572514534,0.4446946084499359,-0.25017348447148974,1.5288183930688624,0.1353270455299238
1.2220089435577393,-0.007187902927398682,0.004529193043708801,-0.03269064053893089,-0.2609882354736328,0.08506689220666885,0.4657198190689087,-0.24569216298470437,1.5304100214101783,0.13815071163078813
1.2324159145355225,-0.0068749189376831055,0.010997757315635681,-0.03472626209259033,-0.260905385017395,0.09767722338438034,0.4775570333003998,-0.24110250611187298,1.5320192495786278,0.1410334925866722
1.2420969009399414,-0.012645542621612549,0.015342816710472107,-0.03644341230392456,-0.28604382276535034,0.09698142856359482,0.48211103677749634,-0.23637932726694907,1.5336900416632164,0.14405678184115714
1.2525148391723633,-0.01734745502471924,0.022672832012176514,-0.03493357077240944,-0.3065909147262573,0.1081342101097107,0.49059614539146423,-0.23163610909294327,1.5354740845962531,0.14726723544293752
1.263577938079834,-0.019565939903259277,0.02521178126335144,-0.035064756870269775,-0.3339625895023346,0.11686569452285767,0.4859479069709778,-0.2268509860689019,1.5373718566759424,0.1507378041822603
1.2724690437316895,-0.02177596092224121,0.03344956040382385,-0.035256922245025635,-0.3531525433063507,0.12920118868350983,0.4903106987476349,-0.22207930523910277,1.539436545199042,0.15443472609342068
1.2823500633239746,-0.022183716297149658,0.03953613340854645,-0.03909904137253761,-0.36275729537010193,0.1414446383714676,0.4900827407836914,-0.2172812807716065,1.541624412418476,0.15826250587530885
1.2922110557556152,-0.022863686084747314,0.04782380163669586,-0.04381603002548218,-0.3558165431022644,0.15278038382530212,0.4948037266731262,-0.21245308244070615,1.5439214905015546,0.16209443744334434
1.3021578788757324,-0.02198892831802368,0.0584355890750885,-0.048382580280303955,-0.3422422707080841,0.16180166602134705,0.5000574588775635,-0.2075627082379855,1.5462779651063165,0.1658089441933261
1.3125948905944824,-0.01951313018798828,0.06736570596694946,-0.05255281925201416,-0.32115697860717773,0.1708683967590332,0.5058758854866028,-0.20260277436971869,1.5486607743046839,0.1693170836169959
1.3221240043640137,-0.018500089645385742,0.07472741603851318,-0.05627185106277466,-0.2989480197429657,0.17895907163619995,0.5110164284706116,-0.19758227415478088,1.551060568501861,0.1725888471088405
1.3320908546447754,-0.018076598644256592,0.07962168753147125,-0.058766305446624756,-0.28369638323783875,0.18782579898834229,0.5133126378059387,-0.19251561894294406,1.5534977820785014,0.1756595729937429
1.3421998023986816,-0.017324864864349365,0.08393225073814392,-0.06271630525588989,-0.2789495587348938,0.1989990919828415,0.5159331560134888,-0.18741133636249369,1.5559978974350062,0.17861196172453928
1.3521008491516113,-0.01612412929534912,0.08792950212955475,-0.06570887565612793,-0.27132201194763184,0.21046027541160583,0.5202093720436096,-0.18225820423897338,1.55857443227681,0.18149236093327734
1.3626859188079834,-0.011327981948852539,0.0930098295211792,-0.07062786817550659,-0.25852692127227783,0.21757172048091888,0.5234727263450623,-0.1770637323352061,1.5612115057273748,0.1842489040756026
1.3723359107971191,-0.003130972385406494,0.10010580718517303,-0.07872778177261353,-0.24392826855182648,0.21769794821739197,0.5223872065544128,-0.17184159088189702,1.5638351925319869,0.18683430759054748
1.3821759223937988,0.0076236724853515625,0.1064385324716568,-0.08784657716751099,-0.23651155829429626,0.20989088714122772,0.5159962773323059,-0.16665547267449393,1.566388412380747,0.18929473334897431
1.3921148777008057,0.023475170135498047,0.10726317763328552,-0.0919310450553894,-0.2365826666355133,0.19358408451080322,0.5056679844856262,-0.16155079245419307,1.5687989689710375,0.19171529266791223
1.4021639823913574,0.03836637735366821,0.104638010263443,-0.08561074733734131,-0.26706963777542114,0.17425717413425446,0.4935603141784668,-0.1565443991948404,1.5710217712617927,0.19427953321752192
1.4127388000488281,0.04850614070892334,0.10544310510158539,-0.07874500751495361,-0.29707467555999756,0.1688687950372696,0.49449267983436584,-0.15160672913352805,1.573167960857754,0.19712236179134415
1.4221959114074707,0.06776267290115356,0.10838255286216736,-0.0731121301651001,-0.31504297256469727,0.16101132333278656,0.5008076429367065,-0.14662837028510808,1.5752769674957667,0.20022373242105712
1.4321198463439941,0.10302454233169556,0.11824357509613037,-0.07377469539642334,-0.30683910846710205,0.14160992205142975,0.5099287033081055,-0.1415517835505042,1.5772375912951913,0.2033519030269151
1.4420928955078125,0.12935811281204224,0.1337668001651764,-0.08366775512695312,-0.2874874174594879,0.1304776519536972,0.5205723643302917,-0.13636981158476125,1.5789942540661646,0.2063130418218857
1.452624797821045,0.12787693738937378,0.1435561329126358,-0.09541928768157959,-0.2685707211494446,0.1419217735528946,0.5300474166870117,-0.13109576812409873,1.5807144991636386,0.20906824262460214
1.4621238708496094,0.10798758268356323,0.15052227675914764,-0.10340738296508789,-0.2538882791996002,0.15630888938903809,0.5299324989318848,-0.1257641872522589,1.5825304955228097,0.21164448848241374
1.4720830917358398,0.09020179510116577,0.15914320945739746,-0.10535621643066406,-0.2480892539024353,0.1713927537202835,0.5135980248451233,-0.12052152295544474,1.5844553929625875,0.21410785966506418
1.4821269512176514,0.07755321264266968,0.1687489151954651,-0.10691094398498535,-0.23642338812351227,0.16996297240257263,0.48623260855674744,-0.11548895997048761,1.5864427116954067,0.2164788611912547
1.4922027587890625,0.07682240009307861,0.1731870472431183,-0.10502076148986816,-0.2201962172985077,0.14822730422019958,0.45156678557395935,-0.11077656619671121,1.5882633858762327,0.21870582660867965
1.5022149085998535,0.06917023658752441,0.17676186561584473,-0.09997344017028809,-0.2001453936100006,0.12592710554599762,0.40183311700820923,-0.10650519227413956,1.5898241579842327,0.22075103835729934
1.513679027557373,0.04936707019805908,0.18491262197494507,-0.0974193811416626,-0.1756722778081894,0.11042962968349457,0.34159159660339355,-0.10277432043515003,1.5911610303070014,0.2225843418955073
1.5225191116333008,0.014670193195343018,0.19316989183425903,-0.08882224559783936,-0.12693703174591064,0.09342712163925171,0.28107818961143494,-0.09968922107733001,1.5922832016254764,0.22405128291645804
1.5327568054199219,-0.022614717483520508,0.19333069026470184,-0.08385336399078369,-0.053334448486566544,0.07651925086975098,0.21821773052215576,-0.09724305819797763,1.5931576867799853,0.22491040433134543
1.542597770690918,-0.04476499557495117,0.1981809288263321,-0.08100783824920654,0.02764037996530533,0.0634126365184784,0.16460387408733368,-0.09540554560759198,1.593790117132278,0.2249923435906591
1.5525939464569092,-0.06222951412200928,0.20650731027126312,-0.08626306056976318,0.11736121773719788,0.04935114458203316,0.12220688909292221,-0.09407696919901981,1.594238174054887,0.22422538814459286
1.5650088787078857,-0.06569820642471313,0.21068081259727478,-0.09472441673278809,0.21356819570064545,0.03151537850499153,0.0832410603761673,-0.0931648362301086,1.594412686442906,0.222522741403358
1.5731959342956543,-0.06061059236526489,0.20353105664253235,-0.09277153015136719,0.3068954646587372,0.01592230424284935,0.05864889919757843,-0.09259117715875431,1.5943503818158156,0.21987654565390014
1.5829768180847168,-0.057547688484191895,0.19002747535705566,-0.08913064002990723,0.3647071421146393,-0.008970484137535095,0.028162522241473198,-0.09229956763648701,1.5940185559372908,0.21646609706531325
1.5924921035766602,-0.04914301633834839,0.17264235019683838,-0.08033871650695801,0.3915747106075287,-0.039234913885593414,0.0128855649381876,-0.09225896953514583,1.5933871460188676,0.2126296008453433
1.602510929107666,-0.03244578838348389,0.14633429050445557,-0.06611740589141846,0.36953192949295044,-0.07425348460674286,-0.00478397635743022,-0.09236816307308301,1.5924216224892678,0.20876939768650152
1.6126008033752441,-0.025215864181518555,0.12321261316537857,-0.05442345142364502,0.3296619951725006,-0.09448471665382385,-0.013790786266326904,-0.09261799131301543,1.591190080827188,0.20522876287524974
1.6224849224090576,-0.03414201736450195,0.10178183019161224,-0.04835844039916992,0.27119025588035583,-0.11712118983268738,-0.02417045831680298,-0.09291663187352256,1.5897885326625003,0.2022343484584151
1.6324899196624756,-0.042787015438079834,0.09125514328479767,-0.042999267578125,0.21590809524059296,-0.14908310770988464,-0.031051266938447952,-0.09329788688699141,1.5882070725917479,0.1997937547439782
1.6424179077148438,-0.047837793827056885,0.08280042558908463,-0.0378950834274292,0.17088480293750763,-0.1817358136177063,-0.048450760543346405,-0.09378964652685234,1.586330026859553,0.19783976983671078
1.6523680686950684,-0.061051249504089355,0.07941363006830215,-0.029115911573171616,0.12420997023582458,-0.21132327616214752,-0.0658595860004425,-0.09444807320043154,1.5841949555397614,0.19635900316456792
1.6631040573120117,-0.08033114671707153,0.07787873595952988,-0.01891469955444336,0.07540688663721085,-0.241124227643013,-0.0939457044005394,-0.09531543270533488,1.581796213237594,0.19536262115314912
1.672450065612793,-0.09875541925430298,0.07405127584934235,-0.007616044022142887,0.02969266287982464,-0.2609112560749054,-0.12484157085418701,-0.09646261127551967,1.5791840903387842,0.19485557574247875
1.682446002960205,-0.11575305461883545,0.07371161878108978,0.00011789798736572266,-0.015327743254601955,-0.2729596495628357,-0.15974192321300507,-0.09792308261471575,1.576473687684348,0.19480473523421843
1.6925320625305176,-0.12750399112701416,0.0739915519952774,0.00700223445892334,-0.049832724034786224,-0.2791648209095001,-0.19273236393928528,-0.09972714776226876,1.5737269924819737,0.1951313802428545
1.7024688720703125,-0.1330430507659912,0.07539457827806473,0.011171221733093262,-0.06219371780753136,-0.28073689341545105,-0.22909612953662872,-0.10189038664614349,1.5709634281299276,0.19568189092394947
1.7126898765563965,-0.1301596760749817,0.08092136681079865,0.01734304428100586,-0.05411209166049957,-0.2796385884284973,-0.25684598088264465,-0.1043723787607834,1.5681944983677547,0.19625958929684043
1.7224578857421875,-0.11976361274719238,0.08553999662399292,0.02617257833480835,-0.02792319655418396,-0.27234047651290894,-0.27357718348503113,-0.1070624825048098,1.5654520547296,0.1966644120159308
1.7331328392028809,-0.10013741254806519,0.09020800143480301,0.03383517265319824,0.016095660626888275,-0.26740536093711853,-0.2825741469860077,-0.10988789565332548,1.562745811602898,0.19670442454390996
1.7426247596740723,-0.07139289379119873,0.09574877470731735,0.041398048400878906,0.07789561152458191,-0.26591578125953674,-0.28881874680519104,-0.1127879518738496,1.5599998234016672,0.19621275304377878
1.752856969833374,-0.03753542900085449,0.09595872461795807,0.0506439208984375,0.13372185826301575,-0.2500174939632416,-0.2897982597351074,-0.11569446304730235,1.5572626323886696,0.1951005148334828
1.7630319595336914,-0.002089262008666992,0.09519782662391663,0.061610281467437744,0.17878217995166779,-0.23376840353012085,-0.2942567467689514,-0.11862697124357455,1.5546346796853168,0.19347371863334015
1.7725889682769775,0.045063912868499756,0.09183094650506973,0.07286769151687622,0.20797735452651978,-0.2201274186372757,-0.30265873670578003,-0.1216032822216924,1.55211104251083,0.1914575432752749
1.7826437950134277,0.09658068418502808,0.08321990817785263,0.08448255062103271,0.22372473776340485,-0.2104998677968979,-0.32127776741981506,-0.1247142174386835,1.5496706349852025,0.18921109186081225
1.7925169467926025,0.13748633861541748,0.06848639249801636,0.0937531590461731,0.22792454063892365,-0.19658778607845306,-0.34625130891799927,-0.1280300800661049,1.5473141231093,0.18685121545582015
1.8026118278503418,0.14589756727218628,0.05748815834522247,0.09907668828964233,0.21907947957515717,-0.16948728263378143,-0.3826536536216736,-0.1316583330791082,1.545149239996051,0.18449895072650022
1.8130598068237305,0.12548446655273438,0.05081459879875183,0.09948737174272537,0.22713208198547363,-0.13454048335552216,-0.4195602834224701,-0.13566684148086694,1.5432880314568775,0.182144948978601
1.8226127624511719,0.0891730785369873,0.04340381920337677,0.09755587577819824,0.2606835961341858,-0.09716487675905228,-0.4594998359680176,-0.1400522353820586,1.541754073402234,0.17957215850430122
1.8325378894805908,0.04847162961959839,0.0442693829536438,0.09364467859268188,0.32441195845603943,-0.06073496490716934,-0.49537181854248047,-0.14480424497265207,1.5405051371540743,0.17648885778754594
1.8426079750061035,0.0083274245262146,0.05217914283275604,0.08352923393249512,0.40360820293426514,-0.04190211370587349,-0.5318055152893066,-0.14988903720948787,1.5394003811936527,0.17265105441915982
1.8527519702911377,-0.021336138248443604,0.05230468511581421,0.0759202241897583,0.46540629863739014,-0.027384690940380096,-0.5639600157737732,-0.15528889603422624,1.5383337359671427,0.16807769118251134
1.8628368377685547,-0.04430502653121948,0.03768564760684967,0.06933022290468216,0.4877529740333557,-0.01943737268447876,-0.5884043574333191,-0.16096072911368287,1.5372971988085502,0.16299102429085935
1.8726558685302734,-0.06283175945281982,0.013272807002067566,0.0633080005645752,0.45843371748924255,-0.01625676080584526,-0.6184328198432922,-0.16691402504074518,1.5362991915176567,0.15792302018387921
1.8827168941497803,-0.07588708400726318,-0.011786073446273804,0.05324029549956322,0.3870072364807129,-0.02602851763367653,-0.627659797668457,-0.17306437489619755,1.5352985956923562,0.1534170576324591
1.8929979801177979,-0.07540452480316162,-0.03728890419006348,0.032949209213256836,0.30072668194770813,-0.019611632451415062,-0.6328033804893494,-0.1793003357603405,1.5344181099555825,0.14971324109253767
1.9027669429779053,-0.0776447057723999,-0.05326549708843231,0.009234495460987091,0.2479507476091385,-0.004628599155694246,-0.6125959753990173,-0.18549191933637474,1.5337265784847052,0.14668808266506095
1.9129769802093506,-0.08010876178741455,-0.03813314437866211,-0.013702746480703354,0.251289039850235,0.029201269149780273,-0.5928182601928711,-0.19149246596885913,1.5333608237332568,0.14393331895473802
1.9227619171142578,-0.07358735799789429,-0.02002321183681488,-0.02952873334288597,0.28427642583847046,0.026976820081472397,-0.5355793237686157,-0.19707771992079723,1.533042053948437,0.1410187000254093
1.9326939582824707,-0.06148362159729004,-0.01720575988292694,-0.022449489682912827,0.33486419916152954,0.055180761963129044,-0.4854741096496582,-0.20212725937652753,1.53277046471899,0.13766012772577224
1.942737102508545,-0.05960005521774292,-0.018957436084747314,-0.02016150951385498,0.4194521903991699,0.06634890288114548,-0.41850534081459045,-0.20656528719268957,1.5325803736483783,0.13367905963927046
1.9526948928833008,-0.0514528751373291,-0.007357567548751831,-0.014777779579162598,0.5436840653419495,0.05714874714612961,-0.349653035402298,-0.21024273578770217,1.5321316809118397,0.12860679469913086
1.9631280899047852,-0.030247986316680908,0.014584377408027649,-0.00935649499297142,0.6921413540840149,0.06845936924219131,-0.28231745958328247,-0.2132083273576312,1.5313837624778353,0.12216126950463027
1.9733359813690186,-0.018214821815490723,0.01988154649734497,-0.005806509405374527,0.8484748005867004,0.062255002558231354,-0.20389963686466217,-0.21536094413907647,1.5303546378789283,0.11417100559864127
1.9828779697418213,-0.009856939315795898,0.032159045338630676,0.0024848543107509613,0.9808427095413208,0.05062968656420708,-0.1488172560930252,-0.21677290476538896,1.528866209410719,0.10468698984231191
1.9928998947143555,-0.0012249350547790527,0.03365524113178253,0.013790011405944824,1.0695496797561646,0.06087140366435051,-0.09921614825725555,-0.21761581349577377,1.5271081437367704,0.09409548357326848
2.0030150413513184,0.0007370114326477051,0.018480658531188965,0.01774364709854126,1.1392709016799927,0.09437623620033264,-0.05848241224884987,-0.21795150827031803,1.525413716419937,0.08274584196678929
2.0131430625915527,-0.0024091601371765137,0.013796091079711914,0.01777958869934082,1.2199466228485107,0.12109813094139099,-0.020846618339419365,-0.21782663121709694,1.5238605621717805,0.07063163780779744
2.0228800773620605,-0.0030930638313293457,0.022526904940605164,0.022191107273101807,1.2790383100509644,0.13542650640010834,-0.003133721649646759,-0.21737055777278483,1.5223460082718296,0.05780993776882014
2.032890796661377,-0.0046117305755615234,0.025986120104789734,0.030501842498779297,1.308811068534851,0.1572769433259964,0.008165271021425724,-0.21673457412572394,1.5209347714924135,0.04453877395220887
2.043052911758423,-0.008955001831054688,0.018696054816246033,0.03913241624832153,1.3168023824691772,0.1785067319869995,0.01621670089662075,-0.2159809459167569,1.5197133184032299,0.031085545848743824
2.053267002105713,-0.015632987022399902,0.014919877052307129,0.04509115219116211,1.313761830329895,0.19287368655204773,0.012957523576915264,-0.2151917295196551,1.518681974122798,0.01762231360686187
2.063107967376709,-0.02081531286239624,0.01579532027244568,0.0502476692199707,1.292715311050415,0.2036086618900299,0.007234976626932621,-0.21443625764377233,1.5178158413907765,0.00427701684708157
2.073164939880371,-0.02435767650604248,0.015436127781867981,0.05267906188964844,1.2643353939056396,0.20996376872062683,0.003377920016646385,-0.2137419939829262,1.517083529083797,-0.008798424760670658
2.082982063293457,-0.029282748699188232,0.012989670038223267,0.05217445269227028,1.2290877103805542,0.2137528359889984,-0.0025281724520027637,-0.21310702601735934,1.5164979104513847,-0.021552994193056226
2.09305477142334,-0.033667922019958496,0.012264251708984375,0.05042791739106178,1.207948923110962,0.2168053388595581,-0.005146592389792204,-0.21252224968064765,1.5160117317819477,-0.03401774865657401
2.1029698848724365,-0.03733992576599121,0.01538054645061493,0.048399925231933594,1.1958646774291992,0.21356627345085144,-0.0021056351251900196,-0.21192554749992393,1.515564020340054,-0.04630387799497876
2.1131019592285156,-0.04109477996826172,0.023410439491271973,0.04291510581970215,1.192589521408081,0.21354976296424866,0.0032577048987150192,-0.21129742190160886,1.5151253043376314,-0.058514027599543744
2.1229920387268066,-0.04451429843902588,0.03132088482379913,0.037928879261016846,1.1965199708938599,0.21154272556304932,0.012294609099626541,-0.21058867303836315,1.5146770235348366,-0.07071832650980149
2.1330270767211914,-0.04734224081039429,0.034810036420822144,0.03608667850494385,1.2029216289520264,0.20990566909313202,0.019585544243454933,-0.20978258037357556,1.5142137555633775,-0.08297032703706753
2.1429810523986816,-0.050527215003967285,0.03701655566692352,0.03560757637023926,1.2122243642807007,0.21237358450889587,0.03403489664196968,-0.2088683592319292,1.5137466465900506,-0.09531094532780693
2.153021812438965,-0.052809059619903564,0.03837962448596954,0.0355750247836113,1.2092711925506592,0.21229687333106995,0.04232505336403847,-0.20781831144343027,1.513292783238339,-0.10765007853893267
2.1631579399108887,-0.05327075719833374,0.03892254829406738,0.036768317222595215,1.2051862478256226,0.22100062668323517,0.059626705944538116,-0.20665537908935627,1.5129133130123493,-0.11994891136109664
2.1731038093566895,-0.051540911197662354,0.035531654953956604,0.038798630237579346,1.1770520210266113,0.22204191982746124,0.07032835483551025,-0.20533389671553448,1.5126317456901512,-0.13207171238365462
2.183126926422119,-0.04640382528305054,0.036933496594429016,0.04268360137939453,1.1595557928085327,0.23700395226478577,0.085453562438488,-0.2039177708176668,1.5124988935748729,-0.14395307598182708
2.1930489540100098,-0.040277719497680664,0.034706562757492065,0.040356580168008804,1.1234474182128906,0.2432916760444641,0.09157484024763107,-0.20237453694168359,1.512540943165226,-0.15552501512534772
2.20320987701416,-0.038990139961242676,0.04158248007297516,0.03979229927062988,1.1058825254440308,0.2605573832988739,0.1024368554353714,-0.20079190706560307,1.5127778310707367,-0.16683825147788658
2.213270902633667,-0.04018372297286987,0.04539059102535248,0.03827524930238724,1.076112151145935,0.27372458577156067,0.10606035590171814,-0.19913273110897164,1.5132249386540038,-0.17791325786651407
2.223381996154785,-0.03862190246582031,0.05202843248844147,0.03835576772689819,1.0446476936340332,0.2921089828014374,0.1062551885843277,-0.19749826674982307,1.5139254054554503,-0.18867057283107802
2.2332448959350586,-0.03146541118621826,0.05555097758769989,0.036236703395843506,1.0229411125183105,0.30261409282684326,0.10375741124153137,-0.19588244478932132,1.5148454719242959,-0.19916482465113736
2.2432119846343994,-0.01997274160385132,0.06393402814865112,0.0330970324575901,1.0086302757263184,0.301232248544693,0.09462836384773254,-0.19436759503244772,1.515855338321214,-0.20945190720226067
2.2533349990844727,-0.011437714099884033,0.07099810242652893,0.030839860439300537,1.0015193223953247,0.30142292380332947,0.0866607204079628,-0.19293783491723301,1.5168972453814873,-0.21964407248513557
2.263335943222046,-0.00870591402053833,0.0738024115562439,0.0299108624458313,0.9962893724441528,0.3027665615081787,0.07403845340013504,-0.19163538897954938,1.5179675667641157,-0.22977101780991468
2.2733259201049805,-0.006943821907043457,0.07752136886119843,0.027575138956308365,1.000835657119751,0.305398553609848,0.06577226519584656,-0.19044294076542703,1.5190702108899437,-0.2399207642005364
2.283212900161743,-0.003939628601074219,0.08113358914852142,0.02514546364545822,0.9993998408317566,0.30888038873672485,0.0551791712641716,-0.18935951375125074,1.5202046036310624,-0.2500560915371463
2.2932748794555664,0.00656205415725708,0.08447803556919098,0.02354312688112259,1.0074498653411865,0.32255038619041443,0.061530012637376785,-0.1883158100171071,1.5214280479677964,-0.26023139487753566
2.303184986114502,0.036912620067596436,0.08184149861335754,0.021735966205596924,1.0062037706375122,0.31834450364112854,0.07186238467693329,-0.18717870672747722,1.5227204026497383,-0.2704268082055783
2.3132448196411133,0.08718979358673096,0.08509442210197449,0.01764947548508644,1.0239100456237793,0.30460473895072937,0.09190666675567627,-0.1859180603696755,1.5239414051518674,-0.2807605355667926
2.323164939880371,0.13652706146240234,0.08843952417373657,0.004795674234628677,1.04520845413208,0.27878618240356445,0.09716800600290298,-0.1845329160488812,1.5249229609772028,-0.2912574369024165
2.3332369327545166,0.15720248222351074,0.08904501795768738,-0.008584138005971909,1.0592100620269775,0.25005868077278137,0.09762047231197357,-0.18310999143955833,1.5256009080851005,-0.3019326194057519
2.3432109355926514,0.1453087329864502,0.08657202124595642,-0.017368674278259277,1.0433993339538574,0.23885902762413025,0.0676327496767044,-0.18183874986672505,1.526072839817936,-0.31261772426704054
2.3532309532165527,0.11812150478363037,0.08462126553058624,-0.020710285753011703,0.9998835921287537,0.22530433535575867,0.03464124724268913,-0.1809520655314569,1.5265147531567302,-0.32298981340160865
2.3632798194885254,0.0968085527420044,0.08094754815101624,-0.013654526323080063,0.9400905966758728,0.18007400631904602,-0.027993638068437576,-0.18051404315993416,1.5267293988147481,-0.33288106241334586
2.3736989498138428,0.08553320169448853,0.07094515860080719,-0.006681501865386963,0.8619416356086731,0.13477088510990143,-0.1012769564986229,-0.1808322900340437,1.5266184099917453,-0.3420788806682369
2.383358955383301,0.06971549987792969,0.059209927916526794,-0.0011897049844264984,0.7764605283737183,0.08139323443174362,-0.1669226586818695,-0.1818573924340995,1.5261766215485602,-0.3504857540869018
2.3934550285339355,0.05315601825714111,0.05317087471485138,0.005524042993783951,0.6853511333465576,0.02199595421552658,-0.2410496175289154,-0.1836383858140663,1.525292060125628,-0.3580379534532639
2.4033870697021484,0.037730276584625244,0.04175744950771332,0.010205037891864777,0.5906981229782104,-0.0254301056265831,-0.30569422245025635,-0.18615300645381497,1.5240150851057632,-0.3646677031161278
2.4134109020233154,0.027248144149780273,0.03347556293010712,0.006954014301300049,0.5098434686660767,-0.07733964174985886,-0.3695075511932373,-0.189348861662075,1.5223855204202312,-0.3704263271991509
2.423383951187134,0.022939860820770264,0.030643180012702942,0.002909962087869644,0.4459957778453827,-0.13327334821224213,-0.42021989822387695,-0.19313528320522488,1.520326771533514,-0.3754902212413493
2.433436870574951,0.02410435676574707,0.02943412959575653,0.0028858818113803864,0.3908297121524811,-0.18623723089694977,-0.46694880723953247,-0.19746310879898957,1.5178150367330723,-0.3799914495018671
2.4434170722961426,0.028235554695129395,0.02233685553073883,0.008538298308849335,0.3431280255317688,-0.23235274851322174,-0.5034216642379761,-0.20219799804118824,1.5148870685365439,-0.38400733413787036
2.4537549018859863,0.0315479040145874,0.011962637305259705,0.015842966735363007,0.30255448818206787,-0.27678972482681274,-0.5346275568008423,-0.20729225931336392,1.511552299870999,-0.38761562754179757
2.4636049270629883,0.030678629875183105,0.005977705121040344,0.02515893429517746,0.26695317029953003,-0.3097555637359619,-0.5642074942588806,-0.21269396367679627,1.5078785158445251,-0.39087501444982403
2.473803997039795,0.02193683385848999,-0.0013062357902526855,0.03184174746274948,0.22408507764339447,-0.3279809057712555,-0.5940932631492615,-0.2184166152542501,1.5040096272145145,-0.3937764313647702
2.483520030975342,0.0048926472663879395,-0.011404648423194885,0.034617066383361816,0.19246920943260193,-0.3384946882724762,-0.622479259967804,-0.22445091842668927,1.5000611286903895,-0.3963292616772693
2.493642807006836,-0.015846610069274902,-0.018081068992614746,0.03686845302581787,0.17890094220638275,-0.3461765646934509,-0.6512635350227356,-0.23077158248927138,1.496051204275223,-0.3986964057533083
2.5035018920898438,-0.037467002868652344,-0.023356392979621887,0.04205644875764847,0.1819944530725479,-0.3523158133029938,-0.6799765229225159,-0.23737128866526566,1.4919496191305595,-0.40108243292860957
2.5135397911071777,-0.05813109874725342,-0.025925293564796448,0.04814332723617554,0.19538907706737518,-0.35305485129356384,-0.6987797617912292,-0.24419592514660893,1.4877796362143638,-0.40360182883923607
2.5234949588775635,-0.06895405054092407,-0.03221443295478821,0.05412214994430542,0.2164546698331833,-0.35812392830848694,-0.7037799954414368,-0.2511079496919611,1.4835103096678421,-0.406329528983508
2.5336050987243652,-0.06281685829162598,-0.04319453239440918,0.06628066301345825,0.24720220267772675,-0.36912626028060913,-0.6913787126541138,-0.2579285299619491,1.479079798181545,-0.40936147967827496
2.5435500144958496,-0.040934205055236816,-0.050293028354644775,0.07672107219696045,0.2935245633125305,-0.37483081221580505,-0.6572854518890381,-0.2644865623295525,1.4744370280590213,-0.4128237785787466
2.5536038875579834,-0.010004758834838867,-0.058140695095062256,0.08410292863845825,0.34008753299713135,-0.3877798914909363,-0.609031617641449,-0.2705510305662099,1.4695537534971441,-0.4167531632146575
2.563662052154541,0.03749114274978638,-0.06713172793388367,0.09362983703613281,0.37407130002975464,-0.41272056102752686,-0.5445578694343567,-0.27599023477387946,1.4643544491122995,-0.42109117834760174
2.573654890060425,0.09623891115188599,-0.08092394471168518,0.10365290194749832,0.37904712557792664,-0.44414639472961426,-0.47929897904396057,-0.28073345841012504,1.4587958045087712,-0.42559711919508714
2.58364200592041,0.1463138461112976,-0.0983934998512268,0.11531264334917068,0.35487687587738037,-0.46446943283081055,-0.41051191091537476,-0.2847994017816355,1.452994965733518,-0.42995286931023036
2.593830108642578,0.17317473888397217,-0.11406925320625305,0.1275157928466797,0.3046344816684723,-0.47114038467407227,-0.350456565618515,-0.28824058632025096,1.447171563529673,-0.43387750084551685
2.603740930557251,0.1870424747467041,-0.12610787153244019,0.13746529817581177,0.22959715127944946,-0.47847485542297363,-0.30048492550849915,-0.29118562829099903,1.4414734733299834,-0.4370930737507633
2.613697052001953,0.19610077142715454,-0.13597872853279114,0.15273910760879517,0.12778235971927643,-0.4846576452255249,-0.27190813422203064,-0.29386121739950344,1.4359652431027528,-0.4393598269443357
2.623760938644409,0.19225198030471802,-0.14786121249198914,0.16730846464633942,0.012513607740402222,-0.483052521944046,-0.25691595673561096,-0.29645647796520574,1.4307552491217501,-0.4404835283102555
2.633699893951416,0.17492401599884033,-0.1517273187637329,0.18070530891418457,-0.10327105224132538,-0.47930359840393066,-0.25675830245018005,-0.29915988374305136,1.425928185067234,-0.44039979804674784
2.6436967849731445,0.1514018177986145,-0.15245571732521057,0.1943863183259964,-0.2029518038034439,-0.4701559841632843,-0.26328304409980774,-0.30206311762880744,1.4214894077214288,-0.43920694262511883
2.653754949569702,0.12523454427719116,-0.1482798159122467,0.20124955475330353,-0.2695079445838928,-0.45595067739486694,-0.27545076608657837,-0.3052024641753195,1.4174284148084417,-0.4371667395685989
2.663705825805664,0.09376776218414307,-0.13893374800682068,0.20021319389343262,-0.299115389585495,-0.438976913690567,-0.2897106111049652,-0.3085558120792071,1.413680243817903,-0.43466164654282763
2.6738529205322266,0.06404668092727661,-0.12794733047485352,0.19562697410583496,-0.2938298285007477,-0.42247462272644043,-0.30230948328971863,-0.3120649929460863,1.4101497681302573,-0.4320669786167548
2.683696985244751,0.04130631685256958,-0.11883288621902466,0.18966253101825714,-0.26535937190055847,-0.406418114900589,-0.30894461274147034,-0.31563724221736,1.406739292128132,-0.42966971011239735
2.69504976272583,0.024434268474578857,-0.11283254623413086,0.18294478952884674,-0.22318926453590393,-0.39007776975631714,-0.3137846291065216,-0.3191989707740232,1.4033885293875221,-0.42766173139540414
2.703770875930786,0.009097456932067871,-0.11212733387947083,0.17909981310367584,-0.1880224645137787,-0.3765376806259155,-0.3099016547203064,-0.3226848169121524,1.4000584336796622,-0.42608415959610246
2.713763952255249,-0.0014091134071350098,-0.1162647008895874,0.17816662788391113,-0.16532355546951294,-0.3648219108581543,-0.2994934916496277,-0.3260517605083951,1.3967592213395772,-0.4248206923685949
2.7240090370178223,-0.008335292339324951,-0.12579092383384705,0.18031185865402222,-0.161783829331398,-0.35662105679512024,-0.2864825129508972,-0.32928001716707367,1.3935267278931083,-0.42367422084032796
2.7338809967041016,-0.011005163192749023,-0.13799813389778137,0.18548332154750824,-0.17768636345863342,-0.3572178781032562,-0.2658243477344513,-0.33234559778740436,1.3903702086452536,-0.42243774840183385
2.745173931121826,-0.01019585132598877,-0.15052449703216553,0.18627065420150757,-0.213347390294075,-0.35978472232818604,-0.2381698340177536,-0.335219127027035,1.3873033143006537,-0.4208868166669511
2.7539401054382324,-0.007651865482330322,-0.1600966453552246,0.18712449073791504,-0.26452645659446716,-0.36345934867858887,-0.20651310682296753,-0.33787546877570906,1.3843836435856167,-0.41882987034836067
2.7639360427856445,-0.005199551582336426,-0.16768157482147217,0.19086283445358276,-0.32558679580688477,-0.37091726064682007,-0.17058323323726654,-0.3403038737114287,1.3816352214654075,-0.4161249071968459
2.773923873901367,0.0031096339225769043,-0.17332741618156433,0.19066192209720612,-0.3939051330089569,-0.3846093714237213,-0.1319844275712967,-0.34249005949095396,1.379031009625949,-0.4126742685253526
2.7838797569274902,0.01351463794708252,-0.1803964078426361,0.19006003439426422,-0.47548484802246094,-0.3956587612628937,-0.09217875450849533,-0.3444391280521505,1.3766069628236828,-0.40835875820189416
2.7951738834381104,0.020246028900146484,-0.18646690249443054,0.19271869957447052,-0.5717242956161499,-0.4097681939601898,-0.05204145237803459,-0.3461715473936112,1.3743969578604658,-0.40304451715087475
2.8039169311523438,0.0250474214553833,-0.19253385066986084,0.19471879303455353,-0.6769376993179321,-0.4257477819919586,-0.014627392403781414,-0.3477228102294807,1.372430294621557,-0.39659213017876993
2.814018964767456,0.02774125337600708,-0.19908437132835388,0.19793701171875,-0.7885870337486267,-0.442715585231781,0.02382785454392433,-0.3491237682912017,1.3707225010536153,-0.3889278787497442
2.823931932449341,0.032340049743652344,-0.20181402564048767,0.2059253454208374,-0.9036073684692383,-0.45945125818252563,0.06208299100399017,-0.3503888817439813,1.3692938944565831,-0.3799848341661038
2.834293842315674,0.03302532434463501,-0.2023209035396576,0.20999446511268616,-1.0126490592956543,-0.47347068786621094,0.1005353108048439,-0.35151357951159623,1.3681533819068799,-0.3697888413303913
2.8452658653259277,0.03243511915206909,-0.2020939588546753,0.21181750297546387,-1.1107659339904785,-0.4870244562625885,0.13735510408878326,-0.3524910143162182,1.3672915283017737,-0.35842558652034034
2.854189872741699,0.03329277038574219,-0.19772765040397644,0.2125968337059021,-1.1953225135803223,-0.4941513240337372,0.1767912060022354,-0.3532853361324668,1.3666819337987057,-0.34602939546794065
2.8639719486236572,0.03503984212875366,-0.1907118260860443,0.2114914357662201,-1.2669155597686768,-0.5017868280410767,0.21405665576457977,-0.3538743549796313,1.3663286417617202,-0.33271947940557023
2.8742189407348633,0.03659403324127197,-0.18271362781524658,0.21115225553512573,-1.3270515203475952,-0.5096293091773987,0.25168150663375854,-0.35422945987094834,1.366172305404411,-0.31864027081004903
2.8840460777282715,0.040236592292785645,-0.1763307750225067,0.2127687931060791,-1.377484917640686,-0.521882951259613,0.28628578782081604,-0.3543383385806694,1.3661483096863958,-0.30391107828284847
2.8954739570617676,0.04347825050354004,-0.17390850186347961,0.21507230401039124,-1.4282431602478027,-0.5242334604263306,0.3230467438697815,-0.35419599553291437,1.3662595480588002,-0.2885696998567921
2.904054880142212,0.04348725080490112,-0.1712368130683899,0.2171473503112793,-1.48031485080719,-0.5274806618690491,0.355155885219574,-0.3538041428314566,1.3665555069144202,-0.2726211740627065
2.914310932159424,0.04379689693450928,-0.167234867811203,0.21624141931533813,-1.5253400802612305,-0.5310200452804565,0.3822239935398102,-0.35321419649236324,1.367005375419306,-0.2560957724570471
2.9241368770599365,0.042995333671569824,-0.16447687149047852,0.21382075548171997,-1.5695679187774658,-0.5372174382209778,0.40724799036979675,-0.352470311157632,1.367570617444661,-0.23905227355412498
2.9343080520629883,0.04260683059692383,-0.16122505068778992,0.21266308426856995,-1.6119873523712158,-0.5473694205284119,0.42324933409690857,-0.3515906982369643,1.3682157222112041,-0.22152004086869329
2.9452409744262695,0.04136103391647339,-0.15958240628242493,0.21684610843658447,-1.6552212238311768,-0.5536947250366211,0.4428384304046631,-0.3506050651545342,1.3689344660613252,-0.20351099638682688
2.9543139934539795,0.041979968547821045,-0.15650486946105957,0.21986430883407593,-1.6966445446014404,-0.5693320035934448,0.46309176087379456,-0.3495055339728111,1.369682891964355,-0.18501879872833726
2.964107036590576,0.045843660831451416,-0.151927649974823,0.22135551273822784,-1.7336945533752441,-0.588956356048584,0.4825386703014374,-0.34827192512199756,1.3703918274366274,-0.16608794823066023
2.9742960929870605,0.0482487678527832,-0.14901426434516907,0.22024722397327423,-1.7688677310943604,-0.6047718524932861,0.5073627829551697,-0.34687729384662375,1.3710346429649711,-0.14674523660989855
2.984179973602295,0.04148542881011963,-0.144839346408844,0.2185334712266922,-1.8091974258422852,-0.6140218377113342,0.5354779958724976,-0.3452940640146335,1.371668209927803,-0.12697451064876622
2.9952120780944824,0.03301769495010376,-0.14089947938919067,0.2162720412015915,-1.8584682941436768,-0.6216035485267639,0.5694077610969543,-0.3434752732768152,1.372365314792565,-0.10668869783942424
3.004173755645752,0.03862559795379639,-0.13901332020759583,0.22067470848560333,-1.918847918510437,-0.631065845489502,0.6078474521636963,-0.3413917541177604,1.3731498796887678,-0.08577055424736052
3.0142769813537598,0.051967084407806396,-0.1378306746482849,0.22694770991802216,-1.9902938604354858,-0.6422580480575562,0.6526170372962952,-0.33902041744544076,1.3740421327708545,-0.06409568835316957
3.0242180824279785,0.06964629888534546,-0.13659411668777466,0.235916867852211,-2.0756120681762695,-0.6440275311470032,0.7009010910987854,-0.33631896571960695,1.3751077367734403,-0.04153113372361725
3.0343050956726074,0.08854806423187256,-0.13598063588142395,0.24821695685386658,-2.1709742546081543,-0.6395984292030334,0.7574783563613892,-0.3332460577347711,1.3764700331271391,-0.017934071391700973
3.0460000038146973,0.11601293087005615,-0.1337442398071289,0.259651243686676,-2.274087905883789,-0.6300647854804993,0.8228180408477783,-0.329735166191328,1.3781973794649318,0.006787240799645201
3.0543599128723145,0.15323835611343384,-0.128960520029068,0.27060723304748535,-2.367091417312622,-0.6245062351226807,0.8851799964904785,-0.32573009529304436,1.380267096774849,0.03261701649983585
3.064225912094116,0.19231361150741577,-0.11803686618804932,0.2827986478805542,-2.4429399967193604,-0.6167873740196228,0.9427021145820618,-0.32124175981618824,1.3826042011595472,0.05939490982923749
3.0742697715759277,0.21081900596618652,-0.10315561294555664,0.29013895988464355,-2.5034472942352295,-0.5838398337364197,0.9895186424255371,-0.31630464101673006,1.3852498277844083,0.08692888628177269
3.0842580795288086,0.195928156375885,-0.08906766772270203,0.2925213575363159,-2.552485227584839,-0.5451004505157471,1.0119861364364624,-0.311022688762563,1.3883078388432402,0.11503943685490418
3.0954318046569824,0.15707457065582275,-0.07424905896186829,0.29187196493148804,-2.5875351428985596,-0.49914994835853577,1.0239017009735107,-0.30557555173888895,1.391759614978345,0.14355829030997652
3.104341983795166,0.11553609371185303,-0.0610140860080719,0.27904582023620605,-2.5977540016174316,-0.44013044238090515,1.0130850076675415,-0.3000544473430698,1.395666686070664,0.1722508741342437
3.1142830848693848,0.07635712623596191,-0.038726985454559326,0.27030378580093384,-2.574558734893799,-0.37892356514930725,0.9984495043754578,-0.29453892992625874,1.39996222692176,0.20080128866250907
3.1243300437927246,0.041934430599212646,-0.019836783409118652,0.2598809003829956,-2.525385856628418,-0.32774555683135986,0.9825379848480225,-0.2889787843536047,1.4045786664335598,0.22885520883050614
3.1342320442199707,0.018945038318634033,-0.005653291940689087,0.24978724122047424,-2.4297196865081787,-0.2910708785057068,0.9706613421440125,-0.2833397159401149,1.409230039009324,0.2560349149836536
3.1453490257263184,0.004292488098144531,0.017007380723953247,0.23735588788986206,-2.3165457248687744,-0.26495206356048584,0.952166736125946,-0.2775583527394124,1.4137065789396843,0.2821090092044292
3.154275894165039,-0.006928622722625732,0.0297374427318573,0.2210405468940735,-2.172935724258423,-0.25299179553985596,0.9728235602378845,-0.27146663435764373,1.4178613724444233,0.3067624412678914
3.1644067764282227,-0.0059310197830200195,0.04277500510215759,0.1923452615737915,-2.011775493621826,-0.24270805716514587,0.9517734050750732,-0.26503499109584483,1.4214533673725995,0.32975659732540347
3.1743040084838867,-0.0017536282539367676,0.06383591890335083,0.14871495962142944,-1.8952211141586304,-0.23017734289169312,0.9347872138023376,-0.25849112942622005,1.4247224026894518,0.35120801647942845
3.184443950653076,0.004282116889953613,0.059634625911712646,0.12201236188411713,-1.8450253009796143,-0.2237093299627304,0.9066173434257507,-0.25199930279024896,1.4276938502987229,0.37172535229635917
3.1951918601989746,0.010768890380859375,0.034222230315208435,0.10531741380691528,-1.8308732509613037,-0.20144610106945038,0.8809117078781128,-0.24566129148587298,1.430549480480677,0.3918056934425565
3.2044239044189453,0.018080055713653564,0.022420406341552734,0.0924454927444458,-1.8633456230163574,-0.2213136851787567,0.8136371970176697,-0.23974202658912408,1.4333347249527353,0.4118969198759052
3.2145791053771973,0.022429347038269043,0.01982356607913971,0.1000424474477768,-1.9408137798309326,-0.2460416555404663,0.7519120573997498,-0.2344861237292676,1.4358557804713616,0.4323683851028114
3.224729061126709,0.028937160968780518,-0.007118821144104004,0.10950368642807007,-2.09677791595459,-0.2860868573188782,0.6565026044845581,-0.23010664928222516,1.4382094241475365,0.45389434187796557
3.2345869541168213,0.032654404640197754,-0.025966838002204895,0.12456709146499634,-2.30999755859375,-0.31857234239578247,0.5591414570808411,-0.2268986114852401,1.4405014581029714,0.4771559589677041
3.2454419136047363,0.02634298801422119,-0.039544254541397095,0.13849151134490967,-2.5102806091308594,-0.3375561237335205,0.47952964901924133,-0.22479764036449681,1.442939419740182,0.5024505407301401
3.2547569274902344,0.02292191982269287,-0.0469481498003006,0.14477072656154633,-2.6370930671691895,-0.3755032420158386,0.4157903492450714,-0.22351783366754005,1.4453822302736294,0.5292991520427405
3.2646260261535645,0.02110821008682251,-0.028785571455955505,0.14179456233978271,-2.7315430641174316,-0.4013613164424896,0.34994640946388245,-0.22299671702551804,1.4476999756283166,0.5571549693052502
3.274502992630005,0.014285743236541748,-0.002751648426055908,0.1306391954421997,-2.8104591369628906,-0.4221230447292328,0.31294339895248413,-0.2230255009690585,1.449954559327959,0.5858367099560966
3.2846550941467285,0.00868922472000122,-0.004960566759109497,0.11822234094142914,-2.855971574783325,-0.4293908476829529,0.29053494334220886,-0.22333478011853392,1.4522115552504162,0.6151164619969764
3.295422077178955,0.0035967230796813965,-0.003929033875465393,0.10728025436401367,-2.8640403747558594,-0.41846126317977905,0.2814634442329407,-0.22379474385034986,1.4545328733261846,0.6446596395009596
3.3046560287475586,-0.010908067226409912,0.008512184023857117,0.09787893295288086,-2.833216428756714,-0.42797526717185974,0.2809310555458069,-0.22418057332472624,1.4568719854083947,0.6740666005501632
3.314595937728882,-0.025973737239837646,0.01438295841217041,0.08609916269779205,-2.818289041519165,-0.4189876317977905,0.2867452800273895,-0.22446623016408884,1.4591642058386087,0.7032393960843436
3.32460880279541,-0.03945261240005493,0.011364325881004333,0.08539235591888428,-2.8045520782470703,-0.40344947576522827,0.31299591064453125,-0.22451050377722442,1.461577519594698,0.7322814544824886
3.3345329761505127,-0.05303609371185303,0.009480476379394531,0.0908164530992508,-2.772099256515503,-0.38285472989082336,0.3367137610912323,-0.22423596741921878,1.4640799548257375,0.7611542818989406
3.3457109928131104,-0.06770932674407959,0.013041868805885315,0.09730953723192215,-2.7115719318389893,-0.3722434639930725,0.38451316952705383,-0.22344725265247714,1.466639864333369,0.7895539857129984
3.35469388961792,-0.07779175043106079,0.02817361056804657,0.10374093055725098,-2.6518003940582275,-0.35600295662879944,0.428918719291687,-0.2220599250807185,1.4691970007936344,0.8173796060203656
3.3646397590637207,-0.08236956596374512,0.039692118763923645,0.09239251911640167,-2.6016085147857666,-0.31706732511520386,0.48374590277671814,-0.2200912395025992,1.4718307925514487,0.8446803392486532
3.374690055847168,-0.0805044174194336,0.04269564151763916,0.07235735654830933,-2.5224602222442627,-0.2917121648788452,0.5453898310661316,-0.2173739767876617,1.4746073988678252,0.8713861724165278
3.3847150802612305,-0.07206124067306519,0.05899213254451752,0.05264841765165329,-2.4239213466644287,-0.25431013107299805,0.610961377620697,-0.2138905193612905,1.4774203033317603,0.8971909217337084
3.3953869342803955,-0.07198303937911987,0.07245725393295288,0.0400998517870903,-2.323817253112793,-0.2138385772705078,0.6723653674125671,-0.2096070739804965,1.4803324097968285,0.9220157032490005
3.4047250747680664,-0.07534593343734741,0.07541538774967194,0.03542894124984741,-2.219999313354492,-0.18584255874156952,0.7297499775886536,-0.20455735091346464,1.4832465764105596,0.9458100184222683
3.414720058441162,-0.07506763935089111,0.08509741723537445,0.033968985080718994,-2.1256840229034424,-0.15487772226333618,0.7789428234100342,-0.19883337431501225,1.4861252120065636,0.9685793035903222
3.4247241020202637,-0.07900452613830566,0.09990260004997253,0.034163109958171844,-2.064432382583618,-0.11202802509069443,0.8222795128822327,-0.19251354203832247,1.4890749755558328,0.990563793493825
3.434818983078003,-0.07846391201019287,0.10749617218971252,0.03341002017259598,-2.021890878677368,-0.07676564157009125,0.8558740019798279,-0.1857142580480284,1.492193076071791,1.0119985375042166
3.44527006149292,-0.08016800880432129,0.11125434935092926,0.036346785724163055,-1.9922857284545898,-0.04466869309544563,0.875232458114624,-0.17855703510890827,1.4954154801644561,1.0330366657863492
3.4547438621520996,-0.07820111513137817,0.12205773591995239,0.033984072506427765,-1.9726738929748535,-0.012199167162179947,0.8883914351463318,-0.17115021038312417,1.4987569545348771,1.0538061517524349
3.4648818969726562,-0.06924647092819214,0.13144925236701965,0.025553710758686066,-1.9509763717651367,0.01588786020874977,0.8930349349975586,-0.16357545457171682,1.502205617207208,1.0743209883858817
3.4748079776763916,-0.05909407138824463,0.14378243684768677,0.018356919288635254,-1.9356540441513062,0.04105206951498985,0.8821125030517578,-0.15593620502753883,1.5057213886359049,1.0946028322498165
3.4849729537963867,-0.05057680606842041,0.1588970273733139,0.011598646640777588,-1.9313340187072754,0.06634743511676788,0.866837203502655,-0.148363533916678,1.509320372484413,1.1147114938677214
3.4951789379119873,-0.042794108390808105,0.16789306700229645,0.00834154337644577,-1.9256113767623901,0.08452697098255157,0.8320648670196533,-0.14095328417618289,1.5129602278967076,1.1347312380650818
3.5048060417175293,-0.03156512975692749,0.18010765314102173,0.004974842071533203,-1.9120087623596191,0.09668972343206406,0.797197163105011,-0.13382904782362112,1.5166047040640123,1.1545464948543227
3.514859914779663,-0.01938110589981079,0.19273775815963745,0.004542820155620575,-1.8905415534973145,0.09880826622247696,0.742426872253418,-0.12707718831074946,1.5201388793954047,1.1741667997086072
3.524812936782837,-0.008833348751068115,0.20464032888412476,0.010711558163166046,-1.8756767511367798,0.08438937366008759,0.6942951083183289,-0.12075660574206955,1.5234678410421927,1.1934806666314823
3.5350279808044434,0.0024908781051635742,0.21645620465278625,0.017196297645568848,-1.857702612876892,0.06790360808372498,0.6359631419181824,-0.11492753427245758,1.5264837235744657,1.2125930778405967
3.5456809997558594,0.017126858234405518,0.23234960436820984,0.017352283000946045,-1.8625074625015259,0.06011053919792175,0.5726054906845093,-0.10959014327775347,1.529226565270952,1.2315788809534125
3.5548949241638184,0.028691112995147705,0.2428152859210968,0.01139867678284645,-1.8219832181930542,0.0585043840110302,0.5164375901222229,-0.10484978075057697,1.53186095622365,1.250304369556699
3.5650129318237305,0.031745851039886475,0.23587338626384735,0.0054612793028354645,-1.7995449304580688,0.05434288829565048,0.4348902106285095,-0.10070721623210825,1.5342888481918704,1.268701321650455
3.5749499797821045,0.03668487071990967,0.22957703471183777,0.009471297264099121,-1.7800517082214355,0.05745931714773178,0.3589504361152649,-0.09732817873460946,1.53665135537984,1.2868238943255055
3.584995985031128,0.03564143180847168,0.2286035120487213,0.00869685411453247,-1.7746968269348145,0.0627170205116272,0.2701340913772583,-0.09471915485666249,1.5389718732516529,1.3047910143242951
3.595428943634033,0.034513652324676514,0.23755672574043274,0.010077957063913345,-1.7685542106628418,0.07524771988391876,0.19396954774856567,-0.09289900079472735,1.5413459350236947,1.3226527620890371
3.6049718856811523,0.03003060817718506,0.24254468083381653,0.008387569338083267,-1.767227053642273,0.08863712102174759,0.1089056208729744,-0.091858648725035,1.5437981421969216,1.3404896353658349
3.6150197982788086,0.023009061813354492,0.24411439895629883,0.007021965458989143,-1.7625435590744019,0.10411461442708969,0.0327535979449749,-0.09155415829085083,1.5463815887030432,1.3582585146450301
3.625025987625122,0.010748326778411865,0.24224433302879333,0.0037076491862535477,-1.7542319297790527,0.12518247961997986,-0.046406254172325134,-0.09199174540895391,1.5491427554618584,1.3759522862496643
3.6350388526916504,-0.006556689739227295,0.23393426835536957,-0.00023269467055797577,-1.7355003356933594,0.15071339905261993,-0.11529131233692169,-0.09311972657114695,1.5521331147126678,1.3934814754244838
3.645211935043335,-0.020914077758789062,0.22493603825569153,-0.00632077269256115,-1.7038440704345703,0.1808372288942337,-0.17973272502422333,-0.09486246109335178,1.5554105039780937,1.410762392176551
3.655034065246582,-0.03124135732650757,0.226449117064476,-0.013643084093928337,-1.6663401126861572,0.20349326729774475,-0.23781360685825348,-0.09714408379771722,1.558947017409959,1.4276818316554796
3.6652989387512207,-0.03851306438446045,0.22462037205696106,-0.025262773036956787,-1.6221108436584473,0.2190343290567398,-0.2870192229747772,-0.09991707397969554,1.5626935298717963,1.444196216845071
3.6751999855041504,-0.04286009073257446,0.21705256402492523,-0.030106723308563232,-1.5658153295516968,0.22354865074157715,-0.32117027044296265,-0.1030300707554036,1.5665329924409919,1.4602320746136095
3.6850438117980957,-0.04392600059509277,0.21321766078472137,-0.04033690690994263,-1.4933674335479736,0.2202422022819519,-0.3411006033420563,-0.10634905979769266,1.5703593604840078,1.4756331860538903
3.6950578689575195,-0.04121595621109009,0.2112244963645935,-0.048169732093811035,-1.4175761938095093,0.21275897324085236,-0.3512701392173767,-0.10978133021907967,1.5740947203902782,1.490294478726136
3.7049508094787598,-0.03340268135070801,0.20427006483078003,-0.05428338050842285,-1.3514331579208374,0.21070599555969238,-0.34739506244659424,-0.11318637331665671,1.5777611536861322,1.504256044168846
3.7153148651123047,-0.014644503593444824,0.19152456521987915,-0.0606762170791626,-1.2869840860366821,0.2096378058195114,-0.3240330219268799,-0.11641637311711991,1.581404306990596,1.517575205277294
3.7250680923461914,0.018763184547424316,0.1846763789653778,-0.06903946399688721,-1.2271419763565063,0.19209516048431396,-0.2986832857131958,-0.11934814949617348,1.58489822859611,1.5302952654623967
3.735308885574341,0.05498892068862915,0.18118330836296082,-0.08069086074829102,-1.1808621883392334,0.17136777937412262,-0.269557386636734,-0.12197531372397759,1.5881865306790572,1.5424622762135884
3.7452468872070312,0.07505643367767334,0.17389684915542603,-0.09766924381256104,-1.1628515720367432,0.14975111186504364,-0.2615009844303131,-0.12438192481018946,1.5912477835800016,1.5543150086617936
3.755262851715088,0.07085078954696655,0.1631256341934204,-0.10886085033416748,-1.1766587495803833,0.1303718239068985,-0.26511409878730774,-0.1267335359953827,1.5941225957560414,1.566160370171099
3.765256881713867,0.04299354553222656,0.1464439332485199,-0.11321437358856201,-1.2244352102279663,0.12079691886901855,-0.29864490032196045,-0.12922973739376958,1.596905391743471,1.5783284954060632
3.775150775909424,0.0013664960861206055,0.13105839490890503,-0.11082696914672852,-1.3115037679672241,0.10052094608545303,-0.3407127261161804,-0.13203545230775734,1.5996950613611534,1.5911968421810718
3.785226821899414,-0.02809053659439087,0.11641666293144226,-0.10807156562805176,-1.4289963245391846,0.057083722203969955,-0.394368052482605,-0.1352772335245012,1.6023486367995972,1.6051143627273117
3.795454978942871,-0.03968608379364014,0.10104463994503021,-0.10565531253814697,-1.572045087814331,-0.0038893502205610275,-0.4643940031528473,-0.1390883474127785,1.604672255951609,1.6204096683272031
3.805253028869629,-0.042167484760284424,0.07907688617706299,-0.1142416000366211,-1.7095134258270264,-0.05440365523099899,-0.4948084354400635,-0.14329094320379646,1.6067242943643856,1.6372070492715398
3.8152518272399902,-0.038802266120910645,0.06872925162315369,-0.14037001132965088,-1.7556287050247192,-0.09291696548461914,-0.5173728466033936,-0.14773460362361276,1.6085438356994122,1.6549865104185735
3.825239896774292,-0.03393036127090454,0.06741556525230408,-0.16967833042144775,-1.6892292499542236,-0.1427045315504074,-0.5090808868408203,-0.15219592059918174,1.6100022394571878,1.67267382717988
3.835196018218994,-0.014620304107666016,0.07100418210029602,-0.19535565376281738,-1.5630137920379639,-0.19710758328437805,-0.4813549220561981,-0.1565014953117699,1.6108445396077944,1.6893520553170684
3.8453938961029053,0.003972291946411133,0.06129270792007446,-0.21376526355743408,-1.4101860523223877,-0.23608526587486267,-0.4305645227432251,-0.16046429169222723,1.6110477626597102,1.7045924961781656
3.855257034301758,0.008773088455200195,0.044992342591285706,-0.2244023084640503,-1.2574752569198608,-0.2505965530872345,-0.38307610154151917,-0.16399361011379604,1.610778684314579,1.7182868767231319
3.8653597831726074,0.00530850887298584,0.03614051640033722,-0.22671759128570557,-1.093207597732544,-0.25296303629875183,-0.33205685019493103,-0.16708945726792734,1.6102066610311232,1.7303844738052143
3.8752808570861816,0.0020393729209899902,0.028258830308914185,-0.22434401512145996,-0.8885901570320129,-0.24589234590530396,-0.27195143699645996,-0.1697134468262174,1.6093945738097992,1.7405796048757567
3.8853650093078613,0.004367351531982422,0.02625015377998352,-0.2174290418624878,-0.6773748397827148,-0.2347310483455658,-0.227338969707489,-0.17189112003948778,1.6083059645382325,1.748619554167844
3.895662784576416,0.005352377891540527,0.029695376753807068,-0.201621413230896,-0.4853047728538513,-0.2044607549905777,-0.1797400265932083,-0.17370672500957146,1.6070936377671872,1.7545920534982717
3.905388832092285,0.006746351718902588,0.025524571537971497,-0.18256378173828125,-0.3092021942138672,-0.16735853254795074,-0.133694127202034,-0.17512191408364441,1.6059094018724873,1.7586870056140558
3.9154257774353027,0.016924560070037842,0.02482961118221283,-0.16470623016357422,-0.11857818067073822,-0.13891276717185974,-0.08734580874443054,-0.17613766637931214,1.604747779682222,1.7608763241996228
3.9253830909729004,0.033004701137542725,0.03587065637111664,-0.14654982089996338,0.03042651154100895,-0.11035968363285065,-0.0687267929315567,-0.1768725648598253,1.6035285040357763,1.761289728601969
3.9353818893432617,0.049172401428222656,0.04031363129615784,-0.12781262397766113,0.09519138932228088,-0.08089128136634827,-0.06626896560192108,-0.17755192716428744,1.6024318324914635,1.7606150031683456
3.9454638957977295,0.06809002161026001,0.030680537223815918,-0.1175539493560791,0.08633806556463242,-0.07149134576320648,-0.08341817557811737,-0.17830096813359997,1.6014850638109834,1.7596835772292256
3.955537796020508,0.08845478296279907,0.017878055572509766,-0.10550522804260254,0.06974657624959946,-0.09731096029281616,-0.11159361898899078,-0.17929372055237455,1.6004879699244405,1.758934424542064
3.965460777282715,0.10743540525436401,0.00984974205493927,-0.09606672078371048,0.05484861508011818,-0.14341799914836884,-0.13658280670642853,-0.18052114340785314,1.5991668208503365,1.7583318008797202
3.9754538536071777,0.12118083238601685,0.006987467408180237,-0.08486032485961914,0.006001447327435017,-0.2142423689365387,-0.18747848272323608,-0.18214356875459,1.5972751575415447,1.7580304856501952
3.985506057739258,0.11590099334716797,-0.003477811813354492,-0.06738853454589844,-0.08211647719144821,-0.28050291538238525,-0.23610715568065643,-0.18423627068294396,1.5948162388804923,1.7584317763217516
3.995774984359741,0.10284346342086792,-0.015421256422996521,-0.05901741981506348,-0.21037830412387848,-0.33324363827705383,-0.31031695008277893,-0.18691788289633232,1.5919607529298128,1.759971419209502
4.005465030670166,0.08494818210601807,-0.01703624427318573,-0.05754399299621582,-0.3488236963748932,-0.38806217908859253,-0.3900775909423828,-0.19034842455937828,1.5888418089129457,1.762867232403347
4.015500068664551,0.060972511768341064,-0.016946643590927124,-0.047049641609191895,-0.4925640821456909,-0.42747431993484497,-0.4710794985294342,-0.19459449148325259,1.5855319867558813,1.7672470987786586
4.025531768798828,0.03588682413101196,-0.01958593726158142,-0.03496217727661133,-0.5935107469558716,-0.47358521819114685,-0.5246468782424927,-0.19949538283313858,1.582071878178934,1.7728765760956955
4.036007881164551,0.02135169506072998,-0.017094731330871582,-0.029590964317321777,-0.6448506116867065,-0.5260276198387146,-0.574463427066803,-0.20494297301887754,1.5782970595410477,1.7792840829560348
4.0455451011657715,0.013455748558044434,-0.006910726428031921,-0.025755882263183594,-0.6530565619468689,-0.5861338376998901,-0.6022744178771973,-0.21078432553922993,1.574041094632444,1.7859612394806035
4.05557107925415,0.008118152618408203,-0.003324061632156372,-0.020843207836151123,-0.642138659954071,-0.6348220109939575,-0.6152397394180298,-0.2168574962300938,1.5692648867986991,1.7925947111007638
4.065589904785156,0.009403467178344727,-0.0065586864948272705,-0.01643162965774536,-0.6218603849411011,-0.6792882084846497,-0.6078876852989197,-0.22300194856915412,1.5640350560716072,1.799042299886145
4.075598955154419,0.02053731679916382,-0.013392031192779541,-0.012984991073608398,-0.6088201999664307,-0.7208204865455627,-0.5937337875366211,-0.22907427249817328,1.5583554127113957,1.8052760059838986
4.085620880126953,0.036190927028656006,-0.023850679397583008,-0.003976762294769287,-0.6196122169494629,-0.7543932795524597,-0.569440484046936,-0.2349761000981164,1.5523223654969116,1.811467284890458
4.095707893371582,0.050225913524627686,-0.03921434283256531,0.00908118486404419,-0.6585279107093811,-0.7831660509109497,-0.5349439978599548,-0.24062636035557042,1.5460774930489887,1.8178982217936275
4.105599880218506,0.06387186050415039,-0.05850838124752045,0.027396978810429573,-0.7143166065216064,-0.813191294670105,-0.49282607436180115,-0.24594742205545445,1.5396968621072438,1.8248048901606126
4.115660905838013,0.07040655612945557,-0.07159629464149475,0.043659571558237076,-0.7832168340682983,-0.8461721539497375,-0.453566312789917,-0.2509176553497045,1.5331830554011359,1.8323331750937508
4.125729084014893,0.06644189357757568,-0.07895517349243164,0.060219407081604004,-0.8672621250152588,-0.867487907409668,-0.4220370650291443,-0.25561892385713,1.5266140691685879,1.8406466195088629
4.135629892349243,0.049994587898254395,-0.08506929874420166,0.07417809218168259,-0.9762301445007324,-0.8809603452682495,-0.39051055908203125,-0.2600958327354724,1.52016290275955,1.8499624508513945
4.145749092102051,0.025186598300933838,-0.09280496835708618,0.08827482908964157,-1.0868375301361084,-0.8816024661064148,-0.36349591612815857,-0.2644083991041503,1.5139800789078692,1.8604188125574364
4.15576696395874,-0.0003865957260131836,-0.09897848963737488,0.09991002082824707,-1.187204360961914,-0.8751954436302185,-0.341309130191803,-0.2685933383935869,1.508167420966442,1.8719773309449113
4.165718078613281,-0.024828791618347168,-0.09897956252098083,0.11066807061433792,-1.264898657798767,-0.8635326027870178,-0.32103022933006287,-0.27269576230505127,1.5027284921586184,1.8844740312578836
4.175731897354126,-0.04618501663208008,-0.09350505471229553,0.12162542343139648,-1.3160367012023926,-0.8474838137626648,-0.29913026094436646,-0.27669434129227893,1.4976727943467982,1.8976448512168436
4.185744762420654,-0.06178164482116699,-0.08789622783660889,0.1305907964706421,-1.3376445770263672,-0.8249900937080383,-0.26766371726989746,-0.2805099960528907,1.4929816660278188,1.911213602290773
4.195960998535156,-0.06925380229949951,-0.07993113994598389,0.13742423057556152,-1.3245418071746826,-0.8029590845108032,-0.22558549046516418,-0.2840370127133706,1.4885828917502089,1.9248443987286368
4.2057647705078125,-0.0691913366317749,-0.06675419211387634,0.140719473361969,-1.2781943082809448,-0.7766733169555664,-0.17707031965255737,-0.28712911847588585,1.4843893207832983,1.938198939079538
4.2158989906311035,-0.06501483917236328,-0.05494841933250427,0.13885653018951416,-1.2074229717254639,-0.7497082948684692,-0.1241314560174942,-0.2897282228362873,1.4803436817583353,1.9509869229820798
4.225892066955566,-0.06029266119003296,-0.044617414474487305,0.13577282428741455,-1.130874514579773,-0.7144153118133545,-0.06784826517105103,-0.2917501672059982,1.4764341856953798,1.9630588418421873
4.235910892486572,-0.05221015214920044,-0.04026356339454651,0.13370780646800995,-1.0643079280853271,-0.67753666639328,-0.015221543610095978,-0.293194977396857,1.47269930044413,1.974449824137538
4.246180057525635,-0.04603171348571777,-0.04056385159492493,0.13556377589702606,-1.0031116008758545,-0.6355236172676086,0.04603366553783417,-0.29405068050400623,1.4692187720450953,1.9851995054116929
4.255937099456787,-0.040358781814575195,-0.03911128640174866,0.1379801630973816,-0.9606894850730896,-0.5971717238426208,0.09045199304819107,-0.2943664004648276,1.4659972641716523,1.995462101702597
4.265888929367065,-0.033850133419036865,-0.03698226809501648,0.14520053565502167,-0.9452624917030334,-0.5635564923286438,0.13128060102462769,-0.2942623668887331,1.4630631529014164,2.005477391431887
4.275856018066406,-0.026096761226654053,-0.04212257266044617,0.1563798189163208,-0.9568696022033691,-0.5268445611000061,0.16276608407497406,-0.29381394122843274,1.4604854595644072,2.0155200594158704
4.286179065704346,-0.02000480890274048,-0.0485709011554718,0.16639459133148193,-0.9823483228683472,-0.4896303117275238,0.1873377412557602,-0.29313802688197943,1.4583377012169616,2.025793482501173
4.2962141036987305,-0.017095506191253662,-0.04806160926818848,0.17409485578536987,-1.0108656883239746,-0.4550965428352356,0.20322935283184052,-0.292319209261326,1.4566391984611156,2.036372010770107
4.30588698387146,-0.010955333709716797,-0.04667156934738159,0.17852389812469482,-1.0394763946533203,-0.42225781083106995,0.2110154777765274,-0.291425453377436,1.455366862310441,2.047271268327304
4.3159239292144775,-0.004024922847747803,-0.04154562950134277,0.17973209917545319,-1.055161952972412,-0.3880636394023895,0.2146805226802826,-0.29050266862311774,1.454482071251316,2.05840120597943
4.325973987579346,0.0008054375648498535,-0.03499162197113037,0.17830169200897217,-1.058760404586792,-0.36118221282958984,0.20789942145347595,-0.2896184966169238,1.4539316814679821,2.0696353037127846
4.336008071899414,0.00016683340072631836,-0.027662038803100586,0.17569275200366974,-1.0576282739639282,-0.3304666578769684,0.19887636601924896,-0.28881692186045643,1.4536548203435586,2.080862344997805
4.346163988113403,-0.002070605754852295,-0.022422194480895996,0.1750868409872055,-1.0526844263076782,-0.2969048321247101,0.18139511346817017,-0.2881421389643597,1.453673761982439,2.09203203316084
4.355974912643433,-0.008168041706085205,-0.019930720329284668,0.1754634976387024,-1.0465439558029175,-0.2635527551174164,0.1632017344236374,-0.2876443158823137,1.4540005424401325,2.10312377306092
4.365987777709961,-0.01271885633468628,-0.019633710384368896,0.17441719770431519,-1.0401819944381714,-0.22623471915721893,0.14030344784259796,-0.28735043099279217,1.4546606435287885,2.1141319362160553
4.375977039337158,-0.017675161361694336,-0.019291549921035767,0.17176276445388794,-1.0281826257705688,-0.18593282997608185,0.12295614928007126,-0.28721645873716384,1.4556737555676278,2.125019693954663
4.386034965515137,-0.01888728141784668,-0.01881614327430725,0.1685391664505005,-1.0100445747375488,-0.14885540306568146,0.10778022557497025,-0.2872298699770264,1.457022784918837,2.135727395856602
4.396176815032959,-0.017073392868041992,-0.015511929988861084,0.16302216053009033,-0.9859182238578796,-0.11191577464342117,0.10050154477357864,-0.28731665250423055,1.4586782037408779,2.146204711779372
4.406138896942139,-0.014315783977508545,-0.01614055037498474,0.1559542566537857,-0.9571321606636047,-0.07692418992519379,0.10076673328876495,-0.2873834205151979,1.4606164327187827,2.156396686230913
4.416070938110352,-0.012477099895477295,-0.01816082000732422,0.1519988775253296,-0.9244677424430847,-0.041522521525621414,0.11124014854431152,-0.28735799253766436,1.4628136487589534,2.166281091494971
4.425999879837036,-0.01125335693359375,-0.02029678225517273,0.1472647786140442,-0.8948839902877808,-0.001992202829569578,0.12691813707351685,-0.28713498918885455,1.46530506511025,2.1758535653300384
4.436125993728638,-0.014599800109863281,-0.021678805351257324,0.14049071073532104,-0.8686779737472534,0.035022005438804626,0.143624946475029,-0.28669863598286055,1.468100897131697,2.185162381682708
4.446262836456299,-0.01717323064804077,-0.024677127599716187,0.13170163333415985,-0.8410982489585876,0.07142075896263123,0.17165598273277283,-0.2859907892306756,1.4711918047101358,2.194203564092411
4.456080913543701,-0.02260005474090576,-0.025965481996536255,0.12168007344007492,-0.8145455121994019,0.10893377661705017,0.19715042412281036,-0.2849640278265997,1.4745733850614702,2.2029864065775935
4.466120958328247,-0.029968202114105225,-0.02585512399673462,0.11447929590940475,-0.7837285399436951,0.14880605041980743,0.2277233600616455,-0.28359319403016336,1.4782504904412759,2.211488475606021
4.476085901260376,-0.03631633520126343,-0.02569785714149475,0.10842502862215042,-0.7589393258094788,0.1781732589006424,0.2581510543823242,-0.2818563063753898,1.4821857302038308,2.2197170969000135
4.486151933670044,-0.03678351640701294,-0.025734752416610718,0.09899044036865234,-0.7348729372024536,0.20545729994773865,0.2938501834869385,-0.27975084530995437,1.4863240504896578,2.2277126885394876
4.496285915374756,-0.04388338327407837,-0.022853761911392212,0.08761579543352127,-0.713392436504364,0.24028772115707397,0.3243745267391205,-0.27726220996134804,1.4906894156204047,2.235486070198645
4.5061259269714355,-0.0558130145072937,-0.020136624574661255,0.07413292676210403,-0.6938692331314087,0.27251121401786804,0.36052849888801575,-0.27439074368769906,1.4953276336183459,2.243070770195067
4.516143798828125,-0.06160467863082886,-0.0189037024974823,0.06258726865053177,-0.6746710538864136,0.2979563772678375,0.39993155002593994,-0.27108239990061456,1.5001718618001645,2.2504541865052916
4.526235103607178,-0.06162458658218384,-0.012395471334457397,0.05144566297531128,-0.6499757766723633,0.3165741562843323,0.4376521110534668,-0.2673543503784789,1.5051632636407155,2.257626136001181
4.536341905593872,-0.05894845724105835,-0.00490725040435791,0.04060078412294388,-0.6191813945770264,0.3267687261104584,0.4755356013774872,-0.26318398583247754,1.5102054318864246,2.264499813586534
4.546300888061523,-0.05231022834777832,0.002711176872253418,0.03522193804383278,-0.5866008400917053,0.3306453227996826,0.513677179813385,-0.2585837204205055,1.515189039989443,2.271032629812747
4.55625581741333,-0.04379761219024658,0.00886082649230957,0.027890387922525406,-0.5768395662307739,0.3307904601097107,0.5451784133911133,-0.25359899058161184,1.5200837583660285,2.277322159203992
4.566235065460205,-0.03539019823074341,0.012845605611801147,0.021364156156778336,-0.5761756300926208,0.33339735865592957,0.5782386064529419,-0.2482409919697017,1.5249554428500909,2.283549693996394
4.576291084289551,-0.028354525566101074,0.01996488869190216,0.013469342142343521,-0.6060634851455688,0.33166468143463135,0.5966748595237732,-0.24261636588005214,1.5298250850947857,2.2898944972718116
4.58619499206543,-0.016734719276428223,0.025225892663002014,0.004529658704996109,-0.6391619443893433,0.3264477252960205,0.6263508200645447,-0.2367292903564448,1.5347044155116227,2.29654768033023
4.596430778503418,-0.003119230270385742,0.023699849843978882,-0.002463042736053467,-0.6794622540473938,0.32400187849998474,0.6458821892738342,-0.23058095105233292,1.5395759949734298,2.303549607513589
4.606266021728516,0.0032433271408081055,0.02970343828201294,-0.011304739862680435,-0.7251253128051758,0.3213609457015991,0.6643605828285217,-0.2242151533050326,1.5444827082752095,2.3109535067142724
4.616333961486816,0.011689424514770508,0.040160417556762695,-0.017642496153712273,-0.7860704660415649,0.3202272355556488,0.6796817779541016,-0.21767316528487946,1.5494353074689868,2.318866021781336
4.626372814178467,0.022547364234924316,0.04329484701156616,-0.02312678098678589,-0.8594431281089783,0.3278366029262543,0.7024402022361755,-0.21090493992354103,1.554498824071949,2.327430567065534
4.636468887329102,0.040976881980895996,0.0481981486082077,-0.023897647857666016,-0.9216992855072021,0.3476284146308899,0.7405580282211304,-0.20382044540462527,1.5597826116935771,2.3366725371213106
4.646409034729004,0.08652245998382568,0.057423412799835205,-0.019831597805023193,-0.9626712799072266,0.3350846767425537,0.7948278188705444,-0.19619794774319757,1.5651596798166354,2.3463787763345834
4.656367778778076,0.15629488229751587,0.07691138982772827,-0.025478899478912354,-0.9818215370178223,0.28635868430137634,0.8244560360908508,-0.18809650081779183,1.5701872778835486,2.356327851953394
4.66648006439209,0.19632363319396973,0.10366690158843994,-0.039727210998535156,-0.9963899254798889,0.25873735547065735,0.8392136693000793,-0.17973947508042523,1.5747288193096585,2.3663880123292986
4.676375865936279,0.1797116994857788,0.11733222007751465,-0.05151259899139404,-1.0315561294555664,0.25680413842201233,0.8273894786834717,-0.17131577605063328,1.579095602072508,2.376629103116113
4.686413764953613,0.14520955085754395,0.11423331499099731,-0.056115031242370605,-1.09379243850708,0.26024430990219116,0.798355758190155,-0.1630537066376769,1.5834701942919405,2.387334586094368
4.69648289680481,0.13048100471496582,0.1166306883096695,-0.05456364154815674,-1.147832989692688,0.2607167661190033,0.7508417367935181,-0.15510862603789735,1.5878612823453682,2.3986064549704165
4.7063329219818115,0.1233254075050354,0.13863623142242432,-0.05452167987823486,-1.1808525323867798,0.25757238268852234,0.6868821978569031,-0.14768179833190703,1.5922278166300823,2.4102688093568974
4.716463088989258,0.11247938871383667,0.16736483573913574,-0.06807577610015869,-1.178663969039917,0.2528681755065918,0.6212975978851318,-0.14085494111648358,1.5964809309026542,2.42207917685861
4.7265379428863525,0.09763985872268677,0.18681809306144714,-0.08828103542327881,-1.128780722618103,0.23939675092697144,0.553698718547821,-0.13464853862710643,1.6005435671243515,2.4335892359898854
4.736594915390015,0.0773133635520935,0.20477673411369324,-0.10251295566558838,-1.0681216716766357,0.23871099948883057,0.46370333433151245,-0.12920053818203742,1.6043508959325796,2.44455081076256
4.74658203125,0.052314043045043945,0.2274562120437622,-0.1134500503540039,-0.9635854959487915,0.24542078375816345,0.3783016502857208,-0.12462695698687819,1.6080670336977234,2.4546747820507573
4.756701946258545,0.029278993606567383,0.23659539222717285,-0.12855303287506104,-0.8267086148262024,0.23334521055221558,0.2844198942184448,-0.1209532689321017,1.611554139245397,2.4635777209506395
4.766575813293457,0.01671653985977173,0.2384127974510193,-0.14052653312683105,-0.6778976321220398,0.2290513962507248,0.1950710266828537,-0.11824680702124225,1.6147659267714298,2.4710643058157866
4.776467800140381,0.009846150875091553,0.23407304286956787,-0.1579906940460205,-0.5239296555519104,0.21015626192092896,0.11522466689348221,-0.11644012700084531,1.6176713535848855,2.4770446197177276
4.786542892456055,0.012155532836914062,0.23023368418216705,-0.17298614978790283,-0.37971219420433044,0.1791338175535202,0.04060353338718414,-0.11546639901073638,1.620138028930111,2.4815244134978496
4.79666805267334,0.024012982845306396,0.22960126399993896,-0.18581414222717285,-0.2809397876262665,0.1363498717546463,-0.033147118985652924,-0.11528892007714243,1.622101009338569,2.4848218146496848
4.806545972824097,0.03842693567276001,0.2176198661327362,-0.19442403316497803,-0.2296312004327774,0.07347894459962845,-0.0969640240073204,-0.11582982012378658,1.6234465093211867,2.4873847698611735
4.8165740966796875,0.046252548694610596,0.1910218894481659,-0.19864869117736816,-0.2387101948261261,-0.00896533578634262,-0.18091803789138794,-0.11712224330656568,1.624036997655323,2.4897718645802493
4.826539993286133,0.0384746789932251,0.1568625271320343,-0.19300460815429688,-0.28187331557273865,-0.08389927446842194,-0.22409363090991974,-0.11902250474198307,1.623927610618072,2.4924994585420084
4.836599826812744,0.03127783536911011,0.12819653749465942,-0.18972432613372803,-0.3528577387332916,-0.1778007298707962,-0.3015652596950531,-0.12150708314222579,1.6230049286428505,2.495828071247799
4.846608877182007,0.02014017105102539,0.1029839813709259,-0.18628525733947754,-0.4231815040111542,-0.28681856393814087,-0.3604152202606201,-0.12464868996282304,1.6211562267529358,2.49989811159092
4.8567280769348145,-0.000915229320526123,0.0848136842250824,-0.17764294147491455,-0.49730873107910156,-0.3856482207775116,-0.4301607310771942,-0.1283988715078148,1.6183708659971898,2.5047251547877547
4.86663293838501,-0.021759390830993652,0.06948719918727875,-0.17349791526794434,-0.5762902498245239,-0.47797533869743347,-0.49561548233032227,-0.13282250486201702,1.61475156564606,2.510350833146849
4.876643896102905,-0.040347397327423096,0.05203808844089508,-0.16356611251831055,-0.6657662987709045,-0.5548579096794128,-0.5616690516471863,-0.13786659586471675,1.6104200387372978,2.516835160957461
4.886544942855835,-0.056620240211486816,0.035586774349212646,-0.14883160591125488,-0.7569881081581116,-0.6156176328659058,-0.6214093565940857,-0.14355563125467757,1.6055668530807337,2.5242354013662744
4.896597862243652,-0.07258021831512451,0.019399911165237427,-0.13290119171142578,-0.8363258242607117,-0.6599632501602173,-0.6752816438674927,-0.14981521627179512,1.6003493160258324,2.5325013323166607
4.90654993057251,-0.08722305297851562,0.009455785155296326,-0.11426377296447754,-0.8997132778167725,-0.702800452709198,-0.7200952172279358,-0.15660402819448513,1.5948724108609316,2.541485584992987
4.916662931442261,-0.08946478366851807,-0.0002541095018386841,-0.09572982788085938,-0.9436154961585999,-0.74784916639328,-0.7460505962371826,-0.16378133262909625,1.5890895455797502,2.5509963163618097
4.92655611038208,-0.07929939031600952,-0.012937590479850769,-0.07754921913146973,-0.9670302867889404,-0.782891035079956,-0.7620152235031128,-0.1712129906943342,1.5830186291777286,2.5608194248183693
4.936628818511963,-0.06511151790618896,-0.025667250156402588,-0.058684706687927246,-0.9660601019859314,-0.8157501816749573,-0.7639380097389221,-0.1787941881128703,1.576719009755301,2.57072410909298
4.946808815002441,-0.042703330516815186,-0.03571750223636627,-0.04229670763015747,-0.932050347328186,-0.8539172410964966,-0.7376618385314941,-0.18632992276889282,1.570096919680553,2.580412894453247
4.956754922866821,-0.0109938383102417,-0.04479677975177765,-0.026449203491210938,-0.9066091775894165,-0.9012690186500549,-0.706273078918457,-0.19361770265945538,1.5630274539690556,2.589734730799449
4.966848850250244,0.02362966537475586,-0.05627955496311188,-0.004361569881439209,-0.9297555088996887,-0.9446908235549927,-0.6794848442077637,-0.2006748326496883,1.555580133365612,2.599028233675537
4.976769924163818,0.05332303047180176,-0.09609803557395935,0.013885140419006348,-0.9281315207481384,-0.9816789031028748,-0.6225057244300842,-0.2074147520338893,1.54782623200081,2.608409480415492
4.986795902252197,0.07220959663391113,-0.12663079798221588,0.02576392889022827,-0.8654971718788147,-1.0306305885314941,-0.5747629404067993,-0.21365603577450615,1.5395876203020755,2.617430421476922
4.996888875961304,0.07763522863388062,-0.11976955831050873,0.04146510362625122,-0.8797123432159424,-1.0597264766693115,-0.55087810754776,-0.21961412048318832,1.5309267983578827,2.6260688013207703
5.006818771362305,0.06548178195953369,-0.14160041511058807,0.06300294399261475,-1.0186583995819092,-1.0383062362670898,-0.5485182404518127,-0.22553888677384543,1.5224503076950173,2.6354609032373504
5.017244815826416,0.04464554786682129,-0.18400032818317413,0.08068448305130005,-1.216966152191162,-0.9886528849601746,-0.5570619106292725,-0.23167573321584725,1.5148019889222966,2.6466329329263254
5.026856899261475,0.018772363662719727,-0.19458980858325958,0.08884716778993607,-1.3652976751327515,-0.9237432479858398,-0.5640241503715515,-0.2380769452059445,1.508204870083222,2.6596090960923537
5.036890029907227,-0.00562208890914917,-0.1606302261352539,0.08894413709640503,-1.4360774755477905,-0.8666306734085083,-0.5783554315567017,-0.244667979434402,1.502612707789379,2.673651611490536
5.046871900558472,-0.026131868362426758,-0.11926098167896271,0.0893053412437439,-1.4572831392288208,-0.7735508680343628,-0.5992810726165771,-0.2516384917498573,1.4979326232300625,2.68818769086248
5.056838035583496,-0.047229230403900146,-0.10082095861434937,0.09179060906171799,-1.3870863914489746,-0.699272096157074,-0.5622774958610535,-0.25852194775586274,1.4941631548311418,2.702471190165978
5.066946029663086,-0.05845707654953003,-0.08340218663215637,0.08898031711578369,-1.2058302164077759,-0.655457615852356,-0.5104588866233826,-0.2649266028240127,1.4907512138412493,2.715495912449968
5.0768818855285645,-0.0593719482421875,-0.048228710889816284,0.08730524778366089,-0.9419285655021667,-0.6153588891029358,-0.4290870428085327,-0.2705257211229017,1.4872084923631081,2.7262175919476364
5.086874008178711,-0.06258970499038696,-0.03256428241729736,0.08309537172317505,-0.7157749533653259,-0.5755201578140259,-0.3607444763183594,-0.27517490775768777,1.4834376763995896,2.734418732289471
5.096950054168701,-0.07400637865066528,-0.043902069330215454,0.09160865098237991,-0.522844672203064,-0.5263987183570862,-0.27753347158432007,-0.27893511606960464,1.4795843466683765,2.7405187405293847
5.106896877288818,-0.08285695314407349,-0.06699198484420776,0.09338915348052979,-0.3622591495513916,-0.4790666997432709,-0.2033098042011261,-0.28173328046487156,1.4757503999901147,2.744856366526606
5.1168928146362305,-0.08457237482070923,-0.078183114528656,0.09354455769062042,-0.23905280232429504,-0.4348292052745819,-0.13628336787223816,-0.2837420311558479,1.4719709532539458,2.7477745278381276
5.127007007598877,-0.0839850902557373,-0.0866541862487793,0.09816045314073563,-0.18765220046043396,-0.3794056177139282,-0.08683805167675018,-0.28506409276202405,1.4684405939307077,2.749805290728519
5.137008905410767,-0.08131694793701172,-0.10845622420310974,0.10168427228927612,-0.20443756878376007,-0.32015135884284973,-0.04204394295811653,-0.2859040738064355,1.4654580228187877,2.7517266633538595
5.1470489501953125,-0.07672208547592163,-0.12345212697982788,0.09628380835056305,-0.2662509083747864,-0.2520250976085663,-0.01243534404784441,-0.28642527332376844,1.4632809178783446,2.7541587949421538
5.157034873962402,-0.06547820568084717,-0.11671116948127747,0.08630186319351196,-0.32504844665527344,-0.18316799402236938,0.018123364076018333,-0.2867470391017387,1.4619614028520718,2.757220860757247
5.167020797729492,-0.050441205501556396,-0.10335364937782288,0.07418215274810791,-0.3754653334617615,-0.1330013871192932,0.0487280897796154,-0.2867884237270535,1.461420376453001,2.7608917907057573
5.177035808563232,-0.039614200592041016,-0.09175661206245422,0.06423366814851761,-0.42417722940444946,-0.08309002965688705,0.06930819898843765,-0.28664486992371774,1.4615367982397747,2.765120711857937
5.187066078186035,-0.03169757127761841,-0.0768248438835144,0.05393362045288086,-0.46897751092910767,-0.05465363711118698,0.08484332263469696,-0.28633361388162304,1.462187286905328,2.7698261929817956
5.197083950042725,-0.02357470989227295,-0.06080096960067749,0.04576748609542847,-0.5228729844093323,-0.021823521703481674,0.08205952495336533,-0.2860450522011944,1.4632711981698507,2.775092517616473
5.20708703994751,-0.02495098114013672,-0.05373585224151611,0.03945803642272949,-0.601721465587616,-0.0007164599373936653,0.06673137843608856,-0.28588570267864627,1.4648037546314308,2.7809869289326223
5.217145919799805,-0.029393255710601807,-0.04682469367980957,0.03168529272079468,-0.6745114922523499,0.03188196197152138,0.05498470738530159,-0.2859663491120575,1.466870592602855,2.787684556283857
5.228622913360596,-0.034079134464263916,-0.039639562368392944,0.02062922716140747,-0.7561256885528564,0.06523255258798599,0.03182831034064293,-0.2862703691415639,1.4694608383762544,2.7951599801322535
5.237222909927368,-0.03607487678527832,-0.03172469139099121,0.0093802809715271,-0.8465847373008728,0.10490725934505463,0.007928037084639072,-0.2868794958339488,1.4726595972754022,2.803490161583892
5.247293949127197,-0.03731769323348999,-0.027682125568389893,-0.0047133564949035645,-0.9157091379165649,0.15420764684677124,0.0006641055224463344,-0.28769202645869896,1.4765470089026138,2.812667240083783
5.25722599029541,-0.03973513841629028,-0.024337202310562134,-0.020659632980823517,-0.9251050353050232,0.18862394988536835,0.006487905979156494,-0.2885162172848701,1.4810003687818614,2.822291995082018
5.267276763916016,-0.037979066371917725,-0.009655237197875977,-0.035337336361408234,-0.8673374652862549,0.21063479781150818,0.015867561101913452,-0.28919756232805754,1.4856632871210527,2.8316647230080023
5.278650760650635,-0.03561592102050781,0.010860294103622437,-0.04689323902130127,-0.7753409743309021,0.2168831080198288,0.025559602305293083,-0.28966710981148575,1.4902579208238775,2.8402432918652103
5.287144899368286,-0.03649657964706421,0.023947149515151978,-0.05739450454711914,-0.6556562185287476,0.2217162549495697,0.04077418893575668,-0.2899113697316354,1.4945839652637047,2.8477375433763354
5.297214031219482,-0.04042857885360718,0.03198707103729248,-0.06586027145385742,-0.5460426807403564,0.22056975960731506,0.0458855926990509,-0.2899129135453985,1.4986046518664167,2.8540341521874155
5.30718994140625,-0.04516327381134033,0.041814327239990234,-0.07092976570129395,-0.43637019395828247,0.2254433035850525,0.056512828916311264,-0.2897530341999841,1.5022990621405512,2.8591676992052757
5.317209959030151,-0.050337910652160645,0.0441095232963562,-0.08038032054901123,-0.37029343843460083,0.23915086686611176,0.06371241807937622,-0.28941204147798383,1.5058220317904276,2.8633880959193325
5.328558921813965,-0.050199806690216064,0.04586589336395264,-0.0893099308013916,-0.35599014163017273,0.2532573640346527,0.05660204589366913,-0.2890441826538536,1.509373671689843,2.867204094039479
5.337553024291992,-0.046058833599090576,0.04245120286941528,-0.09630769491195679,-0.35098686814308167,0.2556595206260681,0.062354207038879395,-0.28865872880752574,1.5129621942963736,2.8709190103026434
5.347261905670166,-0.04269498586654663,0.04604220390319824,-0.11282968521118164,-0.33725616335868835,0.26326459646224976,0.06078864261507988,-0.2882395120107026,1.5165844231007717,2.8745418451931504
5.357244968414307,-0.03945666551589966,0.062325865030288696,-0.127890944480896,-0.32314541935920715,0.2689525783061981,0.054988276213407516,-0.28782308841606014,1.5202411785754975,2.8780158542688947
5.367275953292847,-0.03570955991744995,0.0810982882976532,-0.1429697871208191,-0.3174883723258972,0.2743014693260193,0.04330935701727867,-0.2874846112772187,1.5238817247603238,2.881385667398821
5.378407955169678,-0.03386944532394409,0.09144586324691772,-0.15765279531478882,-0.26835277676582336,0.29764673113822937,0.062174659222364426,-0.2871164504750355,1.5276178013760304,2.8844977320685157
5.387274980545044,-0.031554996967315674,0.10946327447891235,-0.17389774322509766,-0.15615561604499817,0.30607056617736816,0.07342608273029327,-0.2865311620141919,1.5312652492005232,2.8867703593395677
5.397377967834473,-0.029642879962921143,0.13652294874191284,-0.18492543697357178,0.07248341292142868,0.32294780015945435,0.12709970772266388,-0.28561851409229977,1.534549690495917,2.8873721937270904
5.407331943511963,-0.02807331085205078,0.15629366040229797,-0.19910472631454468,0.37373945116996765,0.3422241508960724,0.20929545164108276,-0.2838109095338572,1.5372289111123802,2.885079786306948
5.417346954345703,-0.024377524852752686,0.1811944544315338,-0.20515668392181396,0.5699483752250671,0.40929746627807617,0.22220751643180847,-0.28150857331665263,1.5395497607368305,2.8801576246084424
5.428618907928467,-0.04426306486129761,0.1508825123310089,-0.18766194581985474,0.6735582947731018,0.536536693572998,0.2843247950077057,-0.27881762431408025,1.542471216150545,2.8737148228417344
5.437358856201172,-0.06302177906036377,0.08716875314712524,-0.18363428115844727,0.7421666979789734,0.6185335516929626,0.2837713956832886,-0.27574849934051865,1.5462721511016795,2.8664456572390926
5.447332859039307,-0.05431818962097168,0.10068574547767639,-0.16805320978164673,0.8259661793708801,0.6546602249145508,0.29485654830932617,-0.27272335687866056,1.5504592051524946,2.8583560058481994
5.457366943359375,-0.029438436031341553,0.12898826599121094,-0.16354864835739136,0.9177605509757996,0.6653445363044739,0.31810513138771057,-0.2694952261041223,1.5546539700097348,2.8493531687420215
5.467437982559204,0.010049521923065186,0.14627698063850403,-0.16945111751556396,1.0582106113433838,0.6751195192337036,0.3478744328022003,-0.266061114624286,1.558652239677597,2.839193501941425
5.478569984436035,0.05039811134338379,0.1596357524394989,-0.1802605390548706,1.2988826036453247,0.6726792454719543,0.40543386340141296,-0.262180808948863,1.562210500504872,2.8270664846748814
5.487437963485718,0.09492772817611694,0.18390563130378723,-0.19170182943344116,1.6167948246002197,0.6695687174797058,0.4724605679512024,-0.25770375912913973,1.5650740683147253,2.8120283104547057
5.497536897659302,0.1370590329170227,0.2059727907180786,-0.19016611576080322,1.9625402688980103,0.6567099094390869,0.5288375020027161,-0.25260722495695553,1.5670098780553665,2.793530326553266
5.507518768310547,0.1690288782119751,0.21543532609939575,-0.17723405361175537,2.292783737182617,0.6477330327033997,0.5659736394882202,-0.24707759576681837,1.5680929758390705,2.771503479009439
5.517512798309326,0.17350757122039795,0.20870722830295563,-0.16167229413986206,2.508772373199463,0.599656343460083,0.5875470638275146,-0.24124247338614024,1.5683191460664365,2.7466681140931937
5.529018878936768,0.1542235016822815,0.19659455120563507,-0.12890875339508057,2.6345951557159424,0.5485728979110718,0.5699607729911804,-0.23536685240678398,1.567786144391006,2.7201203430560943
5.537731885910034,0.11595165729522705,0.16912606358528137,-0.09437376260757446,2.641472816467285,0.5130079984664917,0.5032917261123657,-0.22991250675447003,1.5667669695662934,2.692909589269626
5.547680854797363,0.05788087844848633,0.12979409098625183,-0.056253015995025635,2.5661861896514893,0.5087938904762268,0.42111602425575256,-0.22517706886088446,1.5657964135239917,2.6661346410996924
5.55754280090332,-0.005647063255310059,0.0873257964849472,-0.025484323501586914,2.468156576156616,0.5006938576698303,0.3503779470920563,-0.22120593154021892,1.5651055902085649,2.6403095074125758
5.567560911178589,-0.04807114601135254,0.060124948620796204,-0.0015110373497009277,2.396949529647827,0.4875473380088806,0.27119866013526917,-0.21794832122781868,1.5645765618994032,2.6153738168081557
5.578749895095825,-0.06286555528640747,0.05427597463130951,0.014577209949493408,2.3297202587127686,0.4779466390609741,0.1704869568347931,-0.21562523686412444,1.564152409051527,2.5911481607099827
5.587565898895264,-0.0769200325012207,0.03990936279296875,0.022745788097381592,2.246735095977783,0.4792904853820801,0.08863209933042526,-0.214181014263887,1.5638993848191114,2.5676715387776192
5.597944974899292,-0.08137547969818115,0.02405129373073578,0.02003955841064453,2.1308341026306152,0.4873124659061432,-0.001977963140234351,-0.2136075723432943,1.5639370027753965,2.5452071266129854
5.6076719760894775,-0.07405555248260498,0.02525751292705536,0.01275092363357544,2.009808301925659,0.49445441365242004,-0.0741257593035698,-0.21388784421656484,1.5643374271476707,2.5239984388189565
5.617647886276245,-0.055044710636138916,0.05575740337371826,0.005697846412658691,1.913219690322876,0.46806541085243225,-0.13067853450775146,-0.2148272986606987,1.5648550880612155,2.5038821383039456
5.62883996963501,-0.030874311923980713,0.08543719351291656,0.006864368915557861,1.8410121202468872,0.4154512882232666,-0.1428908258676529,-0.21612229478472206,1.5651588430020071,2.48463988664035
5.637649059295654,-0.00566631555557251,0.08599264919757843,0.02181476354598999,1.7834614515304565,0.3520459532737732,-0.15790173411369324,-0.21753783940880467,1.5649572312069755,2.4660531764165285
5.647690773010254,0.012519538402557373,0.06841586530208588,0.04319345951080322,1.7485251426696777,0.272227942943573,-0.16599391400814056,-0.21905255879285568,1.5641412230129754,2.4479314271644292
5.657728910446167,0.02378302812576294,0.059936001896858215,0.06177467107772827,1.7130136489868164,0.19060444831848145,-0.18315398693084717,-0.22069014023854075,1.562547719613021,2.430147798584485
5.667673110961914,0.026515603065490723,0.05503092706203461,0.07589423656463623,1.6676421165466309,0.10743477940559387,-0.1863587200641632,-0.22240217870485177,1.5601769091701536,2.412758001483281
5.678516864776611,0.02763187885284424,0.04411797225475311,0.08702456951141357,1.5933769941329956,0.03546817600727081,-0.19251728057861328,-0.22411072949169425,1.557129552026468,2.39596916252652
5.687684059143066,0.02140408754348755,0.031635016202926636,0.09055840969085693,1.4991211891174316,-0.013553561642765999,-0.19857816398143768,-0.22584948781326647,1.5536386581160624,2.3800408355878897
5.697645902633667,0.00519794225692749,0.018652915954589844,0.09141141176223755,1.3909380435943604,-0.038792602717876434,-0.2126644253730774,-0.2276471658385746,1.5499829537849872,2.365139365414767
5.7078468799591064,-0.01536250114440918,0.009425610303878784,0.09362196922302246,1.2858705520629883,-0.053412340581417084,-0.22657160460948944,-0.22955409955198885,1.546355122819228,2.351323264764236
5.717912912368774,-0.03688400983810425,0.005798652768135071,0.09685897827148438,1.18733811378479,-0.05881509184837341,-0.24428881704807281,-0.23160255914041372,1.542828198482308,2.3385411093728474
5.728717803955078,-0.05639368295669556,0.004280537366867065,0.0985192060470581,1.1006571054458618,-0.06019177287817001,-0.2578983008861542,-0.23378998323458866,1.539458608193025,2.3267069924332806
5.737870931625366,-0.07109630107879639,0.004942804574966431,0.10310948640108109,1.0269570350646973,-0.0507199726998806,-0.26599112153053284,-0.2360743654716268,1.5363035950239223,2.3156799110915554
5.747896909713745,-0.08215558528900146,0.0077821314334869385,0.10690051317214966,0.9728553891181946,-0.04210229218006134,-0.2637420892715454,-0.23838086856395463,1.533370382108977,2.3052900242942758
5.757788896560669,-0.08591479063034058,0.011850163340568542,0.1128988265991211,0.9435409307479858,-0.038223400712013245,-0.254998117685318,-0.24061749091735,1.530580971629359,2.295325196270241
5.767841815948486,-0.08292055130004883,0.01518300175666809,0.12142664194107056,0.9381833076477051,-0.04129065200686455,-0.23834602534770966,-0.24271672217585946,1.527808738214239,2.2855333106334994
5.778637886047363,-0.0770220160484314,0.017474889755249023,0.13329899311065674,0.9536634683609009,-0.049514759331941605,-0.2159791886806488,-0.24458463580652726,1.5249540900284053,2.275685890285578
5.7878289222717285,-0.07107186317443848,0.019267797470092773,0.14639168977737427,0.979576587677002,-0.05899636447429657,-0.18526773154735565,-0.24614975264355432,1.5219428235549877,2.2656216125313486
5.797897815704346,-0.06479519605636597,0.022536486387252808,0.15972304344177246,1.0118112564086914,-0.07260139286518097,-0.15106341242790222,-0.24734221325716518,1.5187342613017805,2.2552600445274593
5.807861804962158,-0.055023908615112305,0.023345813155174255,0.1734205037355423,1.0464204549789429,-0.08598710596561432,-0.11388037353754044,-0.24812853515303948,1.5152925454942952,2.2445695707652176
5.817924976348877,-0.04095941781997681,0.02114039659500122,0.18613284826278687,1.0783389806747437,-0.09627170115709305,-0.07288526743650436,-0.24846758062181754,1.5116435010962024,2.233555937794449
5.828993797302246,-0.027883410453796387,0.0197458416223526,0.198527991771698,1.0978797674179077,-0.09934409707784653,-0.03774741291999817,-0.24836357028935022,1.5078705490606477,2.222296060146179
5.837947845458984,-0.019650161266326904,0.020584195852279663,0.2082112431526184,1.1076405048370361,-0.09832464158535004,-0.005256847478449345,-0.2478607750577909,1.5040678330771449,2.210906078617732
5.848258018493652,-0.009007692337036133,0.021003395318984985,0.2160569429397583,1.104512095451355,-0.09447504580020905,0.026492347940802574,-0.24698773071806907,1.5002941558537939,2.199505397446972
5.857882976531982,-0.0002409815788269043,0.020444676280021667,0.22584038972854614,1.0931856632232666,-0.08738651126623154,0.04795795679092407,-0.24583309175968265,1.4966053566543458,2.188202160978441
5.867981910705566,0.004206180572509766,0.02164246141910553,0.2329566478729248,1.071671485900879,-0.07531315088272095,0.05947048217058182,-0.24447257005001796,1.4930761346692791,2.1770776219314563
5.878742933273315,0.006147563457489014,0.022313877940177917,0.23766964673995972,1.042851209640503,-0.06407381594181061,0.05991949141025543,-0.2430416869770716,1.4897467737982413,2.166242731145212
5.887989044189453,0.006638050079345703,0.024149775505065918,0.24349576234817505,1.0006529092788696,-0.05626910924911499,0.054072681814432144,-0.24162210868278633,1.4866242822992082,2.155782126332211
5.898036956787109,0.007147550582885742,0.02400512993335724,0.24877971410751343,0.9566583037376404,-0.04531606286764145,0.04128524661064148,-0.2403097391302371,1.4837140589573952,2.145760441126361
5.908009052276611,0.004643499851226807,0.025350287556648254,0.2544134855270386,0.9094937443733215,-0.04073001444339752,0.017570704221725464,-0.23919202906113193,1.4810067609082636,2.1361967576582352
5.9180989265441895,0.0007256865501403809,0.027219966053962708,0.2606794834136963,0.8608226180076599,-0.028051765635609627,-0.007235575933009386,-0.23833560123790168,1.4785082141693862,2.1271183218059404
5.9286980628967285,-0.002246558666229248,0.029680147767066956,0.26116204261779785,0.8121862411499023,-0.017758427187800407,-0.03882492706179619,-0.23779815250685615,1.4762395921691642,2.118512114520366
5.938030958175659,-0.005244910717010498,0.03254164755344391,0.2619844675064087,0.7668488621711731,-0.008861871436238289,-0.07228674739599228,-0.23760139925937046,1.4741795996149663,2.1103561274687297
5.948067903518677,-0.0035668015480041504,0.03255310654640198,0.2602043151855469,0.7249847650527954,0.004101686645299196,-0.10490380972623825,-0.23776233300510877,1.4723248077450362,2.102621678854294
5.958150863647461,-0.0027388930320739746,0.032471850514411926,0.2566145062446594,0.6777831315994263,0.018169568851590157,-0.13730250298976898,-0.23828558336265118,1.4707068336193352,2.0952998555602766
5.968127965927124,-0.005788922309875488,0.03067980706691742,0.256287157535553,0.6317269206047058,0.03452173247933388,-0.16735444962978363,-0.23915631669895218,1.4693509018782562,2.088435015876648
5.978707790374756,-0.007020294666290283,0.02905893325805664,0.25741052627563477,0.5868081450462341,0.05552448332309723,-0.19169041514396667,-0.2403379180013178,1.4682693969874843,2.0819962460462764
5.988124847412109,-0.007651209831237793,0.02736067771911621,0.258781373500824,0.5476633310317993,0.0770285353064537,-0.21315668523311615,-0.24178820874338217,1.4674926513690947,2.075971082747809
5.998291969299316,-0.005776345729827881,0.023382708430290222,0.2585548758506775,0.5039781928062439,0.09933171421289444,-0.2375941127538681,-0.24349692234474324,1.4670195458186956,2.0703346878877027
6.00818395614624,-0.007403194904327393,0.02081507444381714,0.2551378607749939,0.46602165699005127,0.1351117640733719,-0.25229066610336304,-0.24545123966968724,1.4669361136202084,2.065102339514203
6.018193960189819,-0.005412578582763672,0.017832130193710327,0.25295186042785645,0.43574362993240356,0.1646624654531479,-0.26277631521224976,-0.24755167244965615,1.46723327616676,2.060202983326076
6.028678894042969,-0.0023232698440551758,0.016230463981628418,0.24995923042297363,0.4233112633228302,0.19907471537590027,-0.27272260189056396,-0.2497866278966485,1.4679045308816392,2.0555104888099915
