timestamp,accel_x,accel_y,accel_z,rotation_x,rotation_y,rotation_z, pitch,roll,yaw
0.04302406311035156,0.0017098188400268555,0.02039015293121338,-0.0008900724351406097,-0.18460893630981445,-0.02936221845448017,-0.02858179435133934,-0.24968259980270585,1.515848067465706,0.2364541186035589
0.05095100402832031,0.0007987618446350098,0.01753877103328705,0.0010255016386508942,-0.17628416419029236,-0.026552053168416023,-0.03849594295024872,-0.2501057197474145,1.5160070886594015,0.2382930634035396
0.06348896026611328,0.002086937427520752,0.015445902943611145,0.002624101936817169,-0.16698551177978516,-0.02630886249244213,-0.044071804732084274,-0.2505964407069971,1.5161616415295829,0.24003422289599022
0.07241582870483398,0.0020186305046081543,0.014329269528388977,0.0038254857063293457,-0.1609814167022705,-0.02636505477130413,-0.05182959511876106,-0.25115061437924796,1.5163000435689353,0.24168990285631803
0.07946109771728516,0.002321958541870117,0.012954756617546082,0.0027902722358703613,-0.1538582295179367,-0.027487576007843018,-0.05776705592870712,-0.2517820480215094,1.516415001924717,0.24327446896153312
0.08441305160522461,0.003768026828765869,0.008837193250656128,0.004098657518625259,-0.15608195960521698,-0.02882661297917366,-0.0682804137468338,-0.25311910016338507,1.5158635125369646,0.2446745517824253
0.0923309326171875,0.003676295280456543,0.005951911211013794,0.00446576252579689,-0.1591833531856537,-0.029207754880189896,-0.07296817004680634,-0.2544604260606192,1.5155908340430833,0.24616429493473274
0.1022939682006836,0.0029056668281555176,-0.0012649893760681152,0.005064904689788818,-0.16405721008777618,-0.028963543474674225,-0.07691896706819534,-0.25584763728299365,1.5154244561661245,0.24771948742447614
0.11241579055786133,0.0043378472328186035,-0.005592048168182373,0.0071680620312690735,-0.16616490483283997,-0.027439327910542488,-0.08067753911018372,-0.25719760717423096,1.5152968980470154,0.2493142689096826
0.1237950325012207,0.005570471286773682,-0.007774293422698975,0.008266396820545197,-0.1630343645811081,-0.026721341535449028,-0.0832299068570137,-0.25841293380550734,1.5154374661148708,0.25096822638697464
0.13243484497070312,0.005068600177764893,-0.010260045528411865,0.0077133215963840485,-0.1533910632133484,-0.023283377289772034,-0.08251772820949554,-0.2595006189628938,1.515757401246283,0.2525993635898439
0.14318609237670898,0.003930389881134033,-0.013224363327026367,0.006852693855762482,-0.14390994608402252,-0.01898609846830368,-0.08018586784601212,-0.26049959536321826,1.5161603250484044,0.2541514815093495
0.15244293212890625,0.004122674465179443,-0.014482170343399048,0.007360100746154785,-0.1376512199640274,-0.014047489501535892,-0.07861316204071045,-0.2614382674706691,1.5165222743877855,0.25560485066589206
0.16245508193969727,0.0032370686531066895,-0.016078948974609375,0.00635027140378952,-0.1305522918701172,-0.007737928070127964,-0.07708876579999924,-0.26223838848221964,1.5169881374187097,0.2570072644560844
0.17395687103271484,0.0026160478591918945,-0.019602835178375244,0.007290065288543701,-0.12321513891220093,0.001716870116069913,-0.07372141629457474,-0.2629484338214807,1.5175065569330755,0.25833504133149204
0.18291687965393066,0.0025159120559692383,-0.02174997329711914,0.004694215953350067,-0.11726617068052292,0.008221907541155815,-0.06889283657073975,-0.26344967908925354,1.51813431039418,0.259607008144353
0.19262409210205078,-6.949901580810547e-05,-0.02294820547103882,0.002478659152984619,-0.10992744565010071,0.012769032269716263,-0.06576815247535706,-0.2638056846403694,1.5188920844545963,0.26083437112504065
0.2028970718383789,0.0009596347808837891,-0.023872166872024536,0.0006014779210090637,-0.09957068413496017,0.01476693619042635,-0.06313162297010422,-0.2640988885979363,1.5196797370822597,0.2619819596641513
0.21279001235961914,0.0020040273666381836,-0.026329457759857178,-0.0006097555160522461,-0.09364558756351471,0.01796734519302845,-0.05836184695363045,-0.26432087579524816,1.5204107535592837,0.2630371926114246
0.2237868309020996,0.0010188817977905273,-0.02873218059539795,-0.0007998943328857422,-0.09172731637954712,0.016781440004706383,-0.05355510488152504,-0.2644704863734971,1.5210808156449316,0.26403622022029144
0.23259496688842773,0.0008118152618408203,-0.028407543897628784,-0.0026921629905700684,-0.09140295535326004,0.019718240946531296,-0.04479319974780083,-0.26456099958830676,1.5217603510556397,0.26502822396401987
0.24266576766967773,0.003257155418395996,-0.03101259469985962,-0.006533440202474594,-0.09147991985082626,0.020445549860596657,-0.03981628641486168,-0.2645724332269017,1.5223892531753942,0.2660037500129141
0.2526679039001465,0.005193829536437988,-0.0314047634601593,-0.008876919746398926,-0.08703235536813736,0.023138849064707756,-0.030830034986138344,-0.26445705401346997,1.523080512708627,0.26697330004312503
0.2628209590911865,0.0047081708908081055,-0.03072372078895569,-0.012987073510885239,-0.08509783446788788,0.021093275398015976,-0.027303475886583328,-0.26427314528121304,1.5236425099837483,0.2678752518215531
0.2736668586730957,0.0077340006828308105,-0.031053811311721802,-0.015515569597482681,-0.08729877322912216,0.020922478288412094,-0.026383940130472183,-0.26407769809179515,1.5240992940099105,0.2687541059317236
0.28269195556640625,0.009149551391601562,-0.032607704401016235,-0.01636933907866478,-0.09841746836900711,0.020455092191696167,-0.027529632672667503,-0.2639011766166869,1.5245121673113373,0.2696919278253142
0.2927398681640625,0.009132683277130127,-0.035431355237960815,-0.016123827546834946,-0.11256055533885956,0.017125964164733887,-0.03288961946964264,-0.2637281179438734,1.5249084883598936,0.2707437850948257
0.30353784561157227,0.00854426622390747,-0.03631949424743652,-0.020426210016012192,-0.13256701827049255,0.01353655569255352,-0.03903139755129814,-0.26358911736871304,1.5253209452527876,0.2719742708645751
0.3129000663757324,0.005833446979522705,-0.03739705681800842,-0.024505075067281723,-0.15434767305850983,0.0054812924936413765,-0.04482137784361839,-0.26355150439782454,1.525674383008695,0.27340679413414143
0.32390499114990234,0.006329953670501709,-0.03880566358566284,-0.022141452878713608,-0.17559677362442017,-0.005555645562708378,-0.05255493149161339,-0.26355646905516594,1.5258657232027866,0.2750249807792519
0.33301687240600586,0.010802865028381348,-0.040634334087371826,-0.020720839500427246,-0.19398781657218933,-0.01844547688961029,-0.05935259908437729,-0.2636330517530877,1.5259264601579046,0.27682952613115624
0.34269189834594727,0.013923466205596924,-0.0418681800365448,-0.022233422845602036,-0.21379826962947845,-0.026287421584129333,-0.06617934256792068,-0.2638204902243121,1.5258154787350076,0.27880892492698106
0.35302209854125977,0.014438927173614502,-0.04455345869064331,-0.023269176483154297,-0.2328309863805771,-0.030374664813280106,-0.07373329997062683,-0.2640731444666482,1.5256522677473179,0.28097207793247614
0.36290884017944336,0.015217423439025879,-0.047561198472976685,-0.022344470024108887,-0.25409314036369324,-0.030232183635234833,-0.07418256998062134,-0.2643436804134099,1.5255128318508553,0.28333847256598377
0.37413787841796875,0.017216801643371582,-0.053780317306518555,-0.020959198474884033,-0.27438098192214966,-0.028630603104829788,-0.07403827458620071,-0.2645741091612768,1.5254817983771827,0.2859296349050603
0.38324403762817383,0.01510244607925415,-0.05637291073799133,-0.019641458988189697,-0.28369298577308655,-0.024116013199090958,-0.0651012435555458,-0.26476238233200355,1.5254104463124598,0.2886500807331424
0.39285802841186523,0.013234436511993408,-0.058735281229019165,-0.0180397629737854,-0.2866227328777313,-0.025528067722916603,-0.05766655132174492,-0.26488600153130465,1.5252511829500748,0.2914054643978626
0.40283203125,0.013671636581420898,-0.06292864680290222,-0.019589126110076904,-0.28694045543670654,-0.02430327981710434,-0.049768947064876556,-0.2649147263634592,1.525196060672977,0.2941971517331179
0.41289496421813965,0.015089750289916992,-0.06708800792694092,-0.01968008279800415,-0.29120737314224243,-0.02620694786310196,-0.03763531520962715,-0.2647975318626921,1.5252127181707287,0.297030090900367
0.4238278865814209,0.015739738941192627,-0.07196405529975891,-0.0170978344976902,-0.29869139194488525,-0.027685537934303284,-0.02318420447409153,-0.26453763058130536,1.5251964223572763,0.299930612528401
0.4328598976135254,0.01663792133331299,-0.08007097244262695,-0.01633376255631447,-0.30745434761047363,-0.028071962296962738,-0.010146434418857098,-0.26411547061613533,1.5251688660364056,0.30291735809768444
0.44280004501342773,0.01763176918029785,-0.08436352014541626,-0.013874292373657227,-0.3146246373653412,-0.0361970029771328,0.003299066796898842,-0.26353563489013054,1.5251572672146372,0.3060061933706172
0.45305395126342773,0.01790684461593628,-0.08858463168144226,-0.01368158683180809,-0.3219183683395386,-0.04300852492451668,0.013444964773952961,-0.2627712969300114,1.525140884491121,0.30917450743717734
0.46334290504455566,0.02067863941192627,-0.09057733416557312,-0.014018889516592026,-0.3329193592071533,-0.04658834636211395,0.01587802916765213,-0.2620538956536591,1.525198824179458,0.3124681606182852
0.4734048843383789,0.01810508966445923,-0.09329995512962341,-0.01188695803284645,-0.34844109416007996,-0.048589445650577545,0.020156024023890495,-0.2620291528006243,1.5256305329290527,0.31599106362881046
0.4828178882598877,0.011342823505401611,-0.0953148901462555,-0.011759281158447266,-0.36618706583976746,-0.04648527875542641,0.02029610611498356,-0.261982528960296,1.5261155426478223,0.31970286400931874
0.49294090270996094,0.006685018539428711,-0.09713524580001831,-0.00979834794998169,-0.37841105461120605,-0.04549911245703697,0.02040412463247776,-0.26193984807927595,1.526661405427112,0.3235652692272314
0.502924919128418,0.005075931549072266,-0.0980176329612732,-0.008507844060659409,-0.38570570945739746,-0.04495449364185333,0.022780729457736015,-0.26188970686626456,1.5272379726645977,0.32753044902045597
0.5131049156188965,0.005570471286773682,-0.09884601831436157,-0.00867372378706932,-0.3888593912124634,-0.045359160751104355,0.021492771804332733,-0.26183109945974703,1.5278217182918674,0.3315566758764977
0.523493766784668,0.00693434476852417,-0.0960700511932373,-0.009889300912618637,-0.3940261900424957,-0.04730566591024399,0.023860586807131767,-0.26176906402810274,1.5284020838651788,0.33561221523861845
0.5330047607421875,0.006149590015411377,-0.09717938303947449,-0.0122181735932827,-0.4064139723777771,-0.051037419587373734,0.02068237029016018,-0.2617169495002604,1.528981795914378,0.3397607563741738
0.543889045715332,0.006073117256164551,-0.09861341118812561,-0.012301024049520493,-0.42861273884773254,-0.05823727697134018,0.020045077428221703,-0.2616850455676678,1.5295422686151383,0.34409067376677627
0.5529417991638184,0.004234373569488525,-0.1007947325706482,-0.010246392339468002,-0.4606994092464447,-0.06371922045946121,0.01505559217184782,-0.2616843530638863,1.5301169705059274,0.3486996760506749
0.563072919845581,0.0008095502853393555,-0.1037207841873169,-0.005912899971008301,-0.4876234233379364,-0.07584752142429352,0.01026349887251854,-0.26174379615006954,1.530685420593268,0.3536202898629725
0.573357105255127,-0.0008938312530517578,-0.10286545753479004,-0.0029934048652648926,-0.5163534283638,-0.07857503741979599,0.018241744488477707,-0.2617903168727892,1.5312488388704206,0.35882292221006623
0.5829930305480957,-0.004699528217315674,-0.10493406653404236,-0.001833498477935791,-0.5353795289993286,-0.07664716988801956,0.021187201142311096,-0.2617993203749617,1.5318808831652297,0.3642819913637867
0.5931499004364014,-0.008191287517547607,-0.09923246502876282,-0.00046164169907569885,-0.5379015803337097,-0.07892906665802002,0.03304998204112053,-0.2617257306938527,1.5325312969874576,0.3698547203958103
0.6030550003051758,-0.005814194679260254,-0.09684821963310242,-0.0018767118453979492,-0.5435535907745361,-0.07117686420679092,0.0482875257730484,-0.2615163227014232,1.5332247666997094,0.3754646752853184
0.6133279800415039,-0.003709554672241211,-0.09736713767051697,-0.0035648979246616364,-0.5537212491035461,-0.056600719690322876,0.06498618423938751,-0.2611531942246071,1.5340446027258838,0.38117246232416196
0.6253829002380371,-0.007507979869842529,-0.09300243854522705,-0.0030549727380275726,-0.5617144703865051,-0.04219461604952812,0.08718709647655487,-0.26058388379497216,1.535054912889883,0.3869753525070128
0.633126974105835,-0.006018579006195068,-0.08710798621177673,-0.0022256411612033844,-0.5627150535583496,-0.03129500895738602,0.10239694267511368,-0.25982127457027027,1.536194118068233,0.392834731467194
0.6430549621582031,-0.00012946128845214844,-0.07962930202484131,-0.003798786550760269,-0.5584153532981873,-0.021604564040899277,0.11633273214101791,-0.25890370189268813,1.5374201975548998,0.39867067511559473
0.6531620025634766,-0.0004698038101196289,-0.07466310262680054,-0.006534397602081299,-0.5558200478553772,-0.009181451052427292,0.12802234292030334,-0.25785467165821274,1.5387443986441618,0.40448101876316234
0.6632158756256104,-0.0019071102142333984,-0.06571036577224731,-0.010547757148742676,-0.5532397031784058,-0.0017368504777550697,0.13690772652626038,-0.2566914320324341,1.540159230840658,0.4102584315306431
0.673346996307373,-0.0013791322708129883,-0.054848045110702515,-0.012554584071040154,-0.5431511998176575,0.004009719006717205,0.14426694810390472,-0.2554473261497116,1.5416131668921724,0.41597639294702743
0.6833178997039795,0.0007972121238708496,-0.0472278892993927,-0.015482250601053238,-0.5333230495452881,0.008592752739787102,0.1473548859357834,-0.25413242530678387,1.543087797961409,0.42158764674990873
0.6933488845825195,-0.0014684796333312988,-0.03942000865936279,-0.019602475687861443,-0.5201257467269897,0.012851990759372711,0.14741891622543335,-0.2527973351315881,1.5445797432897148,0.42707811118384553
0.7033967971801758,-0.0023258328437805176,-0.030147597193717957,-0.025552570819854736,-0.508294939994812,0.014764939434826374,0.14390486478805542,-0.25146310432837804,1.5460534870165186,0.4324308942532067
0.7134239673614502,-0.0012167692184448242,-0.02215920388698578,-0.031704485416412354,-0.5021877884864807,0.012682657688856125,0.13812384009361267,-0.2501631498072076,1.547482249587365,0.43768291367744777
0.7243947982788086,-5.7578086853027344e-05,-0.016886502504348755,-0.034658968448638916,-0.509264349937439,0.009803248569369316,0.1296485960483551,-0.2489262444643595,1.5488852720564252,0.4429233833225484
0.7333998680114746,-0.00018024444580078125,-0.012695208191871643,-0.03941410779953003,-0.5222682356834412,0.004453712143003941,0.11849670857191086,-0.24779789535968985,1.550271185254894,0.4482622886202673
0.7434368133544922,0.0053942203521728516,-0.012142598628997803,-0.04240638017654419,-0.5470321774482727,-0.0016284151934087276,0.09954804927110672,-0.24680304382213097,1.5516314699319917,0.45379243583861084
0.7534089088439941,0.01016777753829956,-0.009227573871612549,-0.04402148723602295,-0.5721919536590576,-0.012566860765218735,0.07667442411184311,-0.246015687114238,1.5529703653195683,0.4595792459826542
0.7635259628295898,0.013082504272460938,-0.0065839290618896484,-0.04572927951812744,-0.6007500886917114,-0.025021933019161224,0.05052484944462776,-0.24547681121594966,1.554245890773893,0.4656374742033337
0.7733609676361084,0.015061438083648682,-0.005741879343986511,-0.04816389083862305,-0.6296588778495789,-0.03626894950866699,0.017387667670845985,-0.24522222947266006,1.5554826831314277,0.471994805038096
0.7832789421081543,0.016323447227478027,-0.004326581954956055,-0.04780316352844238,-0.6538845896720886,-0.04708324745297432,-0.00918189063668251,-0.24527331434617095,1.5566680002420539,0.47862315195774824
0.7934138774871826,0.01746952533721924,-0.0038129091262817383,-0.048479437828063965,-0.6734980940818787,-0.05781560763716698,-0.039082106202840805,-0.24559316018868085,1.5578046552561131,0.48547861885597293
0.8034977912902832,0.016998708248138428,-0.001537710428237915,-0.049510061740875244,-0.6841850876808167,-0.06382130086421967,-0.05778468772768974,-0.24615786151235,1.558896985534335,0.4924838474266357
0.8134407997131348,0.014986813068389893,-0.0011305510997772217,-0.04836970567703247,-0.6870699524879456,-0.07079821079969406,-0.07696440070867538,-0.24690236377687985,1.559937613375959,0.4995531158242758
0.8233819007873535,0.013346970081329346,-0.0026896297931671143,-0.051263272762298584,-0.6827460527420044,-0.07282327860593796,-0.08573951572179794,-0.24778644347775894,1.5609367500762987,0.5066138419723233
0.8335237503051758,0.009358465671539307,-0.004856199026107788,-0.05498617887496948,-0.6789748668670654,-0.06795115768909454,-0.09112980216741562,-0.24873074909133763,1.56194177175635,0.5136325819708919
0.8435850143432617,0.003500998020172119,-0.006864264607429504,-0.05685526132583618,-0.6750123500823975,-0.06509838253259659,-0.09118440002202988,-0.24970062826937928,1.5629866659107121,0.5206191345499661
0.8535480499267578,-0.0019834041595458984,-0.00867985188961029,-0.057621002197265625,-0.6691774725914001,-0.06236974522471428,-0.08679252862930298,-0.2506296660023159,1.5640588080201059,0.5275542403326172
0.8637099266052246,-0.0030673742294311523,-0.010603681206703186,-0.05811476707458496,-0.6647654175758362,-0.061221394687891006,-0.08320552110671997,-0.25151304462056656,1.5651342942746407,0.5344401829120916
0.8738579750061035,-0.003079354763031006,-0.01209460198879242,-0.058361828327178955,-0.6610791087150574,-0.06021125987172127,-0.07757283002138138,-0.2523435343694888,1.5662234012251535,0.5412829462483346
0.8835959434509277,-0.00031125545501708984,-0.013790726661682129,-0.057955384254455566,-0.6598913669586182,-0.06126001104712486,-0.07124382257461548,-0.2531182472266183,1.567315714539745,0.5481113103390148
0.8936059474945068,0.0075272321701049805,-0.012248605489730835,-0.05894315242767334,-0.6614300012588501,-0.06511165201663971,-0.06956470012664795,-0.2538423317138064,1.568382859921838,0.5549414751746896
0.9036948680877686,0.014326751232147217,-0.011534035205841064,-0.05966591835021973,-0.6653549671173096,-0.06609595566987991,-0.0709623321890831,-0.2545544106182396,1.5694445724657835,0.5617925874926617
0.9135739803314209,0.018327414989471436,-0.01247987151145935,-0.06020855903625488,-0.6671083569526672,-0.07223249971866608,-0.07597359269857407,-0.25529527773087596,1.5704781979696258,0.5686825978385583
0.9236109256744385,0.021918654441833496,-0.012038171291351318,-0.061516523361206055,-0.6717025637626648,-0.07563415169715881,-0.08739881962537766,-0.2561005143322359,1.5714832388276627,0.5756135624720546
0.9335029125213623,0.021771252155303955,-0.011354535818099976,-0.06501436233520508,-0.675786018371582,-0.08033116906881332,-0.09963423758745193,-0.25701856056598926,1.5724651735402722,0.5825852757052326
0.9435300827026367,0.016671180725097656,-0.009827345609664917,-0.06508302688598633,-0.6797016859054565,-0.08332403004169464,-0.11468829214572906,-0.2580744499229811,1.5734204503232407,0.5895981054285602
0.9534668922424316,0.012540340423583984,-0.01167348027229309,-0.06436431407928467,-0.682059109210968,-0.08848883211612701,-0.12904608249664307,-0.2592738036011089,1.574351063197901,0.5966474102262466
0.9635710716247559,0.00946664810180664,-0.014801442623138428,-0.06524479389190674,-0.6784928441047668,-0.09425857663154602,-0.1402534693479538,-0.26059996714685907,1.575232033207767,0.6036957789938588
0.9736337661743164,0.007732033729553223,-0.017029136419296265,-0.06523919105529785,-0.6742096543312073,-0.09698618203401566,-0.15101173520088196,-0.2620214823736063,1.5760652074764914,0.6107198516828395
0.9835910797119141,0.006686210632324219,-0.01935797929763794,-0.06611788272857666,-0.6634108424186707,-0.10554824769496918,-0.1535414606332779,-0.2635008510377881,1.576835212464774,0.617660821746469
0.9937009811401367,0.00787353515625,-0.022904247045516968,-0.06896686553955078,-0.649610698223114,-0.11152561753988266,-0.15424145758152008,-0.26499318734853017,1.5774971915924652,0.624479120686707
1.0037059783935547,0.009840607643127441,-0.026631534099578857,-0.06961941719055176,-0.6386775970458984,-0.1169976145029068,-0.15285181999206543,-0.26648393413649024,1.5780813322767961,0.6311598916317968
1.013679027557373,0.00680232048034668,-0.02931162714958191,-0.0704953670501709,-0.6333791613578796,-0.12390461564064026,-0.1529170572757721,-0.2679654530828127,1.5785970909466187,0.6377766976499732
1.0236029624938965,0.002472817897796631,-0.032606303691864014,-0.0728905200958252,-0.6332087516784668,-0.13077929615974426,-0.148495152592659,-0.2694044194113097,1.5790430130553605,0.6443472101022364
1.0336508750915527,-0.006259441375732422,-0.038977742195129395,-0.07077491283416748,-0.6295503973960876,-0.13664984703063965,-0.14170105755329132,-0.27080653391942666,1.5794318259062667,0.6509123314239035
1.043694019317627,-0.016360163688659668,-0.042459696531295776,-0.06971049308776855,-0.6216205954551697,-0.14925192296504974,-0.13041219115257263,-0.27210837449839914,1.5797238990028546,0.6574354507071044
1.0536949634552002,-0.023103177547454834,-0.04058539867401123,-0.06975185871124268,-0.6066721081733704,-0.16522032022476196,-0.11740146577358246,-0.2732993479462444,1.5798491511529142,0.6638323025637359
1.0637998580932617,-0.02964162826538086,-0.04038628935813904,-0.07041347026824951,-0.594063401222229,-0.17953960597515106,-0.10342386364936829,-0.27434463972876916,1.5797940322429889,0.6700757680974829
1.0736749172210693,-0.04110610485076904,-0.042400509119033813,-0.07150411605834961,-0.5852034687995911,-0.1923527866601944,-0.08531026542186737,-0.27523246211920327,1.5795819009699201,0.6762090097155605
1.083745002746582,-0.05300736427307129,-0.04427388310432434,-0.0712360143661499,-0.5849658846855164,-0.2054070681333542,-0.07398837059736252,-0.2759741510497411,1.5792257435659816,0.6822889959781189
1.093885898590088,-0.06529945135116577,-0.04443660378456116,-0.07333266735076904,-0.5902222394943237,-0.21893201768398285,-0.05744236335158348,-0.27657146931146287,1.5787419068253912,0.6884006749664727
1.1037750244140625,-0.08229970932006836,-0.04904019832611084,-0.07257628440856934,-0.5979909300804138,-0.2294728010892868,-0.04372282326221466,-0.27702673208924233,1.5781627678842443,0.6945885519834484
1.1138179302215576,-0.10037660598754883,-0.0507148802280426,-0.07232272624969482,-0.5989458560943604,-0.24507471919059753,-0.026545275002717972,-0.2773401476088794,1.5774714359965039,0.7008301825589842
1.124176025390625,-0.11124926805496216,-0.04739287495613098,-0.07081747055053711,-0.5817862749099731,-0.2614166736602783,0.0011931456392630935,-0.27743990248795514,1.576604619758231,0.7069839699171742
1.1338529586791992,-0.11113548278808594,-0.03860926628112793,-0.06709897518157959,-0.5451969504356384,-0.2837682366371155,0.04128410667181015,-0.27720761277659123,1.5754667939910179,0.7128519309336843
1.1439428329467773,-0.09229707717895508,-0.028662145137786865,-0.061977267265319824,-0.4945734143257141,-0.30885761976242065,0.10194132477045059,-0.27647954953482745,1.573964444506263,0.7182659328139908
1.1538968086242676,-0.05300420522689819,-0.017949819564819336,-0.05753529071807861,-0.4394274950027466,-0.33526188135147095,0.1724153310060501,-0.2750992368491826,1.5720430575632611,0.723132107942707
1.1640868186950684,-0.00318300724029541,-0.007438927888870239,-0.0480690598487854,-0.41184353828430176,-0.36242371797561646,0.2514643371105194,-0.2729620126053803,1.5697228769004985,0.7275314966046169
1.1743888854980469,0.05273085832595825,-0.0020117461681365967,-0.039326250553131104,-0.42397069931030273,-0.39014214277267456,0.3174435794353485,-0.27011608695924283,1.5670959632681778,0.731844146427793
1.184034824371338,0.1105392575263977,-6.109476089477539e-05,-0.02587658166885376,-0.48972415924072266,-0.41048896312713623,0.3659416139125824,-0.2667003201440858,1.5643084550616304,0.7365717393941549
1.1941018104553223,0.1518673300743103,-0.004254698753356934,-0.007223607040941715,-0.5973257422447205,-0.4163745045661926,0.3967093229293823,-0.26291915530933185,1.5616217805351353,0.7422237101204855
1.204084873199463,0.17032325267791748,-0.01019144058227539,0.0075396886095404625,-0.7479972839355469,-0.44204604625701904,0.37541070580482483,-0.25906663568036986,1.55909701341486,0.7491953452236492
1.2140288352966309,0.16999351978302002,-0.0023842453956604004,0.022452114149928093,-0.935457170009613,-0.45891237258911133,0.3251939117908478,-0.2556797344895742,1.5567841230538102,0.7579358703098462
1.224423885345459,0.15253007411956787,0.0013169944286346436,0.041355788707733154,-1.1261229515075684,-0.4714689254760742,0.2514219284057617,-0.2529275474098854,1.554794389628412,0.7686357932463765
1.234057903289795,0.11586618423461914,0.002349957823753357,0.05626702308654785,-1.2984877824783325,-0.4728934168815613,0.16305384039878845,-0.2510573476215847,1.5531601310342453,0.7812205237764192
1.2441129684448242,0.07604336738586426,0.013163283467292786,0.06606549024581909,-1.40038001537323,-0.45912620425224304,0.07301343232393265,-0.25011759619613927,1.551917587903923,0.7952269263298659
1.2540779113769531,0.03900587558746338,0.03805001080036163,0.06482726335525513,-1.4207868576049805,-0.4574441611766815,-0.009936311282217503,-0.25008644308608524,1.550927712519313,0.8098602895344125
1.264380931854248,0.008674025535583496,0.06145578622817993,0.057775676250457764,-1.3474050760269165,-0.45706331729888916,-0.07525885850191116,-0.25081220974787916,1.5498547916017518,0.8241859580091286
1.274521827697754,-0.00709986686706543,0.08090043067932129,0.052191197872161865,-1.2227972745895386,-0.4495913088321686,-0.11568441987037659,-0.25206744555362864,1.5485554257039458,0.8374570403989878
1.2840759754180908,-0.023878276348114014,0.09187009930610657,0.04273766279220581,-1.0953913927078247,-0.4190903902053833,-0.13741980493068695,-0.25361338434276715,1.547136138069001,0.8493875367217968
1.294137954711914,-0.044194579124450684,0.09674569964408875,0.035042643547058105,-0.9524210691452026,-0.38962018489837646,-0.13256826996803284,-0.2552132202902109,1.5457270802673775,0.8599386924484133
1.304110050201416,-0.053182363510131836,0.09262272715568542,0.02836775779724121,-0.8118247985839844,-0.3729426860809326,-0.12664060294628143,-0.2567463786660139,1.5441775181380666,0.8690183928829136
1.3140978813171387,-0.051881492137908936,0.0816921591758728,0.02894151583313942,-0.6878799796104431,-0.35544395446777344,-0.10939280688762665,-0.2581403207024414,1.5424531658157161,0.8767180785489994
1.3243470191955566,-0.0506211519241333,0.07064184546470642,0.0302392840385437,-0.6027397513389587,-0.34884998202323914,-0.08954879641532898,-0.2593430149748675,1.5405954825422454,0.8833432470594028
1.3341670036315918,-0.04868417978286743,0.060840874910354614,0.033656299114227295,-0.5574992299079895,-0.3473930358886719,-0.06277657300233841,-0.2602953116579167,1.5386140412234977,0.8892962442312469
1.3448829650878906,-0.038796424865722656,0.04529458284378052,0.039951443672180176,-0.550964891910553,-0.3485214114189148,-0.03585440665483475,-0.2609876795551645,1.5365607740257365,0.8949829947175658
1.3541851043701172,-0.029273927211761475,0.027118325233459473,0.04486793652176857,-0.5799291729927063,-0.350856214761734,-0.013017002493143082,-0.2614330485551366,1.534530313490815,0.900804736815039
1.3642759323120117,-0.023234665393829346,0.014747291803359985,0.04602324962615967,-0.6329732537269592,-0.35360008478164673,0.008449940010905266,-0.2616818466050643,1.5325881245090796,0.907068193962569
1.3745417594909668,-0.013462305068969727,0.005866885185241699,0.045971810817718506,-0.7016701698303223,-0.3642762303352356,0.02138049155473709,-0.26179219302281037,1.5307431628580053,0.9139687744874774
1.3842058181762695,-0.007080495357513428,-4.112720489501953e-06,0.04851895570755005,-0.7836167216300964,-0.37498775124549866,0.030197683721780777,-0.2618358199086598,1.529004691806677,0.9216588915758326
1.3945770263671875,-0.0023719072341918945,-0.003720223903656006,0.05185067653656006,-0.8742807507514954,-0.3869338631629944,0.026214875280857086,-0.26190751584011424,1.5273855787248454,0.9302515404985633
1.4042258262634277,-0.001040041446685791,-0.006550610065460205,0.05772721767425537,-0.9686884880065918,-0.4005870819091797,0.019777482375502586,-0.2620890727454578,1.5258791555584146,0.9397942945838195
1.4141740798950195,0.0007254481315612793,-0.007257968187332153,0.061554308980703354,-1.059446930885315,-0.4116758108139038,0.007478099316358566,-0.26242655092293193,1.524502085825038,0.9502917560638282
1.424475908279419,-0.0008574128150939941,-0.006206929683685303,0.06587475538253784,-1.138029932975769,-0.41846659779548645,-0.005530643742531538,-0.26293397688436904,1.523275376060854,0.9616768009618669
1.4342470169067383,-0.006017744541168213,-0.005153656005859375,0.06828391551971436,-1.1975046396255493,-0.41805893182754517,-0.017821025103330612,-0.2636131177226115,1.5222082906935988,0.9737878316529361
1.4443519115447998,-0.0101243257522583,-0.0042555928230285645,0.07092534750699997,-1.2380774021148682,-0.41187718510627747,-0.024110080674290657,-0.2644373900530154,1.5213094362842865,0.9863875231329982
1.4542551040649414,-0.017577171325683594,-0.0014188289642333984,0.07296139001846313,-1.2632763385772705,-0.39269623160362244,-0.029399758204817772,-0.26533995107061714,1.5206413226352027,0.999334637629147
1.4641308784484863,-0.02465575933456421,0.004695326089859009,0.07171844691038132,-1.2638925313949585,-0.37926962971687317,-0.03480171412229538,-0.26630942851465605,1.5201918817189077,1.0124367314710783
1.4741129875183105,-0.029963016510009766,0.005902767181396484,0.07276731729507446,-1.2511736154556274,-0.352085143327713,-0.026896120980381966,-0.26725644121572845,1.5199294485651873,1.0254636935474135
1.4840960502624512,-0.04021894931793213,0.0036225318908691406,0.07443684339523315,-1.2234277725219727,-0.31846195459365845,-0.017460808157920837,-0.2681177860849608,1.519942580835225,1.0382914373730845
1.4941320419311523,-0.05178654193878174,0.008370757102966309,0.07015549391508102,-1.1705093383789062,-0.2812812924385071,0.005519344471395016,-0.2687954794174535,1.520211709005513,1.0507097555716551
1.5044398307800293,-0.06151765584945679,0.013197243213653564,0.06353545188903809,-1.0982396602630615,-0.2428920865058899,0.03241700306534767,-0.2691862317560164,1.520695230394673,1.0624900495795822
1.5141067504882812,-0.06856012344360352,0.017236381769180298,0.05542523041367531,-1.0180233716964722,-0.20180164277553558,0.06739576160907745,-0.2692224904776881,1.5213843432883198,1.0734948204806083
1.5244269371032715,-0.07453650236129761,0.018752247095108032,0.04913163185119629,-0.9393728375434875,-0.16094519197940826,0.11204983294010162,-0.26882136825875824,1.5222526958552318,1.0836785946724332
1.5342278480529785,-0.07560259103775024,0.02046060562133789,0.041604042053222656,-0.8660179376602173,-0.12242807447910309,0.15823186933994293,-0.2679199808246712,1.5233154590980758,1.0931072666479247
1.544503927230835,-0.07265740633010864,0.019336968660354614,0.033632997423410416,-0.8038317561149597,-0.0819176658987999,0.2126019150018692,-0.2664587616240748,1.5245757655701848,1.1018408822946046
1.5541977882385254,-0.0719672441482544,0.018539994955062866,0.02493661642074585,-0.7442879676818848,-0.044620491564273834,0.27194398641586304,-0.26439097998823263,1.5260564568867343,1.1099671896637258
1.5645599365234375,-0.07002586126327515,0.01810145378112793,0.013310253620147705,-0.6967864632606506,-0.00902494601905346,0.3316584527492523,-0.2616847098693928,1.5277484072420382,1.117559883641361
1.5748558044433594,-0.06599515676498413,0.02330300211906433,0.000561833381652832,-0.6545533537864685,0.02122439257800579,0.38798853754997253,-0.2583706509997087,1.5296421763330184,1.1247047485705393
1.5847358703613281,-0.05629831552505493,0.030486732721328735,-0.009291287511587143,-0.6228933930397034,0.03960978984832764,0.4391888678073883,-0.25449332904375715,1.5316522440924125,1.1314786410686155
1.5945348739624023,-0.041891276836395264,0.037596479058265686,-0.016057610511779785,-0.5977281332015991,0.04821037873625755,0.48571211099624634,-0.25009785404230633,1.5337050420323535,1.137951776147522
1.6076250076293945,-0.030033230781555176,0.041126370429992676,-0.02511608600616455,-0.5910289287567139,0.05753490701317787,0.5206783413887024,-0.24529214010220263,1.5357593604529236,1.144254251810295
1.6145057678222656,-0.026763856410980225,0.046750158071517944,-0.03491533175110817,-0.6035709977149963,0.07432951033115387,0.5486582517623901,-0.24014306281862013,1.5379292884678637,1.1505914300025393
1.6248888969421387,-0.03167295455932617,0.05453886091709137,-0.04655188322067261,-0.6245138645172119,0.08088567852973938,0.5691081285476685,-0.23475123926064076,1.5402264142446387,1.1570829861667096
1.6346359252929688,-0.030698418617248535,0.06118440628051758,-0.057003557682037354,-0.6474884152412415,0.08516214042901993,0.5791441202163696,-0.2291927685691165,1.5425859030016438,1.1637832606027732
1.6446199417114258,-0.020565569400787354,0.0676795095205307,-0.06677526235580444,-0.677560031414032,0.08269046247005463,0.581961989402771,-0.2235610319333596,1.5449768050748824,1.170747257377871
1.6544837951660156,-0.009512841701507568,0.0781591534614563,-0.07456833124160767,-0.703660249710083,0.07476124912500381,0.5794482827186584,-0.2179188419398387,1.5473345700495167,1.1779722230275416
1.6648330688476562,0.0029805898666381836,0.08687295019626617,-0.07840746641159058,-0.7416648864746094,0.05823953449726105,0.567298173904419,-0.21234190268245934,1.5495896063272825,1.1855024063172588
1.6748228073120117,0.013980090618133545,0.09319929778575897,-0.07939368486404419,-0.7816177606582642,0.04706695303320885,0.5542981028556824,-0.20688793985100176,1.5517449208360354,1.1933991798914823
1.684757947921753,0.01945549249649048,0.09880819916725159,-0.08179938793182373,-0.8272342085838318,0.04101917892694473,0.5391034483909607,-0.20156516656268736,1.5538478677530347,1.2017223022192225
1.6946840286254883,0.02131599187850952,0.10535188019275665,-0.08602273464202881,-0.871280312538147,0.03866277262568474,0.520680844783783,-0.19639965538883872,1.5559626691416082,1.2104892006166836
1.7050399780273438,0.021478712558746338,0.11245016753673553,-0.08931887149810791,-0.899082362651825,0.04223540052771568,0.5110122561454773,-0.191373933755849,1.558091538229249,1.2196062585274567
1.7144880294799805,0.028431594371795654,0.12180250883102417,-0.092232346534729,-0.9033759832382202,0.04706601798534393,0.519072413444519,-0.18635743242589206,1.5602457351031553,1.2288728288866022
1.7247300148010254,0.050559401512145996,0.1345357596874237,-0.09141159057617188,-0.877612292766571,0.04988177865743637,0.5475501418113708,-0.18113514690362484,1.5623845050100928,1.2380000955200652
1.7345058917999268,0.09617060422897339,0.15196214616298676,-0.08931761980056763,-0.8175042867660522,0.026202594861388206,0.5824557542800903,-0.1755525752744003,1.5642956107964423,1.2466711649401059
1.7445998191833496,0.16447186470031738,0.17303606867790222,-0.09073138236999512,-0.7457544803619385,-0.0018729818984866142,0.6047650575637817,-0.16966522513277205,1.565752136207333,1.2546463034771378
1.7545359134674072,0.2104262113571167,0.18489864468574524,-0.09550964832305908,-0.6984049081802368,0.002329796552658081,0.6160244345664978,-0.16359316863302847,1.56691949153195,1.2619815187705201
1.7645928859710693,0.20188015699386597,0.18013903498649597,-0.0997963547706604,-0.6877263784408569,0.027680693194270134,0.6094474792480469,-0.1575017244972528,1.5681428651570586,1.2690054878871955
1.7750000953674316,0.17031753063201904,0.17915068566799164,-0.10217195749282837,-0.6774009466171265,0.049815692007541656,0.5926040410995483,-0.1515218476425337,1.5695451437222792,1.27593601743637
1.7845239639282227,0.14942800998687744,0.18737104535102844,-0.10351526737213135,-0.6502183079719543,0.06417492032051086,0.5682710409164429,-0.14575559487265946,1.571042778264305,1.28267010520454
1.7946069240570068,0.14299315214157104,0.20561708509922028,-0.10745429992675781,-0.5678199529647827,0.06390979886054993,0.5286310315132141,-0.14031718245029703,1.5724780388134636,1.2888362924774863
1.8045098781585693,0.12945175170898438,0.22683413326740265,-0.12430810928344727,-0.44354352355003357,0.03283470869064331,0.47874656319618225,-0.13536477783155146,1.5735168433759046,1.2939372587122748
1.814620018005371,0.11388510465621948,0.24305236339569092,-0.1384141445159912,-0.3052734434604645,-0.0030770422890782356,0.4122363328933716,-0.1310867681007041,1.5738608200713653,1.297659572374632
1.8248610496520996,0.09069502353668213,0.25410979986190796,-0.14563393592834473,-0.18039488792419434,-0.03587466850876808,0.33687421679496765,-0.1275683054342062,1.5736156638257663,1.3000333150640029
1.8346138000488281,0.05646395683288574,0.25629767775535583,-0.15954959392547607,-0.09719043225049973,-0.0707201361656189,0.24747231602668762,-0.12487071343849307,1.5729069842970627,1.301364635789652
1.844573974609375,0.021256089210510254,0.2516052722930908,-0.17389726638793945,-0.047256432473659515,-0.11342765390872955,0.1425461769104004,-0.12311042441166657,1.571788506570048,1.302027332323006
1.85463285446167,-0.009808957576751709,0.24205899238586426,-0.17947030067443848,-0.03728751838207245,-0.18681496381759644,0.005769840907305479,-0.12250504061111589,1.5701009129214778,1.3023632366968436
1.8646879196166992,-0.04673206806182861,0.22153496742248535,-0.1772855520248413,-0.07689724862575531,-0.2361750602722168,-0.09540072083473206,-0.12312098652336995,1.5678994020103936,1.3029304144200098
1.8747529983520508,-0.09403473138809204,0.19530825316905975,-0.16340488195419312,-0.14916670322418213,-0.3098357319831848,-0.22620096802711487,-0.12487077912248044,1.5650739901692776,1.3039966648236547
1.8846650123596191,-0.13182640075683594,0.17263875901699066,-0.1467999815940857,-0.2473457306623459,-0.39090901613235474,-0.3614560067653656,-0.12808043342394887,1.5614835039142658,1.3059396276564466
1.8946878910064697,-0.16204792261123657,0.15142139792442322,-0.12912273406982422,-0.3498382270336151,-0.4632449746131897,-0.47052568197250366,-0.13256646031685437,1.5571906220725995,1.3088518842353323
1.9047727584838867,-0.1755942702293396,0.12753351032733917,-0.11320042610168457,-0.4489605724811554,-0.5273318290710449,-0.5708028078079224,-0.13813364505615283,1.5523810967065106,1.3127667889015984
1.9147439002990723,-0.17052561044692993,0.10804323852062225,-0.10492163896560669,-0.5224312543869019,-0.5885365605354309,-0.6427428722381592,-0.1445346972737981,1.5471735953598136,1.3175313590421789
1.9248669147491455,-0.14547473192214966,0.0986102968454361,-0.09568381309509277,-0.5751967430114746,-0.6414620876312256,-0.6917873620986938,-0.1514955446123268,1.5416303053424678,1.3228889655608236
1.9347600936889648,-0.11186593770980835,0.0920165479183197,-0.0826830267906189,-0.6186745762825012,-0.6788738369941711,-0.7180606722831726,-0.15884906185363867,1.5357829938959875,1.328682605196513
1.9447948932647705,-0.080005943775177,0.07734189927577972,-0.06533348560333252,-0.6654021739959717,-0.7040984630584717,-0.7271356582641602,-0.16640602614749717,1.5297469437127986,1.334894292031346
1.9551420211791992,-0.05142855644226074,0.059986308217048645,-0.04462337866425514,-0.7197158336639404,-0.7145400643348694,-0.7182890176773071,-0.1740298948767133,1.523672073211131,1.3415775873793696
1.9647808074951172,-0.028995037078857422,0.0403977632522583,-0.022180020809173584,-0.7845744490623474,-0.7113455533981323,-0.6928116083145142,-0.1815451548465852,1.5177235694662807,1.3488390217730888
1.974928855895996,-0.00919884443283081,0.024230271577835083,0.00041585415601730347,-0.8423115611076355,-0.7003824710845947,-0.6604111194610596,-0.18883463425254374,1.512020949360032,1.3567203494801137
1.984818935394287,0.007900059223175049,0.014430806040763855,0.028194725513458252,-0.8739818334579468,-0.6870104670524597,-0.6152567267417908,-0.19580232100822778,1.5065871759970024,1.3650639909806779
1.9948310852050781,0.02265191078186035,0.010404855012893677,0.0572056770324707,-0.865833580493927,-0.6562318205833435,-0.5649034976959229,-0.202353309561628,1.501439933754042,1.3735361957847319
2.004833936691284,0.02426093816757202,0.008451566100120544,0.0803830549120903,-0.8182764053344727,-0.6077849268913269,-0.5118250846862793,-0.20840102001286456,1.4966934154833604,1.381745732471019
2.0149197578430176,0.00882101058959961,0.01539541780948639,0.0946807861328125,-0.7289801239967346,-0.5440164804458618,-0.4557459354400635,-0.21389296494526094,1.492408819449372,1.3892781003016879
2.025012969970703,-0.01179349422454834,0.026791304349899292,0.09737665206193924,-0.5990114808082581,-0.46760669350624084,-0.4037759602069855,-0.21878541205985477,1.4886284296967143,1.395718230598257
2.034970760345459,-0.034853219985961914,0.03515730798244476,0.09599578380584717,-0.4364722967147827,-0.3767065107822418,-0.356365829706192,-0.22308186041920622,1.485400694455542,1.4006831735489875
2.045099973678589,-0.06218826770782471,0.043663278222084045,0.0950162336230278,-0.25407612323760986,-0.27965691685676575,-0.3126617670059204,-0.2267846747927854,1.482753279289766,1.4039086058967611
2.0549139976501465,-0.0890507698059082,0.05461783707141876,0.09538377076387405,-0.06483860313892365,-0.19161942601203918,-0.27889007329940796,-0.2299346790719309,1.4806418750432384,1.4052638924647833
2.0649328231811523,-0.10601788759231567,0.06229335069656372,0.0994083359837532,0.12195977568626404,-0.10763798654079437,-0.2573842406272888,-0.2326306273611166,1.4789664966122866,1.4046943676597026
2.07513689994812,-0.1136290431022644,0.06580467522144318,0.10241055488586426,0.2947971820831299,-0.04071669653058052,-0.2422686666250229,-0.2349659588958663,1.4776270318479205,1.4023024698063529
2.0849409103393555,-0.11803346872329712,0.06317014992237091,0.10218382626771927,0.4523108899593353,0.020075282081961632,-0.23575058579444885,-0.23704780837652017,1.476521639977943,1.3982106481072905
2.0950469970703125,-0.11884033679962158,0.057365626096725464,0.10424244403839111,0.5822815895080566,0.07340685278177261,-0.2320265769958496,-0.238922645376787,1.475643889517005,1.3926465423816656
2.1050949096679688,-0.12017995119094849,0.05042111873626709,0.10274326801300049,0.6931490302085876,0.11905929446220398,-0.2216482311487198,-0.2406052424572634,1.4749614488212948,1.3858477401268618
2.1149799823760986,-0.1194806694984436,0.04257909953594208,0.09821885824203491,0.784187376499176,0.16086186468601227,-0.2062971442937851,-0.24206561625249134,1.4744612709858895,1.3780301219240465
2.1253559589385986,-0.11294478178024292,0.03281469643115997,0.09125513583421707,0.8528887033462524,0.19666460156440735,-0.18156328797340393,-0.24324329139304568,1.474154690811515,1.3694138691885114
2.135016918182373,-0.10270106792449951,0.023931682109832764,0.08056992292404175,0.9028944969177246,0.23038600385189056,-0.15623295307159424,-0.2441105558488136,1.4740432037548297,1.3602203893761746
2.144993782043457,-0.09523147344589233,0.016430184245109558,0.07560074329376221,0.9393728971481323,0.2592344284057617,-0.12117351591587067,-0.2446235296116698,1.4741360320443635,1.3506035604671593
2.155056953430176,-0.0869874358177185,0.00992324948310852,0.0691831111907959,0.9645446538925171,0.28989750146865845,-0.08762972056865692,-0.2447719646157813,1.4744735137186709,1.3407123934824137
2.1652278900146484,-0.07640677690505981,0.007895469665527344,0.0663420557975769,0.9849410057067871,0.31229308247566223,-0.05475246161222458,-0.24456580749806764,1.4750186737965678,1.3306172401829595
2.17529296875,-0.06521749496459961,0.010911181569099426,0.060167014598846436,0.9998729825019836,0.32982850074768066,-0.027186190709471703,-0.2440368398901153,1.4757372771181214,1.3203786433800482
2.1851930618286133,-0.054062724113464355,0.015052244067192078,0.05250084400177002,1.0114258527755737,0.33982226252555847,-0.007698776666074991,-0.24327602547819155,1.4765671763154518,1.3100256233606866
2.195189952850342,-0.046591103076934814,0.018287479877471924,0.045886583626270294,1.0186877250671387,0.3515855669975281,0.010077130980789661,-0.2423323865313784,1.4774966058628114,1.2995907799588717
2.205281972885132,-0.043173789978027344,0.01987278461456299,0.04196096211671829,1.0106459856033325,0.359179824590683,0.021019794046878815,-0.24124965531672926,1.4785358559889976,1.2891692034160094
2.2151007652282715,-0.038383305072784424,0.026130273938179016,0.038188040256500244,1.0055882930755615,0.3578222990036011,0.025049421936273575,-0.2401170196150141,1.4796385146932258,1.2788329999032853
2.2252578735351562,-0.03274136781692505,0.03290627896785736,0.03639233112335205,0.9938075542449951,0.35673201084136963,0.02525288797914982,-0.23896924625145635,1.4807629926203065,1.2685939568613722
2.235167980194092,-0.030463457107543945,0.03338246047496796,0.03592830151319504,0.9763551354408264,0.36009126901626587,0.02159050852060318,-0.23786680949585268,1.4819444119962732,1.258490495547661
2.2452099323272705,-0.03800302743911743,0.035342514514923096,0.02996450662612915,0.9649879336357117,0.36495792865753174,0.019208045676350594,-0.23682353192358624,1.483209333515961,1.2485391735491864
2.2551798820495605,-0.044746458530426025,0.04142142832279205,0.025010883808135986,0.9596593976020813,0.3702433109283447,0.020282311365008354,-0.23581298037217663,1.484564003493736,1.2386983766691733
2.2652111053466797,-0.04958808422088623,0.04683591425418854,0.020984642207622528,0.9669764637947083,0.3788032531738281,0.02048764005303383,-0.23479551272202276,1.486000144333167,1.22884264423475
2.275239944458008,-0.05537116527557373,0.05503369867801666,0.017541229724884033,0.9894548058509827,0.387252539396286,0.028667327016592026,-0.23374051896456902,1.4874959327232022,1.2188328287876877
2.2852230072021484,-0.05871438980102539,0.06255991756916046,0.013202540576457977,1.0227640867233276,0.3952055275440216,0.036378778517246246,-0.232607607988324,1.4890185538476324,1.2085388315034764
2.29522705078125,-0.05602312088012695,0.07077474892139435,0.008148729801177979,1.0569308996200562,0.40384113788604736,0.04494131729006767,-0.2313632075580275,1.4905557654670716,1.1978951711021593
2.305219888687134,-0.05335342884063721,0.07711414992809296,0.004787802696228027,1.087063193321228,0.41697078943252563,0.055908482521772385,-0.23002371422186596,1.4921415853006144,1.186931719398814
2.315274953842163,-0.051795899868011475,0.07968421280384064,0.005149781703948975,1.110001564025879,0.4278181195259094,0.06942317634820938,-0.22855977618471324,1.4937914023358743,1.175714208591823
2.325345993041992,-0.04863613843917847,0.08323337137699127,0.00434315949678421,1.1289278268814087,0.43754902482032776,0.08068195730447769,-0.2269683894220349,1.4955296449323798,1.1642951194070676
2.335261821746826,-0.043674468994140625,0.08719661831855774,0.005589187145233154,1.1448031663894653,0.44822144508361816,0.09671466797590256,-0.2252502486821674,1.4973542739028962,1.1527160671392238
2.3453729152679443,-0.037963032722473145,0.09208466112613678,0.005348809063434601,1.1653180122375488,0.45559707283973694,0.11130239814519882,-0.22339804765733323,1.4992484778517223,1.140949433490953
2.355329990386963,-0.02745842933654785,0.0994732528924942,0.0051007941365242004,1.1904336214065552,0.45800456404685974,0.12779386341571808,-0.22139215321670266,1.5011665153473757,1.1289694762529277
2.365367889404297,-0.01674795150756836,0.10637685656547546,0.005808651447296143,1.2179473638534546,0.4625532329082489,0.1405501365661621,-0.2192431779449109,1.5030743377466347,1.1167296467248848
2.3752617835998535,-0.0116005539894104,0.11359451711177826,0.004693388938903809,1.2423126697540283,0.47313523292541504,0.15410566329956055,-0.2169610709077028,1.5050362423797428,1.1042356417003443
2.3852899074554443,-0.011296510696411133,0.11785909533500671,0.0016559362411499023,1.2625033855438232,0.48509255051612854,0.1651415377855301,-0.21456350270555483,1.50709062720158,1.0915262645677128
2.3953590393066406,-0.013279914855957031,0.12405063211917877,-0.0020351968705654144,1.28128182888031,0.4958350360393524,0.17406302690505981,-0.21208467485380195,1.5092502618529622,1.0786281305546135
2.4053549766540527,-0.01526951789855957,0.1313183307647705,-0.003485787659883499,1.302897334098816,0.5072392225265503,0.17871583998203278,-0.20955216710247423,1.5115038941630727,1.0655237114363614
2.4157538414001465,-0.016901791095733643,0.1367270052433014,-0.003747999668121338,1.3226735591888428,0.5225394368171692,0.19149170815944672,-0.2069560829490326,1.5138820599684464,1.0522180327275383
2.4254398345947266,-0.012830197811126709,0.1439248025417328,-0.0035275816917419434,1.3499599695205688,0.5473518371582031,0.2205561250448227,-0.20418605069248189,1.516451858249771,1.0386855269523532
2.435399055480957,0.007793545722961426,0.1529199331998825,0.0018811896443367004,1.3975495100021362,0.5564116835594177,0.2627396881580353,-0.20106265959100475,1.519177245491401,1.0247963334055539
2.445399761199951,0.06054788827896118,0.16481348872184753,0.002907395362854004,1.4616185426712036,0.5380140542984009,0.2921140789985657,-0.19756857246371917,1.5217806553507145,1.0103604892167177
2.4554998874664307,0.12168991565704346,0.18168359994888306,-0.007482290267944336,1.5317153930664062,0.520389199256897,0.2994757294654846,-0.1938880647516598,1.5241033631543293,0.9952268102584191
2.4653708934783936,0.1345800757408142,0.1895567774772644,-0.017234206199645996,1.5666345357894897,0.5174096822738647,0.27711743116378784,-0.19029760010114938,1.5262686503595086,0.9795442615519449
2.4753928184509277,0.09161829948425293,0.18401479721069336,-0.013859864324331284,1.5482105016708374,0.5309246182441711,0.2278066873550415,-0.1871005565279041,1.528516499211642,0.9637682196796289
2.4854419231414795,0.044423818588256836,0.1799619048833847,0.007966339588165283,1.5259450674057007,0.5429160594940186,0.18450315296649933,-0.18442407751392065,1.5310016330566505,0.9482140836573185
2.495457887649536,0.03689533472061157,0.18512019515037537,0.03501838445663452,1.5507594347000122,0.5276614427566528,0.13764505088329315,-0.1822350965669128,1.5335194750024421,0.9326619192891504
2.5069398880004883,0.06573247909545898,0.19868060946464539,0.05239748954772949,1.6390460729599,0.48953747749328613,0.08967246115207672,-0.1805333595480098,1.5356736885590019,0.916518894642507
2.515472888946533,0.09468793869018555,0.21608629822731018,0.05048150196671486,1.763235092163086,0.4476141035556793,0.03409218788146973,-0.17934378260917902,1.5372262535965513,0.899245200177979
2.52547287940979,0.0986015796661377,0.22481611371040344,0.04688841477036476,1.8815947771072388,0.4161224961280823,-0.021925009787082672,-0.17870620802395973,1.5381994180680612,0.8806964700777531
2.535505771636963,0.0770081877708435,0.22070537507534027,0.0548970066010952,1.9698392152786255,0.4007020592689514,-0.0822271853685379,-0.17861941889860147,1.5387451591118124,0.8610610922930692
2.545541763305664,0.04359292984008789,0.2107931673526764,0.07369577884674072,2.0160038471221924,0.4134439527988434,-0.14112351834774017,-0.17912501627461755,1.5391301806311224,0.8407137522926332
2.556933879852295,0.0021895766258239746,0.19520531594753265,0.08350074291229248,2.0462610721588135,0.4368284344673157,-0.19592370092868805,-0.18020383989394712,1.5396425872981647,0.8200009462099869
2.565556049346924,-0.03540569543838501,0.18312853574752808,0.08081388473510742,2.089498281478882,0.4539424479007721,-0.23409105837345123,-0.18176227601170344,1.540255930056274,0.7989054192907684
2.5754969120025635,-0.054403483867645264,0.17323291301727295,0.08435851335525513,2.161186933517456,0.46104371547698975,-0.23976300656795502,-0.18353924983041783,1.5408622677155959,0.7772131192304673
2.5857629776000977,-0.046324193477630615,0.1705610752105713,0.09302359819412231,2.2829225063323975,0.44682320952415466,-0.21615780889987946,-0.1852171938133845,1.541212035883255,0.7545571857005422
2.595547914505005,-0.0173761248588562,0.17703604698181152,0.10473990440368652,2.454742193222046,0.4158380627632141,-0.16221900284290314,-0.18643843303618507,1.5410213478817623,0.7303884741292442
2.607175827026367,0.018421471118927002,0.18411491811275482,0.10991990566253662,2.6374268531799316,0.38638830184936523,-0.10652431845664978,-0.1870452721892904,1.5401715604829782,0.704403420611462
2.6155858039855957,0.046965062618255615,0.18285132944583893,0.10483896732330322,2.766554832458496,0.3495039641857147,-0.052240464836359024,-0.1870112545296397,1.5386644094265132,0.6767994609777771
2.62562894821167,0.06358462572097778,0.17587855458259583,0.10406321287155151,2.803100824356079,0.32777121663093567,-0.01488430518656969,-0.18643621785343548,1.5367078006810615,0.648347790543626
2.6356120109558105,0.07009077072143555,0.15690836310386658,0.11415034532546997,2.7351529598236084,0.3176206350326538,0.00802772305905819,-0.18550816790273386,1.5346620460672624,0.6200880482884945
2.6456198692321777,0.06696093082427979,0.13001254200935364,0.1292579174041748,2.6093108654022217,0.3025612533092499,0.010295137763023376,-0.1844470460521441,1.5327107041349666,0.5928515555048066
2.65681791305542,0.06023299694061279,0.10856148600578308,0.1439531445503235,2.4579930305480957,0.26664119958877563,-0.00884590670466423,-0.18346641466303662,1.5307908285984244,0.5670476000683458
2.6659159660339355,0.05307203531265259,0.0966135710477829,0.15368133783340454,2.3035573959350586,0.21481183171272278,-0.047505948692560196,-0.18281492487999165,1.5287215826102503,0.5428056197827439
2.675903797149658,0.04327291250228882,0.09595063328742981,0.15792393684387207,2.1549110412597656,0.15697839856147766,-0.09264077991247177,-0.1825890937376166,1.5263929864834243,0.5200818354296397
2.6857690811157227,0.026447713375091553,0.09728021919727325,0.15689599514007568,2.0122852325439453,0.09675394743680954,-0.1453750878572464,-0.18288182336393044,1.5237244787925912,0.49882522233262966
2.6958608627319336,0.0041397809982299805,0.09814542531967163,0.15464895963668823,1.8777967691421509,0.04751889035105705,-0.1923733949661255,-0.1836933978731898,1.5207381062840908,0.47894644253774543
2.70693302154541,-0.0240899920463562,0.09420602023601532,0.15618681907653809,1.7529246807098389,0.011719347909092903,-0.23583218455314636,-0.1849689025750606,1.5175429259862525,0.46037574250852575
2.71571683883667,-0.05026739835739136,0.09076672792434692,0.15895062685012817,1.654444694519043,-0.01421606820076704,-0.2669612467288971,-0.18660528517526734,1.5142431317849145,0.442926140469481
2.7257790565490723,-0.06870055198669434,0.09455093741416931,0.15399110317230225,1.601535677909851,-0.03531203046441078,-0.28651443123817444,-0.18850004337947163,1.5108154424102875,0.42620695253278507
2.735818862915039,-0.08036553859710693,0.09932391345500946,0.14811187982559204,1.5758628845214844,-0.04957165941596031,-0.29423269629478455,-0.19047631890341019,1.5072475344812544,0.40986749637121206
2.7457847595214844,-0.09135538339614868,0.10203441977500916,0.14053457975387573,1.5720101594924927,-0.061924465000629425,-0.28903764486312866,-0.19242481719536567,1.50355592319219,0.3936501194793467
2.7569808959960938,-0.10533398389816284,0.10698215663433075,0.13961952924728394,1.5844813585281372,-0.07203719764947891,-0.26679185032844543,-0.19416224686163341,1.4997133965936154,0.37738713173681987
2.7659339904785156,-0.11231911182403564,0.11011733114719391,0.13890886306762695,1.60629403591156,-0.08471278101205826,-0.23381686210632324,-0.195539262611625,1.495710233897442,0.36096486142807854
2.775804042816162,-0.11733156442642212,0.1103898286819458,0.14025276899337769,1.632819414138794,-0.10006958991289139,-0.19205869734287262,-0.19645928681711586,1.4915133325205319,0.34431583754470524
2.785912036895752,-0.11475586891174316,0.11125053465366364,0.14238351583480835,1.6580525636672974,-0.1192518100142479,-0.14375296235084534,-0.19682634887868564,1.4870951979614957,0.32742377322150124
2.795991897583008,-0.10566085577011108,0.11376930773258209,0.14628732204437256,1.6730831861495972,-0.14474615454673767,-0.09354380518198013,-0.19660743247000714,1.4824164610690895,0.3103549634851209
2.807033061981201,-0.08794492483139038,0.11650066077709198,0.15445548295974731,1.6638950109481812,-0.17236340045928955,-0.05399852246046066,-0.19584509770137554,1.4774889891443814,0.29331279857588516
2.8157958984375,-0.06371802091598511,0.11593592166900635,0.17195671796798706,1.6355032920837402,-0.20193129777908325,-0.02204517275094986,-0.19466313135124985,1.4723398026454895,0.27650060708941565
2.825875759124756,-0.037167370319366455,0.10986661911010742,0.19028693437576294,1.57560396194458,-0.222650945186615,-0.005536769051104784,-0.19319763234571308,1.4670346061432629,0.26017965082540706
2.8358829021453857,-0.019805908203125,0.10169720649719238,0.203318789601326,1.49148428440094,-0.22648097574710846,0.0036565163172781467,-0.19158693583056663,1.4617829136059444,0.24461245096362846
2.8459267616271973,-0.015089929103851318,0.10104331374168396,0.2107316255569458,1.3962656259536743,-0.23487313091754913,-0.006322881206870079,-0.19001504902949662,1.4566906614445274,0.22996883089294132
2.8570358753204346,-0.010432958602905273,0.10468834638595581,0.21693426370620728,1.3013384342193604,-0.242427259683609,-0.025356600061058998,-0.1886186468265281,1.4517086234468615,0.2162903502621678
2.866081953048706,-0.005044698715209961,0.10496515035629272,0.22557497024536133,1.2099597454071045,-0.25426316261291504,-0.06117212399840355,-0.18754469940048593,1.446815739855824,0.2035307491058204
2.8759560585021973,-0.00405573844909668,0.1068716049194336,0.23726850748062134,1.1234043836593628,-0.2691141366958618,-0.10637885332107544,-0.18692440148952366,1.4419721366917226,0.19163216286879464
2.885957956314087,-0.004151582717895508,0.11248055100440979,0.24771161377429962,1.0480742454528809,-0.2854888439178467,-0.15640179812908173,-0.18682207843331927,1.4371126029530337,0.18049005867146842
2.8959479331970215,-0.004837691783905029,0.11457149684429169,0.2543637752532959,0.9838034510612488,-0.2921062409877777,-0.2091018259525299,-0.18728747727935569,1.4322577602258684,0.1699847997272038
2.90690279006958,-0.004687607288360596,0.11545851826667786,0.2576711177825928,0.9302747249603271,-0.2971356213092804,-0.256882905960083,-0.18829498964725666,1.427434138370203,0.16000123661884938
2.9159908294677734,-0.004173338413238525,0.11435599625110626,0.2592986226081848,0.8940671682357788,-0.2938900589942932,-0.29976359009742737,-0.18977481384474257,1.422655923593169,0.15039309634690984
2.9260029792785645,-0.0025601983070373535,0.11211623251438141,0.25839763879776,0.8644804954528809,-0.2854185402393341,-0.33089619874954224,-0.19160528817138792,1.417966230675887,0.14103604131472602
2.936081886291504,-0.002101898193359375,0.10977265238761902,0.2602759003639221,0.8401680588722229,-0.2673601806163788,-0.34995007514953613,-0.19371319954032498,1.4134473673772174,0.13190759025257673
2.9461898803710938,0.0003470778465270996,0.10758626461029053,0.2602505087852478,0.818253219127655,-0.2540305256843567,-0.36347946524620056,-0.19595735045073553,1.409101760982628,0.12297405770169131
2.9572267532348633,0.007723987102508545,0.10070505738258362,0.26244109869003296,0.798597514629364,-0.23542417585849762,-0.36810511350631714,-0.1983064123890354,1.4049305957475424,0.1142122296688662
2.9660720825195312,0.015298545360565186,0.09312410652637482,0.2678397297859192,0.7780823707580566,-0.2140752077102661,-0.36601507663726807,-0.2006543432584763,1.4009848066132389,0.10564501147184377
2.9760560989379883,0.025970637798309326,0.08664371073246002,0.27224045991897583,0.7626516222953796,-0.19516347348690033,-0.35522764921188354,-0.20293918970108865,1.3972617761819308,0.09725738629075058
2.986039876937866,0.03948622941970825,0.08379802107810974,0.27546387910842896,0.7529963254928589,-0.17762337625026703,-0.3413344621658325,-0.20509721850368792,1.3937289761358327,0.0890032592106739
2.9961419105529785,0.052536606788635254,0.07946716248989105,0.27852004766464233,0.7432718276977539,-0.1538453847169876,-0.32754644751548767,-0.20710543414168608,1.3904169726162194,0.08087484329848521
3.0069727897644043,0.05889970064163208,0.07560248672962189,0.2802605628967285,0.7276787161827087,-0.12596821784973145,-0.3145565986633301,-0.20896552938046967,1.3873784484276128,0.07288145662000618
3.016145944595337,0.06119567155838013,0.06909602880477905,0.2811681628227234,0.7055663466453552,-0.0924082025885582,-0.299606591463089,-0.2107192133073266,1.3846664461522138,0.06509799827396122
3.0261378288269043,0.06282216310501099,0.06508676707744598,0.28320884704589844,0.6773349642753601,-0.050762757658958435,-0.28903037309646606,-0.21236963525451585,1.3823796339270071,0.057579324059243216
3.0361409187316895,0.06045025587081909,0.06056380271911621,0.2836589813232422,0.6564896702766418,-0.008052980527281761,-0.28089815378189087,-0.21396855508669255,1.3805726363517168,0.05032996324923057
3.0462307929992676,0.05842679738998413,0.05767075717449188,0.2789594531059265,0.6430894732475281,0.042240019887685776,-0.27603015303611755,-0.2155240693706214,1.3792503264473164,0.04325727986697471
3.0572381019592285,0.05623108148574829,0.055699825286865234,0.275115430355072,0.6493794918060303,0.08858154714107513,-0.273095041513443,-0.21704211416589703,1.378420291562318,0.0362280979575324
3.0660910606384277,0.0540279746055603,0.05720607936382294,0.2668686509132385,0.6722342371940613,0.12883256375789642,-0.2708691656589508,-0.2184999538354001,1.3779826201436955,0.029052787384602517
3.076198101043701,0.05478435754776001,0.06241080164909363,0.25860077142715454,0.7030163407325745,0.1696646511554718,-0.26557838916778564,-0.21987410789345604,1.3778725047047349,0.021612297012460056
3.0862197875976562,0.05102336406707764,0.06354114413261414,0.2503262162208557,0.7293390035629272,0.217135488986969,-0.2584936022758484,-0.2211395290012159,1.3781403059257733,0.01387931084936711
3.09627103805542,0.0456240177154541,0.0627078115940094,0.23887355625629425,0.7524240016937256,0.2657599151134491,-0.2397434115409851,-0.22224402290597473,1.3788338268455502,0.005931873939168332
3.1072330474853516,0.05229455232620239,0.0571991503238678,0.23056960105895996,0.7750915288925171,0.3026127517223358,-0.20818868279457092,-0.22304218674660276,1.3799175983755483,-0.0022017659801691685
3.1161818504333496,0.0816349983215332,0.05461682379245758,0.22272361814975739,0.7975485920906067,0.3161929249763489,-0.18855243921279907,-0.22356219870818375,1.381204619162567,-0.010504804847422578
3.1263017654418945,0.11430060863494873,0.05472575128078461,0.21074159443378448,0.8088188767433167,0.3374825119972229,-0.1734485924243927,-0.2238886477788515,1.3826124219253433,-0.018969282541722633
3.136204957962036,0.11352264881134033,0.04687824845314026,0.19416333734989166,0.7946645021438599,0.3625189960002899,-0.17241987586021423,-0.22415930717859933,1.384280746995042,-0.02739026919163808
3.146385908126831,0.08706420660018921,0.036220088601112366,0.1834920048713684,0.7560528516769409,0.3808465898036957,-0.1729770004749298,-0.22449571515119296,1.3862148111646324,-0.03555074148298041
3.1571288108825684,0.0631985068321228,0.026438578963279724,0.17344224452972412,0.7041687965393066,0.40033265948295593,-0.18038862943649292,-0.22498158101440463,1.3884487661016287,-0.0432439575023658
3.16644287109375,0.041702866554260254,0.027664586901664734,0.1616647094488144,0.6692158579826355,0.4205135703086853,-0.1855330616235733,-0.22563365667061394,1.3909812707996878,-0.05049549553550695
3.17638897895813,0.024124562740325928,0.02838754653930664,0.14952896535396576,0.667508065700531,0.42175981402397156,-0.18681947886943817,-0.22636357825457815,1.3936767605676124,-0.05755264767964613
3.186511993408203,0.019443273544311523,0.028738409280776978,0.13159340620040894,0.7002002596855164,0.4093438982963562,-0.19150158762931824,-0.22711529966581878,1.3962452412440463,-0.06478366141207549
3.196284770965576,0.011659622192382812,0.03383275866508484,0.11072666943073273,0.7493975162506104,0.39896175265312195,-0.19661687314510345,-0.22785354824234738,1.3985928277661417,-0.0724561722435729
3.2069809436798096,-0.017040491104125977,0.03637070953845978,0.09207171201705933,0.7913751006126404,0.3905291259288788,-0.2097662389278412,-0.22863169028567124,1.4007326774814755,-0.08062080633409474
3.216554880142212,-0.060956597328186035,0.03296896815299988,0.07623837888240814,0.8146462440490723,0.3872760832309723,-0.2303369641304016,-0.22953947750626927,1.4027255801500207,-0.08914575826173969
3.226447105407715,-0.10692882537841797,0.02032659947872162,0.0652686357498169,0.8132190108299255,0.3878481388092041,-0.2589038908481598,-0.23067613036680867,1.4046659441519955,-0.09782373151976954
3.236365795135498,-0.15365701913833618,0.009620383381843567,0.0527493953704834,0.7989471554756165,0.3851088881492615,-0.29292020201683044,-0.23214413200787495,1.4065863373056762,-0.10646610217621058
3.246490955352783,-0.193945050239563,0.002659350633621216,0.04651618003845215,0.7840062379837036,0.3848409950733185,-0.32575803995132446,-0.23398213548464838,1.4084933081815036,-0.11501655345212088
3.257077932357788,-0.22109490633010864,-0.006533443927764893,0.04689975082874298,0.7866085767745972,0.3832148313522339,-0.3464268147945404,-0.2361075108788386,1.4103794429283851,-0.12353005787426814
3.2663588523864746,-0.22827625274658203,-0.013068869709968567,0.050754085183143616,0.8152561783790588,0.37286338210105896,-0.352876216173172,-0.23835719089457777,1.4121427535447635,-0.1322228155840381
3.2764220237731934,-0.20855844020843506,-0.013103976845741272,0.05171811580657959,0.8713723421096802,0.3641187250614166,-0.3454362154006958,-0.24054518504612873,1.4136771522948552,-0.14135640422566711
3.286376953125,-0.16974931955337524,-0.010742351412773132,0.049250662326812744,0.9406395554542542,0.36483511328697205,-0.3154285252094269,-0.2424502695080725,1.414998452101991,-0.15111090142612832
3.2965688705444336,-0.11619383096694946,-0.013580963015556335,0.04306776821613312,0.9996085166931152,0.375248521566391,-0.2739027142524719,-0.2439128265070613,1.4162179636380978,-0.16147507127819583
3.30706787109375,-0.056872010231018066,-0.017574802041053772,0.0361303836107254,1.0331467390060425,0.3902200162410736,-0.22400306165218353,-0.2448523079073105,1.417449127651531,-0.1722596818876947
3.3166139125823975,0.012246906757354736,-0.02229371666908264,0.031765908002853394,1.0563368797302246,0.39465731382369995,-0.18236400187015533,-0.2453124851981295,1.418736858514551,-0.18322934135390226
3.326508045196533,0.08454883098602295,-0.029218703508377075,0.03635023534297943,1.0681626796722412,0.3838256895542145,-0.14056356251239777,-0.2453257193549913,1.4199704587135111,-0.1943582445003801
3.336498975753784,0.14605498313903809,-0.038778334856033325,0.044735491275787354,1.0524381399154663,0.36444276571273804,-0.14044952392578125,-0.24514478579899565,1.4210506353700925,-0.2054035013089868
3.3465659618377686,0.18538320064544678,-0.03687043488025665,0.053652822971343994,1.0164005756378174,0.33526837825775146,-0.14514893293380737,-0.24503414062520573,1.4219867407677242,-0.2161820417123658
3.3570117950439453,0.20159441232681274,-0.04320910573005676,0.06225879490375519,0.924159049987793,0.3047078847885132,-0.1936037242412567,-0.24529224723850362,1.4226927402880403,-0.2263578639036014
3.366580009460449,0.1892871856689453,-0.051357805728912354,0.06922845542430878,0.8026560544967651,0.2833738327026367,-0.23313754796981812,-0.24618950716269264,1.4234105340797072,-0.23552464299074785
3.376581907272339,0.13892805576324463,-0.06431907415390015,0.08124876022338867,0.6927801966667175,0.30500155687332153,-0.28170448541641235,-0.24769114869044392,1.4243923008400172,-0.2435030918517385
3.386666774749756,0.08816313743591309,-0.06373651325702667,0.08658300340175629,0.6519816517829895,0.3317072093486786,-0.30917713046073914,-0.24971925425177177,1.4258349178161593,-0.2507638368596914
3.3967928886413574,0.034972965717315674,-0.05535781383514404,0.07626956701278687,0.6790717840194702,0.3405877351760864,-0.3166520297527313,-0.25192278130697293,1.4274067943525155,-0.2580081737517067
3.4069149494171143,0.006104230880737305,-0.03390553593635559,0.0713091492652893,0.7699787616729736,0.37364208698272705,-0.30382412672042847,-0.25405207258094525,1.429016858250089,-0.2658441247042737
3.4165709018707275,-0.008533239364624023,-0.017525196075439453,0.061814382672309875,0.901850700378418,0.4164450466632843,-0.2531994581222534,-0.25569979483702016,1.4307277231386895,-0.27479514519604264
3.4265189170837402,-0.02570521831512451,-0.011425405740737915,0.05064530670642853,1.0465474128723145,0.47103986144065857,-0.18785053491592407,-0.2566027172256788,1.4325736544704484,-0.28509210260188933
3.436609983444214,-0.039629459381103516,-0.008607029914855957,0.04465503990650177,1.1977211236953735,0.5246996879577637,-0.11116854846477509,-0.2566073520470217,1.4346051669521607,-0.2967996427510217
3.4466869831085205,-0.043706417083740234,-0.007308602333068848,0.041157111525535583,1.3414421081542969,0.5751990675926208,-0.024587851017713547,-0.2556122605512398,1.436809239434164,-0.30992078579979143
3.4569919109344482,-0.04040861129760742,-0.005441397428512573,0.040082693099975586,1.4683009386062622,0.620015025138855,0.06314583122730255,-0.25360396594577034,1.4391922200539071,-0.3243094634193329
3.466754913330078,-0.03563719987869263,0.0008448809385299683,0.039694368839263916,1.5661838054656982,0.6502423882484436,0.13631406426429749,-0.2506734947926389,1.4417138292103386,-0.3397526265589438
3.4767069816589355,-0.031558990478515625,0.0044716596603393555,0.04058551788330078,1.6362379789352417,0.6688360571861267,0.19504012167453766,-0.24702593467086184,1.444350368618472,-0.3559514121572659
3.486682891845703,-0.028721511363983154,0.0032013356685638428,0.040101051330566406,1.6842761039733887,0.6713317036628723,0.23289854824543,-0.24284616804656572,1.4470141802164165,-0.3726973355241384
3.496825933456421,-0.02810591459274292,0.004244416952133179,0.037777721881866455,1.710298776626587,0.669413685798645,0.25236380100250244,-0.23839418273551577,1.4496697494494966,-0.38977240919542705
3.5069708824157715,-0.03500396013259888,0.0083608478307724,0.033511944115161896,1.7153351306915283,0.6571559309959412,0.25486665964126587,-0.2338620540965039,1.452307495809293,-0.40696824215832444
3.5167717933654785,-0.04073143005371094,0.015911325812339783,0.02631962299346924,1.7092461585998535,0.6331916451454163,0.2450740933418274,-0.22941237119809088,1.4548361745055922,-0.4241746536642644
3.5267748832702637,-0.042936861515045166,0.019694387912750244,0.02313382178544998,1.6904202699661255,0.6028028726577759,0.22247211635112762,-0.2251691927698276,1.457200385287516,-0.44125917021544603
3.536726951599121,-0.042846500873565674,0.02246849238872528,0.019122853875160217,1.6604636907577515,0.5688412189483643,0.19602259993553162,-0.22124486813866384,1.459361645237753,-0.4581100966720738
3.5468239784240723,-0.039811909198760986,0.026139289140701294,0.01418370008468628,1.61416494846344,0.5328912138938904,0.163120836019516,-0.21768712923381767,1.4613009575184686,-0.47460836684044283
3.5570268630981445,-0.03379404544830322,0.026638314127922058,0.010819554328918457,1.5609513521194458,0.49299365282058716,0.1294412910938263,-0.21455167600180866,1.4630021054450792,-0.4906332932763363
3.5668818950653076,-0.027532994747161865,0.024609997868537903,0.00927966833114624,1.493003249168396,0.4563746452331543,0.09660584479570389,-0.2118340241680006,1.4644929143093923,-0.5060709460059796
3.576812982559204,-0.02489626407623291,0.022000789642333984,0.009386181831359863,1.4169899225234985,0.4219367802143097,0.06476376205682755,-0.20954021452362637,1.4658162307411249,-0.520801124898513
3.586829900741577,-0.02133256196975708,0.018323317170143127,0.008540280163288116,1.3373994827270508,0.38870319724082947,0.03720510005950928,-0.20763747675385608,1.4669787468200433,-0.5347740021309866
3.5968589782714844,-0.016192972660064697,0.016412511467933655,0.013009846210479736,1.256679654121399,0.35575199127197266,0.007868572138249874,-0.20611310244875714,1.4680006940291102,-0.5479497376447099
3.6069960594177246,-0.014810323715209961,0.015351444482803345,0.018987953662872314,1.17960786819458,0.324418842792511,-0.013199695385992527,-0.2049368736271617,1.4688754520249037,-0.5603385334278503
3.6168670654296875,-0.016869664192199707,0.012965962290763855,0.021497435867786407,1.1095064878463745,0.3025577664375305,-0.0294506773352623,-0.2040382296462893,1.4696547482347624,-0.5719933562915172
3.6268887519836426,-0.022340118885040283,0.013391047716140747,0.024876490235328674,1.052459478378296,0.2808530032634735,-0.04232786223292351,-0.20335485661773436,1.4703510340658439,-0.5830158088542322
3.6368160247802734,-0.03141617774963379,0.015393167734146118,0.027576036751270294,1.0073747634887695,0.2622644305229187,-0.04905953258275986,-0.20282191776716493,1.470942652889341,-0.5935330726914356
3.647096872329712,-0.04156601428985596,0.018867209553718567,0.03304285556077957,0.9680471420288086,0.2546922564506531,-0.052586887031793594,-0.2023908113550161,1.4714951857782552,-0.6036275489501974
3.65710186958313,-0.05376851558685303,0.021359413862228394,0.03668874502182007,0.9403865337371826,0.24824462831020355,-0.051102761179208755,-0.20199629892113208,1.47205201366405,-0.6133811937436751
3.6671559810638428,-0.061714351177215576,0.025355815887451172,0.03703194856643677,0.9251744747161865,0.24423736333847046,-0.04470371827483177,-0.20159277071492857,1.472600240464239,-0.6229128814986019
3.67706298828125,-0.07023835182189941,0.02819862961769104,0.03744576871395111,0.912946879863739,0.24770547449588776,-0.03630133718252182,-0.20113638470248688,1.4731865038194694,-0.6323005308465076
3.687079906463623,-0.07754617929458618,0.03240962326526642,0.040547847747802734,0.911532998085022,0.25054121017456055,-0.02733900398015976,-0.2006073650161985,1.4738338496113388,-0.6415981732490857
3.697103977203369,-0.08665484189987183,0.040734708309173584,0.043554648756980896,0.9168701767921448,0.24686674773693085,-0.02047950029373169,-0.19999094098375864,1.4744708678213987,-0.6509188535900331
3.7070798873901367,-0.09134441614151001,0.0470622181892395,0.04576760530471802,0.9174161553382874,0.24536126852035522,-0.01542561873793602,-0.1993264838861272,1.4750777161087376,-0.6602684775053332
3.7170257568359375,-0.09261733293533325,0.05057227611541748,0.049449145793914795,0.900978684425354,0.2506023645401001,-0.007803012616932392,-0.19859430919011017,1.4757286713824624,-0.6695318037377653
3.7269740104675293,-0.09798067808151245,0.052542999386787415,0.052482299506664276,0.8725217580795288,0.2581372559070587,0.0009681083029136062,-0.19782937109826343,1.47649711240445,-0.678557724330611
3.737022876739502,-0.0964055061340332,0.053785547614097595,0.05779867619276047,0.8454980850219727,0.26067638397216797,0.006741788238286972,-0.19701345017287988,1.4773812348169186,-0.6872908895864551
3.747041940689087,-0.08780103921890259,0.05671870708465576,0.059238970279693604,0.8164153099060059,0.26296964287757874,0.007343929260969162,-0.19620085453136463,1.4783434289430184,-0.6957392397669863
3.7571678161621094,-0.08536827564239502,0.0587521493434906,0.06259680539369583,0.7828229665756226,0.27136898040771484,0.009604633785784245,-0.19540336887604914,1.479434991488952,-0.70386350558003
3.7671449184417725,-0.08533847332000732,0.06441806256771088,0.06397216767072678,0.7464958429336548,0.28153958916664124,0.011650207452476025,-0.19463631446839352,1.4806961067867326,-0.7116215576638873
3.7770628929138184,-0.08554446697235107,0.07017204165458679,0.06541431695222855,0.7102876305580139,0.29161569476127625,0.010024134069681168,-0.19390388148981494,1.4821374583966294,-0.7190051706105687
3.787118911743164,-0.08120089769363403,0.07458558678627014,0.06630825996398926,0.6786218881607056,0.3000358045101166,0.0055620078928768635,-0.19324700968229658,1.4837474394506045,-0.7260530938688319
3.7970428466796875,-0.07739222049713135,0.07702292501926422,0.06704181432723999,0.6501302123069763,0.3052080273628235,-0.006554682273417711,-0.19270701502142043,1.4854875819196756,-0.7327957163419629
3.8071699142456055,-0.07464993000030518,0.08309449255466461,0.06737452745437622,0.6220594048500061,0.31404680013656616,-0.028156647458672523,-0.1923664377056289,1.4873372032533008,-0.7392742787743871
3.8170769214630127,-0.08085179328918457,0.08557677268981934,0.06858283281326294,0.5881475210189819,0.3284352123737335,-0.056489113718271255,-0.19230925409573285,1.4893630035767178,-0.7454749717510962
3.8271517753601074,-0.0900389552116394,0.08746446669101715,0.06951475143432617,0.5516225695610046,0.346446692943573,-0.0859612450003624,-0.1925935572295295,1.4916188326972064,-0.7513373567362093
3.8370628356933594,-0.09795635938644409,0.08820173144340515,0.07136403769254684,0.5144246816635132,0.3815906047821045,-0.09827917069196701,-0.19314835206794498,1.4941804206418148,-0.7568330375571153
3.8472468852996826,-0.0927392840385437,0.0840938538312912,0.08004718273878098,0.4968845546245575,0.4286816716194153,-0.07473576068878174,-0.1936803431210911,1.4972433870328674,-0.7620168555846053
3.857247829437256,-0.050689637660980225,0.09001117944717407,0.0900416448712349,0.5353415012359619,0.4557533860206604,-0.03298037499189377,-0.19388556670532112,1.5006703584634784,-0.7672687245939906
3.86720609664917,0.034291207790374756,0.10932266712188721,0.08095413446426392,0.6392061114311218,0.4453287124633789,0.017332592979073524,-0.193580861524551,1.5040497940553652,-0.7732264426489648
3.877196788787842,0.12137049436569214,0.12586967647075653,0.0626983642578125,0.7519281506538391,0.4490647614002228,0.06113786622881889,-0.1927657525943743,1.5071360362469302,-0.7803015942380638
3.887269973754883,0.16095185279846191,0.12809546291828156,0.058786340057849884,0.830927848815918,0.48283258080482483,0.1109810546040535,-0.19144646356695774,1.5102728376030785,-0.7883395882647807
3.897286891937256,0.16942870616912842,0.1253410428762436,0.06730157136917114,0.8806991577148438,0.4830845594406128,0.15030933916568756,-0.18965180875649143,1.5134992532973937,-0.7969772346746223
3.90720796585083,0.19922494888305664,0.13097113370895386,0.07260441780090332,0.9171786308288574,0.46379154920578003,0.1488880068063736,-0.18766379709622974,1.5165306234347977,-0.8060534921599495
3.917222023010254,0.2213701605796814,0.135016068816185,0.06860584765672684,0.9207569360733032,0.4619855284690857,0.13363240659236908,-0.1857834664832363,1.5194270062140787,-0.8153470721763897
3.9273037910461426,0.19770574569702148,0.132192000746727,0.05678040534257889,0.9167118668556213,0.4508492648601532,0.09082289785146713,-0.18423230763212292,1.5222857799934275,-0.8246521385346574
3.9372830390930176,0.15406441688537598,0.12894567847251892,0.047446493059396744,0.9064367413520813,0.4122495949268341,0.04504464939236641,-0.18314205402339906,1.5249321314894264,-0.8338869946414491
3.94736385345459,0.12821859121322632,0.13640563189983368,0.04923928156495094,0.9049400091171265,0.3586212396621704,-0.02583192102611065,-0.18267814344415317,1.5271185218311554,-0.843098264910021
3.9573240280151367,0.1120871901512146,0.14689724147319794,0.054407183080911636,0.8919267058372498,0.3081374168395996,-0.10032719373703003,-0.18296400977525315,1.5287830391275343,-0.8522780663227201
3.967371940612793,0.08298921585083008,0.1415187269449234,0.05245023965835571,0.8615477085113525,0.26119014620780945,-0.18430465459823608,-0.18407345154998608,1.5299899135987352,-0.8612645134783651
3.9773108959198,0.053172171115875244,0.12771892547607422,0.04559892416000366,0.822567343711853,0.22025831043720245,-0.269741028547287,-0.18606641946179975,1.5307984251041526,-0.8699263614761201
3.9872889518737793,0.027538537979125977,0.11542955040931702,0.042679786682128906,0.7835187315940857,0.19662435352802277,-0.344046413898468,-0.18888369302875568,1.5313104614876876,-0.878247197162652
3.9972877502441406,0.0019137859344482422,0.10674959421157837,0.04724907502532005,0.7540315985679626,0.19284386932849884,-0.40532976388931274,-0.19240909068146747,1.531743251274757,-0.8862101685376093
4.007396936416626,-0.009691238403320312,0.10251641273498535,0.05530273914337158,0.7660691142082214,0.1755455732345581,-0.44990602135658264,-0.1964591243862045,1.532057617961102,-0.894088910838656
4.017566919326782,0.011655032634735107,0.09742279350757599,0.06049645319581032,0.8227304220199585,0.16443729400634766,-0.4655277729034424,-0.20079884636447698,1.532111415239233,-0.902353119251419
4.027316093444824,0.04862850904464722,0.08899430930614471,0.05996090546250343,0.8972501754760742,0.16270065307617188,-0.46119266748428345,-0.20516656370518302,1.5319377405692185,-0.9113115116112073
4.037301063537598,0.08163213729858398,0.08486483991146088,0.05522691830992699,0.9873467683792114,0.1579975038766861,-0.44400835037231445,-0.2093864346024718,1.5315168263416186,-0.9211220239665486
4.04731297492981,0.11992734670639038,0.0786723792552948,0.05746627226471901,1.0665180683135986,0.14334532618522644,-0.4253899157047272,-0.21337891018672997,1.5307837760385983,-0.9318203608742689
4.057448863983154,0.15614312887191772,0.06499277055263519,0.06672322750091553,1.1215204000473022,0.12886466085910797,-0.41687607765197754,-0.21721357606613625,1.5297076237512202,-0.9432181415365721
4.06741189956665,0.17945212125778198,0.04515086114406586,0.08100926876068115,1.147333025932312,0.1141272559762001,-0.42486047744750977,-0.2210022972251896,1.5283385207470364,-0.955037175020555
4.07732892036438,0.18543237447738647,0.023753806948661804,0.09191155433654785,1.1538519859313965,0.08815424144268036,-0.4530452489852905,-0.2249650824870625,1.5266944674539338,-0.9670469957920049
4.087349891662598,0.18303364515304565,0.008713647723197937,0.10108321905136108,1.1433804035186768,0.05924083665013313,-0.5023581981658936,-0.22931371672775286,1.524719698057181,-0.9790696089938509
4.097596883773804,0.16792398691177368,-0.005660682916641235,0.10767602175474167,1.1221767663955688,0.024797644466161728,-0.5658679604530334,-0.23422152681783065,1.5224037333436835,-0.9909779537868783
4.107532978057861,0.14185142517089844,-0.01901973783969879,0.1150519847869873,1.1040740013122559,-0.010308677330613136,-0.6366084814071655,-0.2398020450216368,1.5197057543021275,-1.002733428750269
4.117520809173584,0.11533594131469727,-0.03144979476928711,0.12194442749023438,1.083397626876831,-0.04474792256951332,-0.7069278359413147,-0.24608419114747299,1.5166058359179475,-1.0143637340827
4.127486944198608,0.09236830472946167,-0.04138019680976868,0.12450242042541504,1.0635727643966675,-0.07693834602832794,-0.7737715840339661,-0.25304102317319094,1.5131213842756692,-1.0258734010848523
4.137809753417969,0.07243549823760986,-0.05495113134384155,0.12641090154647827,1.0396250486373901,-0.10532769560813904,-0.8375208973884583,-0.26063553538497436,1.5092871890504866,-1.0372465435835396
4.14763879776001,0.05412715673446655,-0.06944471597671509,0.12471366673707962,1.010110855102539,-0.13083279132843018,-0.8913785219192505,-0.2687908224290457,1.505158007263036,-1.048442010315848
4.158108949661255,0.03869199752807617,-0.08706146478652954,0.12732148170471191,0.969491720199585,-0.15347205102443695,-0.9264354705810547,-0.2773878086010446,1.5007552308172438,-1.0593697838807148
4.167740821838379,0.02696758508682251,-0.11016678810119629,0.13256168365478516,0.9052575826644897,-0.16985581815242767,-0.9461820125579834,-0.28623969241603503,1.4961987881405159,-1.0698439957893953
4.177685976028442,0.019696533679962158,-0.13332217931747437,0.14346277713775635,0.8341416716575623,-0.1888946294784546,-0.9515522122383118,-0.29521486109952333,1.4915602370106527,-1.0796799989376014
4.187627792358398,0.021882176399230957,-0.1521676778793335,0.15873515605926514,0.7632483243942261,-0.21314963698387146,-0.9480589032173157,-0.3041913849894126,1.4868323586823218,-1.0888403613454234
4.197568893432617,0.03171133995056152,-0.17248162627220154,0.173130601644516,0.6905258297920227,-0.23646245896816254,-0.9385820627212524,-0.3131168796951945,1.4819814594093874,-1.097313316106071
4.208018779754639,0.04448443651199341,-0.1951717734336853,0.1854112148284912,0.6131186485290527,-0.2524675130844116,-0.9214262366294861,-0.3219190283230678,1.4770905974973687,-1.1050601205868438
4.21760892868042,0.05079829692840576,-0.21024376153945923,0.19731897115707397,0.5323747396469116,-0.2607528865337372,-0.8952144384384155,-0.3305330854681841,1.4722720219605157,-1.1120044543819112
4.227667808532715,0.05024135112762451,-0.22007358074188232,0.2060624361038208,0.4634478688240051,-0.2570910155773163,-0.852286159992218,-0.3388240453071448,1.4676283710175813,-1.1181867103052452
4.2376580238342285,0.045900046825408936,-0.2288457155227661,0.21231931447982788,0.4149233102798462,-0.250431090593338,-0.8049156069755554,-0.34671229793767777,1.4632080036180402,-1.1237372590749501
4.247720956802368,0.03984612226486206,-0.2287398874759674,0.2155398726463318,0.39590218663215637,-0.24216489493846893,-0.7461452484130859,-0.35407274936706795,1.4589552933949792,-1.1289245589134416
4.2578229904174805,0.03747844696044922,-0.22629117965698242,0.2141851782798767,0.4003089964389801,-0.23366715013980865,-0.6793558597564697,-0.36077573323131706,1.4547798054296481,-1.1340098307608695
4.2680439949035645,0.03514069318771362,-0.22081699967384338,0.2111041396856308,0.41709864139556885,-0.22146295011043549,-0.6026493906974792,-0.3667391837946315,1.4506617527743562,-1.139164815578719
4.277671813964844,0.031732022762298584,-0.21499162912368774,0.21018151938915253,0.4357176423072815,-0.21442283689975739,-0.529638946056366,-0.3718969653701128,1.4465668066415804,-1.1444615860469805
4.287787914276123,0.034181296825408936,-0.2099229097366333,0.2122071385383606,0.4425286650657654,-0.2154465615749359,-0.45250871777534485,-0.3762706611418437,1.4424532218987358,-1.1498342031518791
4.297729969024658,0.03786545991897583,-0.21204951405525208,0.21869444847106934,0.4247567355632782,-0.20631036162376404,-0.3779953420162201,-0.379872391325745,1.4384049612500924,-1.1550661485948743
4.307983875274658,0.03432506322860718,-0.21983855962753296,0.22236567735671997,0.3835086524486542,-0.18672174215316772,-0.30300524830818176,-0.38274044157648984,1.4346399195318935,-1.159877720668264
4.3177409172058105,0.02261638641357422,-0.2206241488456726,0.2232513427734375,0.34167301654815674,-0.16760331392288208,-0.22743156552314758,-0.38490415778885423,1.431278305269994,-1.1641441711355918
4.327789783477783,0.014031410217285156,-0.21931889653205872,0.22178560495376587,0.3043608069419861,-0.14755210280418396,-0.1556423306465149,-0.3863773870113138,1.428300216137344,-1.16787846664698
4.337791919708252,0.0129852294921875,-0.21690937876701355,0.21910597383975983,0.27889344096183777,-0.13325235247612,-0.08266585320234299,-0.3871696956339968,1.42565001076526,-1.1711695633863135
4.347814083099365,0.008683979511260986,-0.21090108156204224,0.21642287075519562,0.26577872037887573,-0.11832080781459808,-0.010232933796942234,-0.38725601711998137,1.42327684153392,-1.1741531147783981
4.357958793640137,0.009343266487121582,-0.20173826813697815,0.2137424349784851,0.25973013043403625,-0.10376325994729996,0.058901555836200714,-0.38663828141263984,1.4211263904063443,-1.1769173389106717
4.367840766906738,0.013354718685150146,-0.1920408010482788,0.20897722244262695,0.25847098231315613,-0.08139084279537201,0.12846492230892181,-0.3853448082005116,1.419211971765629,-1.1795280904260002
4.37781286239624,0.015095949172973633,-0.18618708848953247,0.2009606957435608,0.25825759768486023,-0.05837323144078255,0.19225774705410004,-0.3833757127225661,1.417591922561058,-1.1820046309294412
4.387819766998291,0.014530003070831299,-0.1796637773513794,0.1935144066810608,0.262239009141922,-0.032791703939437866,0.2535725235939026,-0.3807854851800084,1.4162556219221096,-1.1843969535713912
4.3978049755096436,0.015975356101989746,-0.16972607374191284,0.18494243919849396,0.27302634716033936,-0.011913011781871319,0.3114994466304779,-0.3775943898317154,1.415170497667229,-1.1867662924563696
4.408098936080933,0.017857730388641357,-0.15886715054512024,0.17567753791809082,0.28916430473327637,0.009539816528558731,0.36221644282341003,-0.3738438534436918,1.4142772744078276,-1.1891920022360654
4.417881965637207,0.018439650535583496,-0.15069398283958435,0.1691848635673523,0.3019660711288452,0.0192798413336277,0.42425593733787537,-0.3695098865123484,1.4135414326758577,-1.1916440178579428
4.427877902984619,0.025301635265350342,-0.13872748613357544,0.16263742744922638,0.31353190541267395,0.023622125387191772,0.47849413752555847,-0.364568989933346,1.4128681927589648,-1.1941469842432926
4.437907934188843,0.03467535972595215,-0.1286500096321106,0.15410341322422028,0.31326624751091003,0.029629196971654892,0.531899094581604,-0.35909622783112366,1.4122782094623543,-1.196615346895749
4.448006868362427,0.040411293506622314,-0.12474328279495239,0.14673393964767456,0.3035537004470825,0.031202323734760284,0.5816091299057007,-0.35312097007458615,1.411792629585399,-1.198930809206634
4.458364009857178,0.04588019847869873,-0.11883479356765747,0.13786739110946655,0.28339630365371704,0.0329892598092556,0.6311423778533936,-0.3466689141006997,1.4114316063924846,-1.2009896976966865
4.468087911605835,0.05078327655792236,-0.11250555515289307,0.13143765926361084,0.25097978115081787,0.026899144053459167,0.6704637408256531,-0.3398179461052167,1.4111752047781716,-1.20269768678216
4.4779157638549805,0.057694196701049805,-0.10347515344619751,0.12506365776062012,0.20701958239078522,0.01716049760580063,0.7036247253417969,-0.33266031655839035,1.4110006593020303,-1.2039525208352309
4.487978935241699,0.061622440814971924,-0.09772565960884094,0.11901195347309113,0.14749287068843842,0.006984825246036053,0.7333610653877258,-0.32527898261586813,1.4109267692884695,-1.2046121499691993
4.49798583984375,0.06326425075531006,-0.0938708484172821,0.11666180193424225,0.07774677127599716,-0.01378321647644043,0.7499741315841675,-0.317774169234401,1.4109229144978732,-1.2045442693074664
4.508120059967041,0.06523597240447998,-0.08785566687583923,0.11713667213916779,-0.005499114282429218,-0.03544936329126358,0.7599146366119385,-0.3102464683282043,1.4109575530953233,-1.2036620939294975
4.518024921417236,0.06524288654327393,-0.08041638135910034,0.11723937094211578,-0.0972948670387268,-0.05396299436688423,0.7640268802642822,-0.30279555765853755,1.4110663790761777,-1.201855868135529
4.528022766113281,0.05795413255691528,-0.0750938355922699,0.11786927282810211,-0.19819724559783936,-0.06662499159574509,0.7641102075576782,-0.29548513793703013,1.4112953840452782,-1.1990541452123151
4.538002014160156,0.04767477512359619,-0.06788846850395203,0.11496317386627197,-0.2943364977836609,-0.07532869279384613,0.7585806250572205,-0.28835984128126657,1.4116951451368003,-1.1952493539053084
4.547987937927246,0.038059890270233154,-0.058760643005371094,0.1105964183807373,-0.3866528570652008,-0.07405117154121399,0.7546436786651611,-0.2814243456843692,1.4122970501285839,-1.1904831107982135
4.558225870132446,0.03065890073776245,-0.04932186007499695,0.10296143591403961,-0.45557036995887756,-0.07122795283794403,0.7560397386550903,-0.2746235270305844,1.41312657341917,-1.1848930402860305
4.568225860595703,0.029159247875213623,-0.03566634654998779,0.09444977343082428,-0.4989950656890869,-0.06990490108728409,0.7586360573768616,-0.26789354803932713,1.4140938584338967,-1.1787403856805936
4.5780510902404785,0.029183566570281982,-0.02162468433380127,0.09078939259052277,-0.5236184597015381,-0.07283992320299149,0.7598870396614075,-0.26118694953296756,1.4150983487736777,-1.1722591117887617
4.5880959033966064,0.029973924160003662,-0.007145434617996216,0.08779270946979523,-0.5380317568778992,-0.0769965797662735,0.764715313911438,-0.25448161470259234,1.4160680462107818,-1.1656010796974174
4.598088979721069,0.02758556604385376,0.003977492451667786,0.08222396671772003,-0.5554384589195251,-0.07285985350608826,0.7665368318557739,-0.24775592768978594,1.4170210713789921,-1.1587990213734618
4.608186960220337,0.020050108432769775,0.008870348334312439,0.0798114538192749,-0.5728762745857239,-0.06430258601903915,0.7773894667625427,-0.24099906316880063,1.4180468954252428,-1.1518206915775282
4.618134021759033,0.014813542366027832,0.014968320727348328,0.07910025119781494,-0.5805609822273254,-0.0552847646176815,0.7869327664375305,-0.23414397270481843,1.4191529431844867,-1.144710860976829
4.628037929534912,0.020424723625183105,0.022218093276023865,0.08163248002529144,-0.5678385496139526,-0.04490109905600548,0.800649106502533,-0.22716723638540667,1.4202909894160223,-1.1376301626221355
4.638200759887695,0.029989778995513916,0.030520334839820862,0.07644891738891602,-0.5370597839355469,-0.03470305725932121,0.8188348412513733,-0.21998316072730123,1.4214352793554883,-1.130767647988707
4.648310899734497,0.03922843933105469,0.04136441648006439,0.06973747909069061,-0.5004157423973083,-0.023397138342261314,0.8310142755508423,-0.21259862432595236,1.422576441053833,-1.124237737511913
4.658493995666504,0.055142104625701904,0.05094030499458313,0.06553292274475098,-0.46207544207572937,-0.012895584106445312,0.8402677774429321,-0.20504050233911647,1.4236906267748302,-1.1181079196271362
4.66852593421936,0.07207179069519043,0.053877294063568115,0.061581552028656006,-0.4415126442909241,0.0026508851442486048,0.8445544242858887,-0.1973400086808127,1.4248347619009736,-1.1122829008100479
4.678302764892578,0.08724170923233032,0.05220305919647217,0.0608782023191452,-0.4191353917121887,0.010835399851202965,0.8344546556472778,-0.18965448105228966,1.4260153607344166,-1.1066804075603311
4.688233852386475,0.09631747007369995,0.049278587102890015,0.05733799934387207,-0.4104257822036743,0.01821954734623432,0.8231329917907715,-0.18202580473089713,1.4271808437278486,-1.1012832724113009
4.698258876800537,0.09633874893188477,0.03985413908958435,0.04869730770587921,-0.4001694321632385,0.02235499396920204,0.8006532788276672,-0.17456249689163106,1.4283500341909707,-1.0960185774892444
4.708450794219971,0.09042966365814209,0.04248732328414917,0.041119158267974854,-0.3817821741104126,0.011240290477871895,0.7614461779594421,-0.16736887963775288,1.4294291397670276,-1.0909502087172984
4.7182769775390625,0.08064991235733032,0.045684412121772766,0.031001701951026917,-0.3719938099384308,-0.012861229479312897,0.7063131332397461,-0.16061742784706148,1.4302446440796592,-1.0861270931009293
4.7283899784088135,0.06034982204437256,0.03735673427581787,0.02242821455001831,-0.3874582350254059,-0.035722602158784866,0.6376259922981262,-0.15448010601776418,1.4307860189810453,-1.081374399626502
4.738371849060059,0.027838170528411865,0.02647276222705841,0.019194617867469788,-0.4322711229324341,-0.061074916273355484,0.564463198184967,-0.1490973100965433,1.4311032861892097,-1.0764232375794098
4.748325824737549,-0.0034956932067871094,0.017715513706207275,0.021270573139190674,-0.49321383237838745,-0.09655381739139557,0.48118504881858826,-0.14456114360253805,1.431150085604568,-1.0710420795790254
4.758567810058594,-0.02358776330947876,0.009252682328224182,0.025270581245422363,-0.5603668689727783,-0.12518879771232605,0.4086592495441437,-0.14090175997123355,1.4309260187399084,-1.0651287635149072
4.768344879150391,-0.04054051637649536,-0.005603566765785217,0.023092225193977356,-0.6226704716682434,-0.15591634809970856,0.34731465578079224,-0.13799914527918755,1.4304662709352196,-1.0586702283854368
4.778317928314209,-0.05361288785934448,-0.017379596829414368,0.022357523441314697,-0.680121660232544,-0.17844508588314056,0.2952629625797272,-0.1357465184023034,1.4297813543702758,-1.051690180788193
4.788326978683472,-0.05292344093322754,-0.01833057403564453,0.022075772285461426,-0.7224675416946411,-0.2136768400669098,0.25914517045021057,-0.13399607359474314,1.4288580898051122,-1.0442644631243683
4.798340797424316,-0.04216718673706055,-0.024230509996414185,0.021049365401268005,-0.7663672566413879,-0.23594136536121368,0.23555095493793488,-0.13260521596940963,1.4276758472831257,-1.0364658815657766
4.80861496925354,-0.034051358699798584,-0.03745296597480774,0.023782655596733093,-0.8138737678527832,-0.25005826354026794,0.21863402426242828,-0.13150536503779586,1.4263574101257113,-1.0282355927808087
4.818359851837158,-0.03238135576248169,-0.048974260687828064,0.029303133487701416,-0.8660910129547119,-0.25425955653190613,0.22394979000091553,-0.1305366393009336,1.4250105465322727,-1.0195230818304895
4.828384876251221,-0.030481576919555664,-0.05810077488422394,0.03369952738285065,-0.9101687073707581,-0.25255194306373596,0.22813628613948822,-0.12959970611822727,1.4237045216809363,-1.01030182000099
4.8383870124816895,-0.030482828617095947,-0.05792224407196045,0.03992199897766113,-0.9359697103500366,-0.2462330460548401,0.23952369391918182,-0.12865033492410874,1.422466000100368,-1.0007143328304045
4.848443031311035,-0.03721386194229126,-0.05503039062023163,0.043598949909210205,-0.9386752247810364,-0.22821438312530518,0.2564278244972229,-0.12759615329559298,1.4213666989052272,-0.9909708489085242
4.858522891998291,-0.048078179359436035,-0.05405929684638977,0.04490530490875244,-0.9141697883605957,-0.20760226249694824,0.2679912745952606,-0.12638643953639384,1.4204470285338142,-0.9813108396902609
4.868514060974121,-0.05520915985107422,-0.04657226800918579,0.04550929367542267,-0.8677207827568054,-0.17666272819042206,0.2878265082836151,-0.12497656923812282,1.4197183310370656,-0.9719803934798198
4.8784239292144775,-0.05828237533569336,-0.03756704181432724,0.04699581861495972,-0.8062043190002441,-0.14848004281520844,0.3042493760585785,-0.12331326736924217,1.4192145594487382,-0.9631607807527447
4.8884758949279785,-0.06127995252609253,-0.030178025364875793,0.04590137302875519,-0.729020357131958,-0.11340966820716858,0.324383407831192,-0.12137238800440321,1.4189201677261916,-0.9550262648943332
4.898565769195557,-0.0646134614944458,-0.027534641325473785,0.04526793956756592,-0.6452344655990601,-0.07138822972774506,0.34333425760269165,-0.11910939794481203,1.4189078014468137,-0.9476568832527444
4.908582925796509,-0.06832456588745117,-0.023593299090862274,0.04104067385196686,-0.5539599061012268,-0.033716753125190735,0.3566164970397949,-0.11655412189110721,1.4191878000942733,-0.9411402086839644
4.918526887893677,-0.07301533222198486,-0.01497136801481247,0.036116719245910645,-0.4690300226211548,-0.006943108048290014,0.3616078495979309,-0.11377316890430075,1.4196672249062552,-0.9354962325230355
4.928544998168945,-0.0702858567237854,-0.013976432383060455,0.03406144678592682,-0.4039261043071747,0.013192785903811455,0.36064058542251587,-0.11085246002644962,1.4202717147940946,-0.9306183569119055
4.938596963882446,-0.0634533166885376,-0.018154866993427277,0.03017432987689972,-0.3742488622665405,0.033773116767406464,0.35289186239242554,-0.1078873368629099,1.421015669605357,-0.9262270138819579
4.948507785797119,-0.06199347972869873,-0.019067756831645966,0.024831488728523254,-0.3681928217411041,0.04239989444613457,0.34124451875686646,-0.10499968355540307,1.4218868621901737,-0.9220215896719601
4.958677768707275,-0.05451774597167969,-0.02187701314687729,0.023175284266471863,-0.37961825728416443,0.04333941265940666,0.3260515630245209,-0.10223997710117218,1.4227757865050024,-0.9178139429386533
4.968612909317017,-0.04306536912918091,-0.031707920134067535,0.02380579710006714,-0.4018425941467285,0.04454262927174568,0.31151655316352844,-0.09966762416695192,1.4236778623528898,-0.9134535040582746
4.978616952896118,-0.03466731309890747,-0.03316185623407364,0.019589245319366455,-0.42272722721099854,0.03643454611301422,0.2896200120449066,-0.09729536006468834,1.4245701657924954,-0.9088842492314522
4.988659858703613,-0.029539942741394043,-0.028070174157619476,0.01291048526763916,-0.4280734956264496,0.021601540967822075,0.2799665629863739,-0.09507735095474026,1.4253251567800223,-0.9042286993054097
4.998591899871826,-0.019329965114593506,-0.029421783983707428,0.008422091603279114,-0.43830975890159607,0.018812499940395355,0.2582353353500366,-0.09303245264288372,1.4260062811451528,-0.8994996488127218
5.008826971054077,-0.013741493225097656,-0.030631013214588165,0.004830420017242432,-0.4326246976852417,0.007377152796834707,0.24730944633483887,-0.09115145653468294,1.4265949927103336,-0.8947791741961285
5.0186989307403564,-0.01187896728515625,-0.027957580983638763,0.0015894025564193726,-0.4445394277572632,0.0023536321241408587,0.23351693153381348,-0.08938638062784937,1.4270887725820118,-0.8900722881719006
5.028692960739136,-0.0027660727500915527,-0.01755126565694809,-0.0003506690263748169,-0.45850077271461487,0.004602937959134579,0.21998141705989838,-0.08777806048714759,1.4275760419663315,-0.8852587592130231
5.038744926452637,0.0029581785202026367,-0.0054230764508247375,-0.0012817978858947754,-0.4761703312397003,0.010429268702864647,0.1986810266971588,-0.08637147221894508,1.4281047014805417,-0.8803050977952062
5.048703908920288,-0.0021668672561645508,-0.010671652853488922,-0.000896453857421875,-0.484077513217926,0.015946805477142334,0.17016682028770447,-0.08520708343068539,1.4286875587559107,-0.8752614877120702
5.058753967285156,-0.007546186447143555,-0.023936085402965546,0.003102049231529236,-0.4804115891456604,0.023143067955970764,0.13777613639831543,-0.08436937288123582,1.4293312275428762,-0.8702361351937911
5.068752765655518,-0.005869626998901367,-0.025117963552474976,0.0006646513938903809,-0.46100035309791565,0.020873256027698517,0.11113999783992767,-0.08379447487811907,1.4299836769824856,-0.8653624896411565
5.078700065612793,0.0006164908409118652,-0.018510833382606506,-0.005204558372497559,-0.4371539354324341,0.026972424238920212,0.091131292283535,-0.08342689882201995,1.4306320650587578,-0.8607545893034109
5.0886619091033936,0.0028679370880126953,-0.016947239637374878,-0.010986164212226868,-0.40969809889793396,0.03432168439030647,0.07010270655155182,-0.08322061945301897,1.4313287737525486,-0.8564270325463592
5.098773002624512,0.004992365837097168,-0.021442018449306488,-0.014375343918800354,-0.3881606161594391,0.033868901431560516,0.056018952280282974,-0.08313747948539883,1.4320272439933073,-0.8523723004191428
5.108819961547852,0.012869715690612793,-0.027544833719730377,-0.018403828144073486,-0.3717377185821533,0.030927175655961037,0.039945174008607864,-0.08318271272162447,1.432691681556511,-0.8485248658425113
5.118726968765259,0.016916394233703613,-0.03577125817537308,-0.024253562092781067,-0.37124013900756836,0.03324492275714874,0.029274262487888336,-0.08335307930659132,1.4333291706149447,-0.844781806142072
5.1287970542907715,0.013898789882659912,-0.05036148428916931,-0.02848076820373535,-0.383704274892807,0.03654511272907257,0.018957441672682762,-0.08361622880646334,1.4340222700955876,-0.8409930235882386
5.1388349533081055,0.007413685321807861,-0.06090894341468811,-0.03104095160961151,-0.39191731810569763,0.03010266087949276,0.008448394946753979,-0.0840026815858299,1.4347099770975174,-0.8371114541787461
5.148916959762573,0.006687164306640625,-0.0627615749835968,-0.030182525515556335,-0.3971320688724518,0.01692667230963707,0.002301020547747612,-0.08448372143270447,1.435303246718856,-0.8331811331535367
5.158936023712158,0.006770133972167969,-0.06611139327287674,-0.027759313583374023,-0.4037673771381378,0.014294758439064026,0.0013987416168674827,-0.08501256970979992,1.4358100971104286,-0.8291908954164602
5.1690287590026855,0.0005015730857849121,-0.07511300593614578,-0.029621288180351257,-0.4034144878387451,0.01823064312338829,0.0017657250864431262,-0.08553216539240202,1.436345377188776,-0.8251579953799536
5.178918838500977,-0.0059653520584106445,-0.07637634128332138,-0.034141525626182556,-0.38574421405792236,0.010546048171818256,0.009386733174324036,-0.08600377809803948,1.436853588600387,-0.821213570742107
5.1888427734375,-0.0063820481300354,-0.07647967338562012,-0.03718750178813934,-0.3650434613227844,0.014344514347612858,0.027303682640194893,-0.08632191656351311,1.4373231149107553,-0.8174510141718012
5.198855876922607,-0.008661150932312012,-0.08302219212055206,-0.0390082448720932,-0.3465569019317627,0.03126632794737816,0.04904673993587494,-0.0864103088756983,1.4378833397393591,-0.8138500891865367
5.2089619636535645,-0.016987740993499756,-0.08464891463518143,-0.04147601127624512,-0.31979188323020935,0.03934263437986374,0.07474358379840851,-0.08623584916583087,1.438545567502089,-0.8104478260626711
5.218846797943115,-0.016420483589172363,-0.08202916383743286,-0.042635977268218994,-0.2975379526615143,0.0475466325879097,0.09717528522014618,-0.0857811584578052,1.4392772003415886,-0.8072598532838219
5.228872776031494,-0.009520292282104492,-0.07952586561441422,-0.04168502986431122,-0.2783581614494324,0.05834495276212692,0.11828882247209549,-0.08507581932826058,1.44008346751298,-0.8042517574662292
5.238912105560303,-0.00539165735244751,-0.0769767090678215,-0.04197363555431366,-0.2650110423564911,0.06427936255931854,0.12912985682487488,-0.0841866915920869,1.4409723546082909,-0.8013785561512858
5.2489519119262695,-0.0009824633598327637,-0.0752280205488205,-0.04115879535675049,-0.2511516809463501,0.06633105874061584,0.1376274675130844,-0.08318217818827504,1.4418727050800688,-0.7986376680221934
5.25902795791626,0.008137345314025879,-0.07435956597328186,-0.04042540490627289,-0.24710290133953094,0.06671620160341263,0.13940252363681793,-0.08211168890002117,1.4427786162929226,-0.7959753450562145
5.268941879272461,0.012866437435150146,-0.07165826857089996,-0.03940725326538086,-0.24261733889579773,0.06358911842107773,0.14126379787921906,-0.08102422568894774,1.443658642843342,-0.7933534674381719
5.27897310256958,0.016806960105895996,-0.06974160671234131,-0.03692162036895752,-0.23957328498363495,0.05822417885065079,0.14211346209049225,-0.07989737065960974,1.4444897086428554,-0.7907741343887909
5.288993835449219,0.02284717559814453,-0.06818155199289322,-0.03843092918395996,-0.24216213822364807,0.05319027230143547,0.13494928181171417,-0.07880690079392569,1.4452862348105082,-0.7882048783190226
5.299022912979126,0.021535038948059082,-0.06294354051351547,-0.041361331939697266,-0.23443777859210968,0.04760846123099327,0.13236644864082336,-0.07777715748382143,1.4459912916639017,-0.7856611385925266
5.3090128898620605,0.01637476682662964,-0.06660749763250351,-0.04127681255340576,-0.24429094791412354,0.05434892326593399,0.1358613222837448,-0.07672300711748935,1.4467180809187292,-0.7831037366677434
5.319004058837891,0.006937921047210693,-0.07230157405138016,-0.04275916516780853,-0.2433844655752182,0.0600704550743103,0.1340169757604599,-0.07568493999587113,1.447501277639786,-0.7805057427080405
5.3290557861328125,-0.0012279152870178223,-0.0623050332069397,-0.04459147900342941,-0.2086949199438095,0.05333079397678375,0.15351663529872894,-0.07450464801801152,1.4482998461653434,-0.7780661063512216
5.339049816131592,-0.0015914440155029297,-0.056628912687301636,-0.04739797115325928,-0.18925198912620544,0.05514902621507645,0.14957255125045776,-0.07323487010378929,1.4490193324778606,-0.7758930226566002
5.349024772644043,-0.0038478970527648926,-0.056103870272636414,-0.04581183195114136,-0.16924072802066803,0.05481772869825363,0.15755191445350647,-0.0719281820689292,1.4497406736229121,-0.7739143342819376
5.359102964401245,-0.010517418384552002,-0.05582023411989212,-0.044238343834877014,-0.16196127235889435,0.05432557687163353,0.1628376990556717,-0.07051180403150024,1.4504445382724618,-0.7720718147189458
5.369113922119141,-0.009325563907623291,-0.05225960165262222,-0.04516841471195221,-0.158380389213562,0.050550542771816254,0.1686021238565445,-0.06905333662611447,1.451118571492601,-0.7702839435067588
5.379049777984619,-0.006727874279022217,-0.049535155296325684,-0.04140378534793854,-0.16521108150482178,0.047601401805877686,0.17788365483283997,-0.06751549538698243,1.4517517141582643,-0.7684742366679133
5.390773773193359,-0.00840306282043457,-0.050579145550727844,-0.039576053619384766,-0.16723880171775818,0.04529430717229843,0.1823716163635254,-0.06590085653338947,1.4523685776549053,-0.7666017440156496
5.399151802062988,-0.008422255516052246,-0.04658636450767517,-0.04099881649017334,-0.1615973860025406,0.03714383393526077,0.19145986437797546,-0.06422385742163325,1.4529088157198704,-0.7647591714589239
5.409120082855225,-0.008042871952056885,-0.040725525468587875,-0.04074026644229889,-0.16597668826580048,0.038493793457746506,0.19800564646720886,-0.06246412757332442,1.453415556653033,-0.7629060357628716
5.419149875640869,-0.010271251201629639,-0.036056313663721085,-0.04213660955429077,-0.16637735068798065,0.03409256413578987,0.20086230337619781,-0.060660136556203975,1.4539136768677305,-0.7610078147671491
5.429193019866943,-0.009483873844146729,-0.028833981603384018,-0.04419606178998947,-0.161453977227211,0.029130829498171806,0.2008492648601532,-0.058851444751256476,1.4543568293245004,-0.7591436984785704
5.440539836883545,-0.00745391845703125,-0.02016117051243782,-0.041996657848358154,-0.15019725263118744,0.02672630548477173,0.19687391817569733,-0.05572771792140656,1.451667097533377,-0.7575293863331176
5.449177980422974,-0.009545207023620605,-0.012938838452100754,-0.03713865578174591,-0.13158468902111053,0.02703017182648182,0.19877994060516357,-0.05277351316171177,1.4492025566071602,-0.7560429911577574
5.459198951721191,-0.012688398361206055,-0.003960181027650833,-0.034102439880371094,-0.10869865119457245,0.03137853741645813,0.198974609375,-0.04989455788496584,1.4472505994812463,-0.7547117139192147
5.4692158699035645,-0.014046430587768555,0.00762520357966423,-0.033643051981925964,-0.07206501066684723,0.0354587659239769,0.20137758553028107,-0.0469574503055236,1.4456194130578732,-0.7536724191348623
5.479211807250977,-0.01501399278640747,0.013602115213871002,-0.03284531831741333,-0.043190814554691315,0.0422825813293457,0.19699764251708984,-0.04413619649161277,1.444045497017422,-0.7529414470639628
5.490349769592285,-0.014778316020965576,0.017313607037067413,-0.033032238483428955,-0.023743880912661552,0.04779426008462906,0.1898782104253769,-0.041551468362273414,1.4426469527566277,-0.7524370257753267
5.499233961105347,-0.01564425230026245,0.020792726427316666,-0.03134863078594208,-0.00879860483109951,0.043581895530223846,0.18123199045658112,-0.03923012856084338,1.4412988421508937,-0.7521134002876427
5.5092549324035645,-0.010845661163330078,0.024169988930225372,-0.028006121516227722,-0.0005007272120565176,0.04208200424909592,0.16593559086322784,-0.03728575988830866,1.4399679130754186,-0.7519177379487744
5.519242763519287,-0.007391393184661865,0.026445645838975906,-0.0234634131193161,0.0027270903810858727,0.030253484845161438,0.14775505661964417,-0.035756766781147836,1.43868599683713,-0.7517898148056402
5.529338836669922,-0.005808711051940918,0.026829924434423447,-0.018491432070732117,-0.0030860574916005135,0.017531830817461014,0.1251554638147354,-0.034608834563537465,1.4374922859650057,-0.7516621605190321
5.540726900100708,-0.0015274882316589355,0.025044813752174377,-0.012663066387176514,-0.010460133664309978,0.0077346377074718475,0.11152822524309158,-0.03387581823110458,1.4363253482502043,-0.7514783094928398
5.549380779266357,0.0002617835998535156,0.023318972438573837,-0.007864177227020264,-0.01795613393187523,0.0009140162728726864,0.09697245061397552,-0.033572085538294494,1.4350864032128632,-0.7512361551714898
5.559326887130737,0.0042920708656311035,0.02378753200173378,-0.005261778831481934,-0.016928186640143394,-0.010463185608386993,0.08654298633337021,-0.03348493891696092,1.433814666937982,-0.7509791074223787
5.569431781768799,0.011103332042694092,0.026099737733602524,-0.002999529242515564,-0.010837803594768047,-0.02337685413658619,0.06777196377515793,-0.033553128402359716,1.432453989994635,-0.7507720485274145
5.579771995544434,0.016000747680664062,0.026312317699193954,-0.0006732791662216187,-0.00783107802271843,-0.03277404233813286,0.048928070813417435,-0.03381372620958866,1.4310891409187856,-0.7506315274010219
5.590606927871704,0.01626718044281006,0.020492207258939743,0.002207517623901367,-0.023214295506477356,-0.03833072632551193,0.024382246658205986,-0.034278288937777984,1.4298411295280715,-0.7504496612580465
5.599329948425293,0.013284027576446533,0.015406206250190735,0.009090781211853027,-0.0386030413210392,-0.045925527811050415,0.0007883448852226138,-0.03500071430056445,1.428771883959074,-0.7501485137465271
5.609384059906006,0.010238349437713623,0.008280228823423386,0.017067238688468933,-0.053692776709795,-0.04952133074402809,-0.021762238815426826,-0.03590167138000261,1.4278766198744461,-0.7497193302031201
5.619441032409668,0.010160088539123535,0.0048104822635650635,0.022443056106567383,-0.05311939865350723,-0.05473792925477028,-0.04433439299464226,-0.036930677083691625,1.4271876214628338,-0.7492287433767096
5.629426002502441,0.009212136268615723,0.0017938986420631409,0.02779257297515869,-0.0439450740814209,-0.056572847068309784,-0.05853596702218056,-0.03802541960969772,1.426632626378522,-0.748821638740931
5.64058780670166,0.006747722625732422,0.0004842430353164673,0.02939307689666748,-0.021357756108045578,-0.05751769244670868,-0.07187382131814957,-0.039198631386402956,1.4261493324690258,-0.7485866191127866
5.649569034576416,0.0057108402252197266,-0.002155579626560211,0.029102638363838196,-0.0008210557280108333,-0.054410047829151154,-0.0761796161532402,-0.04043563113079649,1.4257414897444902,-0.7485858865794476
5.6596338748931885,0.002575516700744629,-0.008585304021835327,0.030839920043945312,0.012760150246322155,-0.03798096254467964,-0.07182344049215317,-0.041617313118653285,1.4254896557182646,-0.7487497829407732
5.6696319580078125,-0.005513429641723633,-0.017523527145385742,0.03212207555770874,0.01985001750290394,-0.02557010017335415,-0.06264431774616241,-0.042545506880444166,1.425452682347914,-0.7489891211024091
5.679563045501709,-0.009401142597198486,-0.022624686360359192,0.03310585021972656,0.030885491520166397,-0.01051400788128376,-0.04945005849003792,-0.04322224324696475,1.4257343912181129,-0.7492985067727336
5.690645933151245,-0.008894264698028564,-0.024679753929376602,0.032557129859924316,0.04562688618898392,0.0018206893000751734,-0.036131322383880615,-0.04358392103468396,1.4263488469992802,-0.749706995866781
5.699455976486206,-0.009477436542510986,-0.026173919439315796,0.0315641313791275,0.05995359644293785,0.006968757137656212,-0.02530434913933277,-0.04375070703795896,1.4271669990754194,-0.7502405173037113
5.709523916244507,-0.006575584411621094,-0.027962587773799896,0.030628681182861328,0.06983925402164459,0.008109655231237411,-0.014894317835569382,-0.04375411938783083,1.4281129742489769,-0.7508835285075672
5.719474792480469,-0.0023660659790039062,-0.02848033979535103,0.030295252799987793,0.07088151574134827,0.012084334157407284,-0.007964293472468853,-0.04366144294005887,1.4290678649891257,-0.751564671721259
5.729568958282471,0.00026220083236694336,-0.026731010526418686,0.03133964538574219,0.06583961844444275,0.011238514445722103,-0.006370125338435173,-0.043514129651048554,1.4299721417937874,-0.7522136396083711
5.740411758422852,-0.0004208087921142578,-0.02474437654018402,0.03233158588409424,0.06189921498298645,0.008917968720197678,-0.005795788485556841,-0.04326676201147003,1.4308527086471645,-0.7528223039361002
5.74954891204834,-0.002175569534301758,-0.02774466574192047,0.030665040016174316,0.059044040739536285,0.013675440102815628,-0.00398244196549058,-0.04287923992554893,1.4317221068088883,-0.7533983222354529
5.7595789432525635,-0.008334934711456299,-0.02696235477924347,0.03060007095336914,0.055973418056964874,0.019595913589000702,0.001113516860641539,-0.042386410253445375,1.4326388660054779,-0.7539365948753641
5.769635915756226,-0.012572050094604492,-0.022123046219348907,0.024143889546394348,0.06182864308357239,0.018241429701447487,0.004644868429750204,-0.041849589405843955,1.433553375812556,-0.7544812809144603
5.779726982116699,-0.009585440158843994,-0.01673172041773796,0.022170722484588623,0.06453153491020203,0.01812988705933094,0.010460040532052517,-0.04124901427137287,1.4344095188097583,-0.7550741175735627
5.790489912033081,-0.006692230701446533,-0.018153537064790726,0.02033311128616333,0.06437760591506958,0.02072726935148239,0.01586172915995121,-0.040579804193483324,1.435267669101373,-0.755666764710713
5.799628973007202,-0.00817650556564331,-0.019351240247488022,0.019713521003723145,0.05900420993566513,0.017117708921432495,0.018425021320581436,-0.039884868834882826,1.4361130273939602,-0.7562308605698784
5.809617042541504,-0.0063016414642333984,-0.01547836884856224,0.020335912704467773,0.04972203075885773,0.016324086114764214,0.016720598563551903,-0.03924636960234452,1.4369671922795042,-0.7567305952569517
5.819601058959961,-0.00739443302154541,-0.01565462350845337,0.018843233585357666,0.04070701450109482,0.014484507963061333,0.012208884581923485,-0.038705027783081485,1.4377993293668052,-0.7571278442738989
5.830254077911377,-0.010716617107391357,-0.013921305537223816,0.016899004578590393,0.03103441372513771,0.010517196729779243,0.004685721360146999,-0.03820732148640859,1.4385477770864712,-0.7574436198893931
5.840533971786499,-0.012086033821105957,-0.010990656912326813,0.016401425004005432,0.029331039637327194,0.005023051518946886,-0.0033709798008203506,-0.03782461780521665,1.4392214634069278,-0.7577210166523283
5.84971809387207,-0.01060342788696289,-0.00942591205239296,0.016500070691108704,0.026320867240428925,0.008418316021561623,-0.003909205086529255,-0.03755665402628515,1.439708470579601,-0.7579940625214824
5.859684944152832,-0.011009693145751953,-0.011072143912315369,0.013300716876983643,0.024851417168974876,0.010728385299444199,-0.0026956554502248764,-0.037371712216528255,1.4401971764976473,-0.7582366819638316
5.869757890701294,-0.010269105434417725,-0.009500730782747269,0.010779544711112976,0.029470937326550484,0.007068669889122248,0.0025995075702667236,-0.037112377755924277,1.4406485507979845,-0.7584892283411939
5.879746913909912,-0.005829215049743652,-0.00777965784072876,0.006947875022888184,0.030875040218234062,0.002442004857584834,0.0031560552306473255,-0.036810175983788315,1.4410367406674718,-0.7587700054677742
5.89047908782959,-0.0015069246292114258,-0.008104342967271805,0.005113840103149414,0.026934092864394188,-0.0036355950869619846,-0.00020325637888163328,-0.036570116991533896,1.4414104327883626,-0.7590440555852158
5.899768829345703,-0.002127349376678467,-0.008755937218666077,0.007642284035682678,0.011334393173456192,-0.015379335731267929,-0.010821758769452572,-0.03639762079403753,1.4416775544640361,-0.7592317969658998
5.9097747802734375,-0.0003451704978942871,-0.010048903524875641,0.011707007884979248,-0.005901584401726723,-0.022442571818828583,-0.019110314548015594,-0.036363057993970306,1.4418103701876286,-0.7592724567034859
5.919890880584717,0.00021147727966308594,-0.013280417770147324,0.01578223705291748,-0.025191858410835266,-0.02511913888156414,-0.025402512401342392,-0.036466575459971874,1.4419011146366916,-0.7591349504411752
5.9298858642578125,-0.0021863579750061035,-0.013190563768148422,0.017783045768737793,-0.029873961582779884,-0.02926727943122387,-0.030524836853146553,-0.03666678310266655,1.441975202527794,-0.7588691743257833
5.940310001373291,-0.002034604549407959,-0.009229928255081177,0.018660128116607666,-0.016358036547899246,-0.034321025013923645,-0.032566897571086884,-0.03687191626316188,1.4419206797295967,-0.7586602214880811
5.949821949005127,0.0011140704154968262,-0.008280593901872635,0.01802194118499756,-0.0009631020948290825,-0.027329161763191223,-0.03517546132206917,-0.03709766825623974,1.4418244978632744,-0.7586053038652536
5.959853887557983,-0.0003014802932739258,-0.006333932280540466,0.016321957111358643,0.016974152997136116,-0.017686299979686737,-0.029918381944298744,-0.03730265713710732,1.4417374351817351,-0.7587260883922541
5.9698710441589355,-0.0005944967269897461,-0.00388968363404274,0.01338130235671997,0.030492357909679413,-0.011546649038791656,-0.03043290413916111,-0.037452489132097457,1.4416861612852534,-0.7590029729238351
5.979889869689941,0.000497281551361084,-0.0038784220814704895,0.013871908187866211,0.03987530991435051,-0.0035156202502548695,-0.029037512838840485,-0.03757864146553875,1.4417756398652248,-0.7593873975831342
5.990549087524414,-0.0035816431045532227,-0.010635245591402054,0.016877785325050354,0.03747207298874855,0.006323961541056633,-0.023993486538529396,-0.037636892769035646,1.4420679725782106,-0.7597974925015107
5.999980926513672,-0.008128583431243896,-0.015520967543125153,0.015544727444648743,0.036070797592401505,0.009814787656068802,-0.017944755032658577,-0.03760929197665178,1.4425356154069084,-0.7601733949045126
6.009912967681885,-0.005841672420501709,-0.01204463467001915,0.014158070087432861,0.04104318842291832,0.004724688827991486,-0.01688455045223236,-0.03755087110955001,1.44301124118067,-0.7605642677558804
